[{"rt":10331.09999999404,"stimulus":"[A] option 1, [L] option 2, [G] neither","key_press":65,"name":"choice","trial_type":"html-keyboard-response","trial_index":15,"time_elapsed":140038,"internal_node_id":"0.0-15.0","response":"1st","certainty":"high","char":"A","transposition":-3,"order":["swapped","shifted"],"probe_pitches":[1,5,4,7,1,-3,8,6,1,5,6,8,9,7,1,3],"shifted_pitches":[1,5,4,7,1,-3,8,6,2,5,6,8,9,7,1,3],"swapped_pitches":[1,5,4,7,1,-3,8,1,6,5,6,8,9,7,1,3],"shift_direction":1,"question_num":1,"has_decoy":false,"subject":"S1C1617","sona":"41487","block":1,"time":"2021-09-16T15:37:22.126Z"},{"rt":1836.5,"stimulus":"[A] option 1, [L] option 2, [G] neither","key_press":76,"name":"choice","trial_type":"html-keyboard-response","trial_index":26,"time_elapsed":168443,"internal_node_id":"0.0-26.0","response":"2nd","certainty":"high","char":"L","transposition":-1,"order":["swapped","shifted"],"probe_pitches":[1,6,3,1,-1,1,3,1,8,3,11,1,11,3,6,-1],"shifted_pitches":[1,6,3,1,-1,1,3,1,9,3,11,1,11,3,6,-1],"swapped_pitches":[1,6,3,1,-1,1,3,8,1,3,11,1,11,3,6,-1],"shift_direction":1,"question_num":11,"has_decoy":false,"subject":"S1C1617","sona":"41487","block":1,"time":"2021-09-16T15:37:22.126Z"},{"rt":2882.1000000089407,"stimulus":"[A] option 1, [L] option 2, [G] neither","key_press":76,"name":"choice","trial_type":"html-keyboard-response","trial_index":37,"time_elapsed":195643,"internal_node_id":"0.0-37.0","response":"2nd","certainty":"high","char":"L","transposition":-2,"order":["shifted","swapped"],"probe_pitches":[9,6,9,6,-1,9,4,6,1,9,6,4,9,11,-1,6],"shifted_pitches":[9,6,9,6,-1,9,4,6,0,9,6,4,9,11,-1,6],"swapped_pitches":[9,6,9,6,-1,9,4,1,6,9,6,4,9,11,-1,6],"shift_direction":-1,"question_num":21,"has_decoy":false,"subject":"S1C1617","sona":"41487","block":1,"time":"2021-09-16T15:37:22.126Z"},{"rt":1321.5,"stimulus":"[A] option 1, [L] option 2, [G] neither","key_press":65,"name":"choice","trial_type":"html-keyboard-response","trial_index":48,"time_elapsed":220215,"internal_node_id":"0.0-48.0","response":"1st","certainty":"high","char":"A","transposition":3,"order":["swapped","shifted"],"probe_pitches":[9,4,8,0,6,4,3,7,6,9,4,6,1,4,-3,0],"shifted_pitches":[9,4,8,0,6,4,3,7,5,9,4,6,1,4,-3,0],"swapped_pitches":[9,4,8,0,6,4,3,6,7,9,4,6,1,4,-3,0],"shift_direction":-1,"question_num":31,"has_decoy":false,"subject":"S1C1617","sona":"41487","block":1,"time":"2021-09-16T15:37:22.126Z"},{"rt":1182.7999999970198,"stimulus":"[A] option 1, [L] option 2, [G] neither","key_press":65,"name":"choice","trial_type":"html-keyboard-response","trial_index":59,"time_elapsed":244300,"internal_node_id":"0.0-59.0","response":"1st","certainty":"high","char":"A","transposition":-3,"order":["swapped","shifted"],"probe_pitches":[-2,-1,4,3,8,4,-2,6,8,4,3,4,3,-1,4,9],"shifted_pitches":[-2,-1,4,3,8,4,-2,7,8,4,3,4,3,-1,4,9],"swapped_pitches":[-2,-1,4,3,8,4,-2,8,6,4,3,4,3,-1,4,9],"shift_direction":1,"question_num":41,"has_decoy":false,"subject":"S1C1617","sona":"41487","block":1,"time":"2021-09-16T15:37:22.126Z"},{"rt":1090.5,"stimulus":"[A] option 1, [L] option 2, [G] neither","key_press":65,"name":"choice","trial_type":"html-keyboard-response","trial_index":70,"time_elapsed":268327,"internal_node_id":"0.0-70.0","response":"1st","certainty":"high","char":"A","transposition":1,"order":["swapped","shifted"],"probe_pitches":[2,7,9,8,5,1,-1,2,1,6,-1,4,1,5,-3,-1],"shifted_pitches":[2,7,9,8,5,1,-1,3,1,6,-1,4,1,5,-3,-1],"swapped_pitches":[2,7,9,8,5,1,-1,1,2,6,-1,4,1,5,-3,-1],"shift_direction":1,"question_num":51,"has_decoy":false,"subject":"S1C1617","sona":"41487","block":1,"time":"2021-09-16T15:37:22.126Z"},{"rt":1103.5999999940395,"stimulus":"[A] option 1, [L] option 2, [G] neither","key_press":65,"name":"choice","trial_type":"html-keyboard-response","trial_index":81,"time_elapsed":291846,"internal_node_id":"0.0-81.0","response":"1st","certainty":"high","char":"A","transposition":2,"order":["swapped","shifted"],"probe_pitches":[1,6,1,4,6,-1,9,11,1,9,4,1,9,1,9,-1],"shifted_pitches":[1,6,1,4,6,-1,9,11,0,9,4,1,9,1,9,-1],"swapped_pitches":[1,6,1,4,6,-1,9,1,11,9,4,1,9,1,9,-1],"shift_direction":-1,"question_num":61,"has_decoy":false,"subject":"S1C1617","sona":"41487","block":1,"time":"2021-09-16T15:37:22.126Z"},{"rt":4476.79999999702,"stimulus":"[A] option 1, [L] option 2, [G] neither","key_press":76,"name":"choice","trial_type":"html-keyboard-response","trial_index":92,"time_elapsed":318488,"internal_node_id":"0.0-92.0","response":"2nd","certainty":"high","char":"L","transposition":0,"order":["shifted","swapped"],"probe_pitches":[3,6,5,-3,5,2,-2,5,3,-1,-3,1,3,2,1,7],"shifted_pitches":[3,6,5,-3,5,2,-2,4,3,-1,-3,1,3,2,1,7],"swapped_pitches":[3,6,5,-3,5,2,-2,3,5,-1,-3,1,3,2,1,7],"shift_direction":-1,"question_num":71,"has_decoy":false,"subject":"S1C1617","sona":"41487","block":1,"time":"2021-09-16T15:37:22.126Z"},{"rt":1617.0999999940395,"stimulus":"[A] option 1, [L] option 2, [G] neither","key_press":65,"name":"choice","trial_type":"html-keyboard-response","trial_index":103,"time_elapsed":343063,"internal_node_id":"0.0-103.0","response":"1st","certainty":"high","char":"A","transposition":-2,"order":["shifted","swapped"],"probe_pitches":[11,6,9,4,2,6,9,11,6,-1,9,11,4,9,-1,4],"shifted_pitches":[11,6,9,4,2,6,9,10,6,-1,9,11,4,9,-1,4],"swapped_pitches":[11,6,9,4,2,6,9,6,11,-1,9,11,4,9,-1,4],"shift_direction":-1,"question_num":81,"has_decoy":false,"subject":"S1C1617","sona":"41487","block":1,"time":"2021-09-16T15:37:22.126Z"},{"rt":1442.8999999910593,"stimulus":"[A] option 1, [L] option 2, [G] neither","key_press":76,"name":"choice","trial_type":"html-keyboard-response","trial_index":114,"time_elapsed":366840,"internal_node_id":"0.0-114.0","response":"2nd","certainty":"high","char":"L","transposition":-1,"order":["shifted","swapped"],"probe_pitches":[8,6,1,-1,8,4,-1,11,8,6,11,8,-1,6,-1,8],"shifted_pitches":[8,6,1,-1,8,4,-1,11,9,6,11,8,-1,6,-1,8],"swapped_pitches":[8,6,1,-1,8,4,-1,8,11,6,11,8,-1,6,-1,8],"shift_direction":1,"question_num":91,"has_decoy":false,"subject":"S1C1617","sona":"41487","block":1,"time":"2021-09-16T15:37:22.126Z"},{"rt":1090.3999999910593,"stimulus":"[A] option 1, [L] option 2, [G] neither","key_press":65,"name":"choice","trial_type":"html-keyboard-response","trial_index":125,"time_elapsed":394274,"internal_node_id":"0.0-125.0","response":"1st","certainty":"high","char":"A","transposition":3,"order":["swapped","shifted"],"probe_pitches":[4,-1,2,-1,4,2,7,11,2,4,-1,11,2,9,-1,4],"shifted_pitches":[4,-1,2,-1,4,2,7,12,2,4,-1,11,2,9,-1,4],"swapped_pitches":[4,-1,2,-1,4,2,7,2,11,4,-1,11,2,9,-1,4],"shift_direction":1,"question_num":101,"has_decoy":false,"subject":"S1C1617","sona":"41487","block":1,"time":"2021-09-16T15:37:22.126Z"},{"rt":1625.300000011921,"stimulus":"[A] option 1, [L] option 2, [G] neither","key_press":76,"name":"choice","trial_type":"html-keyboard-response","trial_index":136,"time_elapsed":418403,"internal_node_id":"0.0-136.0","response":"2nd","certainty":"high","char":"L","transposition":-3,"order":["swapped","shifted"],"probe_pitches":[-1,1,-1,6,8,11,1,-1,11,1,8,3,1,8,6,1],"shifted_pitches":[-1,1,-1,6,8,11,1,-2,11,1,8,3,1,8,6,1],"swapped_pitches":[-1,1,-1,6,8,11,1,11,-1,1,8,3,1,8,6,1],"shift_direction":-1,"question_num":111,"has_decoy":false,"subject":"S1C1617","sona":"41487","block":1,"time":"2021-09-16T15:37:22.126Z"},{"rt":1326.5,"stimulus":"[A] option 1, [L] option 2, [G] neither","key_press":65,"name":"choice","trial_type":"html-keyboard-response","trial_index":147,"time_elapsed":442407,"internal_node_id":"0.0-147.0","response":"1st","certainty":"high","char":"A","transposition":-2,"order":["shifted","swapped"],"probe_pitches":[-1,5,7,9,1,-1,3,0,9,-2,9,-3,7,6,4,-1],"shifted_pitches":[-1,5,7,9,1,-1,3,0,8,-2,9,-3,7,6,4,-1],"swapped_pitches":[-1,5,7,9,1,-1,3,9,0,-2,9,-3,7,6,4,-1],"shift_direction":-1,"question_num":121,"has_decoy":false,"subject":"S1C1617","sona":"41487","block":1,"time":"2021-09-16T15:37:22.126Z"},{"rt":1166.2999999970198,"stimulus":"[A] option 1, [L] option 2, [G] neither","key_press":76,"name":"choice","trial_type":"html-keyboard-response","trial_index":158,"time_elapsed":468817,"internal_node_id":"0.0-158.0","response":"2nd","certainty":"high","char":"L","transposition":-3,"order":["swapped","shifted"],"probe_pitches":[1,4,6,8,11,1,11,4,8,6,4,1,11,8,4,1],"shifted_pitches":[1,4,6,8,11,1,11,4,9,6,4,1,11,8,4,1],"swapped_pitches":[1,4,6,8,11,1,11,8,4,6,4,1,11,8,4,1],"shift_direction":1,"question_num":131,"has_decoy":false,"subject":"S1C1617","sona":"41487","block":1,"time":"2021-09-16T15:37:22.126Z"},{"rt":1026.4000000059605,"stimulus":"[A] option 1, [L] option 2, [G] neither","key_press":76,"name":"choice","trial_type":"html-keyboard-response","trial_index":169,"time_elapsed":492730,"internal_node_id":"0.0-169.0","response":"2nd","certainty":"high","char":"L","transposition":2,"order":["shifted","swapped"],"probe_pitches":[5,2,-2,1,4,3,9,5,1,2,-1,8,7,1,5,7],"shifted_pitches":[5,2,-2,1,4,3,9,6,1,2,-1,8,7,1,5,7],"swapped_pitches":[5,2,-2,1,4,3,9,1,5,2,-1,8,7,1,5,7],"shift_direction":1,"question_num":141,"has_decoy":false,"subject":"S1C1617","sona":"41487","block":1,"time":"2021-09-16T15:37:22.126Z"},{"rt":1264,"stimulus":"[A] option 1, [L] option 2, [G] neither","key_press":65,"name":"choice","trial_type":"html-keyboard-response","trial_index":180,"time_elapsed":516391,"internal_node_id":"0.0-180.0","response":"1st","certainty":"high","char":"A","transposition":-1,"order":["swapped","shifted"],"probe_pitches":[-2,-3,4,2,0,6,-3,0,-2,8,-2,0,1,-3,6,-3],"shifted_pitches":[-2,-3,4,2,0,6,-3,0,-1,8,-2,0,1,-3,6,-3],"swapped_pitches":[-2,-3,4,2,0,6,-3,-2,0,8,-2,0,1,-3,6,-3],"shift_direction":1,"question_num":151,"has_decoy":false,"subject":"S1C1617","sona":"41487","block":1,"time":"2021-09-16T15:37:22.126Z"},{"rt":6381.699999988079,"stimulus":"[A] option 1, [L] option 2, [G] neither","key_press":71,"name":"choice","trial_type":"html-keyboard-response","trial_index":191,"time_elapsed":546117,"internal_node_id":"0.0-191.0","response":"neither","certainty":"high","char":"G","transposition":1,"order":["shifted","swapped"],"probe_pitches":[2,4,11,6,-1,4,2,6,4,9,-1,11,4,2,9,4],"shifted_pitches":[2,4,11,6,-1,4,2,7,4,9,-1,11,4,2,9,4],"swapped_pitches":[2,4,11,6,-1,4,2,4,6,9,-1,11,4,2,9,4],"shift_direction":1,"question_num":161,"has_decoy":false,"subject":"S1C1617","sona":"41487","block":1,"time":"2021-09-16T15:37:22.126Z"},{"rt":1102.5999999940395,"stimulus":"[A] option 1, [L] option 2, [G] neither","key_press":76,"name":"choice","trial_type":"html-keyboard-response","trial_index":202,"time_elapsed":570496,"internal_node_id":"0.0-202.0","response":"2nd","certainty":"high","char":"L","transposition":0,"order":["shifted","swapped"],"probe_pitches":[9,11,7,4,2,11,2,-1,11,2,11,4,-1,4,9,7],"shifted_pitches":[9,11,7,4,2,11,2,-2,11,2,11,4,-1,4,9,7],"swapped_pitches":[9,11,7,4,2,11,2,11,-1,2,11,4,-1,4,9,7],"shift_direction":-1,"question_num":171,"has_decoy":false,"subject":"S1C1617","sona":"41487","block":1,"time":"2021-09-16T15:37:22.126Z"},{"rt":1115.3999999910593,"stimulus":"[A] option 1, [L] option 2, [G] neither","key_press":76,"name":"choice","trial_type":"html-keyboard-response","trial_index":213,"time_elapsed":594049,"internal_node_id":"0.0-213.0","response":"2nd","certainty":"high","char":"L","transposition":-1,"order":["shifted","swapped"],"probe_pitches":[4,-2,3,4,-2,2,9,1,7,6,-1,3,1,3,1,8],"shifted_pitches":[4,-2,3,4,-2,2,9,0,7,6,-1,3,1,3,1,8],"swapped_pitches":[4,-2,3,4,-2,2,9,7,1,6,-1,3,1,3,1,8],"shift_direction":-1,"question_num":181,"has_decoy":false,"subject":"S1C1617","sona":"41487","block":1,"time":"2021-09-16T15:37:22.126Z"},{"rt":1324.8999999910593,"stimulus":"[A] option 1, [L] option 2, [G] neither","key_press":76,"name":"choice","trial_type":"html-keyboard-response","trial_index":224,"time_elapsed":618482,"internal_node_id":"0.0-224.0","response":"2nd","certainty":"high","char":"L","transposition":-2,"order":["shifted","swapped"],"probe_pitches":[0,6,4,9,2,9,6,-3,2,6,7,2,9,0,-3,0],"shifted_pitches":[0,6,4,9,2,9,6,-3,1,6,7,2,9,0,-3,0],"swapped_pitches":[0,6,4,9,2,9,6,2,-3,6,7,2,9,0,-3,0],"shift_direction":-1,"question_num":191,"has_decoy":false,"subject":"S1C1617","sona":"41487","block":1,"time":"2021-09-16T15:37:22.126Z"}]