[{"rt":428.5,"stimulus":"[A] option 1, [L] option 2, [G] neither","key_press":65,"name":"choice","trial_type":"html-keyboard-response","trial_index":10,"time_elapsed":24658,"internal_node_id":"0.0-10.0","subject":"S1C1617","sona":"41487","block":5,"time":"2021-09-16T16:19:38.874Z","response":"1st","certainty":"high","char":"A","transposition":-1,"order":["swapped","shifted"],"probe_pitches":[5,1,-2,1,8,5,1,8,3,1,3,5,-2,1,3,10],"shifted_pitches":[5,1,-2,1,8,5,1,7,3,1,3,5,-2,1,3,10],"swapped_pitches":[5,1,-2,1,8,5,1,3,8,1,3,5,-2,1,3,10],"shift_direction":-1,"question_num":1,"has_decoy":false},{"rt":1593.7000000029802,"stimulus":"[A] option 1, [L] option 2, [G] neither","key_press":76,"name":"choice","trial_type":"html-keyboard-response","trial_index":21,"time_elapsed":50026,"internal_node_id":"0.0-21.0","subject":"S1C1617","sona":"41487","block":5,"time":"2021-09-16T16:19:38.874Z","response":"2nd","certainty":"high","char":"L","transposition":2,"order":["swapped","shifted"],"probe_pitches":[10,6,3,-2,3,-2,3,8,1,-2,6,10,6,1,8,-2],"shifted_pitches":[10,6,3,-2,3,-2,3,7,1,-2,6,10,6,1,8,-2],"swapped_pitches":[10,6,3,-2,3,-2,3,1,8,-2,6,10,6,1,8,-2],"shift_direction":-1,"question_num":11,"has_decoy":false},{"rt":823.4000000059605,"stimulus":"[A] option 1, [L] option 2, [G] neither","key_press":76,"name":"choice","trial_type":"html-keyboard-response","trial_index":32,"time_elapsed":73575,"internal_node_id":"0.0-32.0","subject":"S1C1617","sona":"41487","block":5,"time":"2021-09-16T16:19:38.874Z","response":"2nd","certainty":"high","char":"L","transposition":-1,"order":["shifted","swapped"],"probe_pitches":[8,9,13,10,13,7,13,6,2,7,9,4,10,4,2,13],"shifted_pitches":[8,9,13,10,13,7,13,5,2,7,9,4,10,4,2,13],"swapped_pitches":[8,9,13,10,13,7,13,2,6,7,9,4,10,4,2,13],"shift_direction":-1,"question_num":21,"has_decoy":false},{"rt":470.90000000596046,"stimulus":"[A] option 1, [L] option 2, [G] neither","key_press":76,"name":"choice","trial_type":"html-keyboard-response","trial_index":43,"time_elapsed":96518,"internal_node_id":"0.0-43.0","subject":"S1C1617","sona":"41487","block":5,"time":"2021-09-16T16:19:38.874Z","response":"2nd","certainty":"high","char":"L","transposition":-3,"order":["swapped","shifted"],"probe_pitches":[-2,3,0,-2,5,0,8,-2,0,5,-2,5,0,8,10,-2],"shifted_pitches":[-2,3,0,-2,5,0,8,-1,0,5,-2,5,0,8,10,-2],"swapped_pitches":[-2,3,0,-2,5,0,8,0,-2,5,-2,5,0,8,10,-2],"shift_direction":1,"question_num":31,"has_decoy":false},{"rt":669.7000000029802,"stimulus":"[A] option 1, [L] option 2, [G] neither","key_press":65,"name":"choice","trial_type":"html-keyboard-response","trial_index":54,"time_elapsed":120172,"internal_node_id":"0.0-54.0","subject":"S1C1617","sona":"41487","block":5,"time":"2021-09-16T16:19:38.874Z","response":"1st","certainty":"high","char":"A","transposition":-1,"order":["shifted","swapped"],"probe_pitches":[5,10,5,8,3,-2,3,8,10,0,8,0,8,10,8,-2],"shifted_pitches":[5,10,5,8,3,-2,3,8,11,0,8,0,8,10,8,-2],"swapped_pitches":[5,10,5,8,3,-2,3,10,8,0,8,0,8,10,8,-2],"shift_direction":1,"question_num":41,"has_decoy":false},{"rt":1682.4000000059605,"stimulus":"[A] option 1, [L] option 2, [G] neither","key_press":71,"name":"choice","trial_type":"html-keyboard-response","trial_index":65,"time_elapsed":144235,"internal_node_id":"0.0-65.0","subject":"S1C1617","sona":"41487","block":5,"time":"2021-09-16T16:19:38.874Z","response":"neither","certainty":"high","char":"G","transposition":-1,"order":["swapped","shifted"],"probe_pitches":[8,9,12,6,13,7,6,12,3,6,1,2,13,6,13,4],"shifted_pitches":[8,9,12,6,13,7,6,11,3,6,1,2,13,6,13,4],"swapped_pitches":[8,9,12,6,13,7,6,3,12,6,1,2,13,6,13,4],"shift_direction":-1,"question_num":51,"has_decoy":false},{"rt":807.5999999940395,"stimulus":"[A] option 1, [L] option 2, [G] neither","key_press":76,"name":"choice","trial_type":"html-keyboard-response","trial_index":76,"time_elapsed":167659,"internal_node_id":"0.0-76.0","subject":"S1C1617","sona":"41487","block":5,"time":"2021-09-16T16:19:38.874Z","response":"2nd","certainty":"high","char":"L","transposition":1,"order":["shifted","swapped"],"probe_pitches":[1,-2,3,-2,5,10,8,3,5,1,10,5,10,3,8,5],"shifted_pitches":[1,-2,3,-2,5,10,8,3,6,1,10,5,10,3,8,5],"swapped_pitches":[1,-2,3,-2,5,10,8,5,3,1,10,5,10,3,8,5],"shift_direction":1,"question_num":61,"has_decoy":false},{"rt":370.79999999701977,"stimulus":"[A] option 1, [L] option 2, [G] neither","key_press":65,"name":"choice","trial_type":"html-keyboard-response","trial_index":87,"time_elapsed":190442,"internal_node_id":"0.0-87.0","subject":"S1C1617","sona":"41487","block":5,"time":"2021-09-16T16:19:38.874Z","response":"1st","certainty":"high","char":"A","transposition":-2,"order":["shifted","swapped"],"probe_pitches":[0,5,2,10,5,7,5,2,7,5,-2,2,0,-2,2,-2],"shifted_pitches":[0,5,2,10,5,7,5,3,7,5,-2,2,0,-2,2,-2],"swapped_pitches":[0,5,2,10,5,7,5,7,2,5,-2,2,0,-2,2,-2],"shift_direction":1,"question_num":71,"has_decoy":false},{"rt":1068.5,"stimulus":"[A] option 1, [L] option 2, [G] neither","key_press":65,"name":"choice","trial_type":"html-keyboard-response","trial_index":98,"time_elapsed":214036,"internal_node_id":"0.0-98.0","subject":"S1C1617","sona":"41487","block":5,"time":"2021-09-16T16:19:38.874Z","response":"1st","certainty":"high","char":"A","transposition":-3,"order":["swapped","shifted"],"probe_pitches":[1,4,10,11,6,11,10,12,4,7,12,8,6,8,10,6],"shifted_pitches":[1,4,10,11,6,11,10,12,3,7,12,8,6,8,10,6],"swapped_pitches":[1,4,10,11,6,11,10,4,12,7,12,8,6,8,10,6],"shift_direction":-1,"question_num":81,"has_decoy":false},{"rt":1007,"stimulus":"[A] option 1, [L] option 2, [G] neither","key_press":76,"name":"choice","trial_type":"html-keyboard-response","trial_index":109,"time_elapsed":237371,"internal_node_id":"0.0-109.0","subject":"S1C1617","sona":"41487","block":5,"time":"2021-09-16T16:19:38.874Z","response":"2nd","certainty":"high","char":"L","transposition":0,"order":["swapped","shifted"],"probe_pitches":[10,5,2,5,-2,2,7,5,10,2,10,2,7,0,7,2],"shifted_pitches":[10,5,2,5,-2,2,7,5,9,2,10,2,7,0,7,2],"swapped_pitches":[10,5,2,5,-2,2,7,10,5,2,10,2,7,0,7,2],"shift_direction":-1,"question_num":91,"has_decoy":false},{"rt":2414.9000000059605,"stimulus":"[A] option 1, [L] option 2, [G] neither","key_press":76,"name":"choice","trial_type":"html-keyboard-response","trial_index":120,"time_elapsed":262091,"internal_node_id":"0.0-120.0","subject":"S1C1617","sona":"41487","block":5,"time":"2021-09-16T16:19:38.874Z","response":"2nd","certainty":"high","char":"L","transposition":3,"order":["swapped","shifted"],"probe_pitches":[4,7,4,5,11,9,8,12,5,7,2,12,13,8,3,13],"shifted_pitches":[4,7,4,5,11,9,8,12,6,7,2,12,13,8,3,13],"swapped_pitches":[4,7,4,5,11,9,8,5,12,7,2,12,13,8,3,13],"shift_direction":1,"question_num":101,"has_decoy":false},{"rt":1482.2000000029802,"stimulus":"[A] option 1, [L] option 2, [G] neither","key_press":71,"name":"choice","trial_type":"html-keyboard-response","trial_index":131,"time_elapsed":285915,"internal_node_id":"0.0-131.0","subject":"S1C1617","sona":"41487","block":5,"time":"2021-09-16T16:19:38.874Z","response":"neither","certainty":"high","char":"G","transposition":-2,"order":["shifted","swapped"],"probe_pitches":[-2,0,7,5,7,3,0,3,-2,7,5,3,10,0,10,3],"shifted_pitches":[-2,0,7,5,7,3,0,3,-1,7,5,3,10,0,10,3],"swapped_pitches":[-2,0,7,5,7,3,0,-2,3,7,5,3,10,0,10,3],"shift_direction":1,"question_num":111,"has_decoy":false},{"rt":909.5,"stimulus":"[A] option 1, [L] option 2, [G] neither","key_press":65,"name":"choice","trial_type":"html-keyboard-response","trial_index":142,"time_elapsed":309726,"internal_node_id":"0.0-142.0","subject":"S1C1617","sona":"41487","block":5,"time":"2021-09-16T16:19:38.874Z","response":"1st","certainty":"high","char":"A","transposition":-3,"order":["shifted","swapped"],"probe_pitches":[10,4,2,3,4,11,8,10,7,5,3,10,4,12,8,3],"shifted_pitches":[10,4,2,3,4,11,8,9,7,5,3,10,4,12,8,3],"swapped_pitches":[10,4,2,3,4,11,8,7,10,5,3,10,4,12,8,3],"shift_direction":-1,"question_num":121,"has_decoy":false},{"rt":721.5,"stimulus":"[A] option 1, [L] option 2, [G] neither","key_press":71,"name":"choice","trial_type":"html-keyboard-response","trial_index":153,"time_elapsed":333025,"internal_node_id":"0.0-153.0","subject":"S1C1617","sona":"41487","block":5,"time":"2021-09-16T16:19:38.874Z","response":"neither","certainty":"high","char":"G","transposition":-2,"order":["shifted","swapped"],"probe_pitches":[9,5,11,3,1,11,1,8,11,12,13,3,4,5,6,4],"shifted_pitches":[9,5,11,3,1,11,1,8,10,12,13,3,4,5,6,4],"swapped_pitches":[9,5,11,3,1,11,1,11,8,12,13,3,4,5,6,4],"shift_direction":-1,"question_num":131,"has_decoy":false},{"rt":1523.2999999970198,"stimulus":"[A] option 1, [L] option 2, [G] neither","key_press":65,"name":"choice","trial_type":"html-keyboard-response","trial_index":164,"time_elapsed":357128,"internal_node_id":"0.0-164.0","subject":"S1C1617","sona":"41487","block":5,"time":"2021-09-16T16:19:38.874Z","response":"1st","certainty":"high","char":"A","transposition":2,"order":["shifted","swapped"],"probe_pitches":[7,6,10,2,4,12,6,5,7,13,10,6,2,13,7,1],"shifted_pitches":[7,6,10,2,4,12,6,5,8,13,10,6,2,13,7,1],"swapped_pitches":[7,6,10,2,4,12,6,7,5,13,10,6,2,13,7,1],"shift_direction":1,"question_num":141,"has_decoy":false},{"rt":2209.3999999910593,"stimulus":"[A] option 1, [L] option 2, [G] neither","key_press":76,"name":"choice","trial_type":"html-keyboard-response","trial_index":175,"time_elapsed":381680,"internal_node_id":"0.0-175.0","subject":"S1C1617","sona":"41487","block":5,"time":"2021-09-16T16:19:38.874Z","response":"2nd","certainty":"high","char":"L","transposition":-2,"order":["swapped","shifted"],"probe_pitches":[5,2,6,12,8,9,6,3,7,10,5,2,10,8,10,5],"shifted_pitches":[5,2,6,12,8,9,6,4,7,10,5,2,10,8,10,5],"swapped_pitches":[5,2,6,12,8,9,6,7,3,10,5,2,10,8,10,5],"shift_direction":1,"question_num":151,"has_decoy":false},{"rt":982.9000000059605,"stimulus":"[A] option 1, [L] option 2, [G] neither","key_press":71,"name":"choice","trial_type":"html-keyboard-response","trial_index":186,"time_elapsed":405130,"internal_node_id":"0.0-186.0","subject":"S1C1617","sona":"41487","block":5,"time":"2021-09-16T16:19:38.874Z","response":"neither","certainty":"high","char":"G","transposition":-3,"order":["shifted","swapped"],"probe_pitches":[5,0,3,10,3,0,-2,7,3,5,10,0,10,-2,5,3],"shifted_pitches":[5,0,3,10,3,0,-2,7,2,5,10,0,10,-2,5,3],"swapped_pitches":[5,0,3,10,3,0,-2,3,7,5,10,0,10,-2,5,3],"shift_direction":-1,"question_num":161,"has_decoy":false},{"rt":1328.0999999940395,"stimulus":"[A] option 1, [L] option 2, [G] neither","key_press":76,"name":"choice","trial_type":"html-keyboard-response","trial_index":197,"time_elapsed":428931,"internal_node_id":"0.0-197.0","subject":"S1C1617","sona":"41487","block":5,"time":"2021-09-16T16:19:38.874Z","response":"2nd","certainty":"high","char":"L","transposition":3,"order":["swapped","shifted"],"probe_pitches":[1,-2,1,6,1,10,3,-2,1,8,3,10,1,-2,10,-2],"shifted_pitches":[1,-2,1,6,1,10,3,-3,1,8,3,10,1,-2,10,-2],"swapped_pitches":[1,-2,1,6,1,10,3,1,-2,8,3,10,1,-2,10,-2],"shift_direction":-1,"question_num":171,"has_decoy":false},{"rt":3113.7000000029802,"stimulus":"[A] option 1, [L] option 2, [G] neither","key_press":65,"name":"choice","trial_type":"html-keyboard-response","trial_index":208,"time_elapsed":455073,"internal_node_id":"0.0-208.0","subject":"S1C1617","sona":"41487","block":5,"time":"2021-09-16T16:19:38.874Z","response":"1st","certainty":"high","char":"A","transposition":1,"order":["shifted","swapped"],"probe_pitches":[5,1,8,2,11,5,9,4,11,1,6,5,2,7,9,5],"shifted_pitches":[5,1,8,2,11,5,9,4,12,1,6,5,2,7,9,5],"swapped_pitches":[5,1,8,2,11,5,9,11,4,1,6,5,2,7,9,5],"shift_direction":1,"question_num":181,"has_decoy":false},{"rt":1057.2000000029802,"stimulus":"[A] option 1, [L] option 2, [G] neither","key_press":76,"name":"choice","trial_type":"html-keyboard-response","trial_index":219,"time_elapsed":484888,"internal_node_id":"0.0-219.0","subject":"S1C1617","sona":"41487","block":5,"time":"2021-09-16T16:19:38.874Z","response":"2nd","certainty":"high","char":"L","transposition":0,"order":["swapped","shifted"],"probe_pitches":[3,8,1,4,13,3,13,6,1,2,10,3,8,5,1,8],"shifted_pitches":[3,8,1,4,13,3,13,7,1,2,10,3,8,5,1,8],"swapped_pitches":[3,8,1,4,13,3,13,1,6,2,10,3,8,5,1,8],"shift_direction":1,"question_num":191,"has_decoy":false}]