[{"rt":5827.29999999702,"stimulus":"[A] option 1, [L] option 2, [G] neither","key_press":65,"name":"choice","trial_type":"html-keyboard-response","trial_index":10,"time_elapsed":31863,"internal_node_id":"0.0-10.0","subject":"S1C1617","sona":"41487","block":3,"time":"2021-09-16T15:54:53.613Z","response":"1st","certainty":"high","char":"A","transposition":0,"order":["shifted","swapped"],"probe_pitches":[-2,1,-2,1,10,6,1,3,-2,6,3,10,6,1,8,-2],"shifted_pitches":[-2,1,-2,1,10,6,1,3,-1,6,3,10,6,1,8,-2],"swapped_pitches":[-2,1,-2,1,10,6,1,-2,3,6,3,10,6,1,8,-2],"shift_direction":1,"question_num":1,"has_decoy":false},{"rt":1585.2999999970198,"stimulus":"[A] option 1, [L] option 2, [G] neither","key_press":76,"name":"choice","trial_type":"html-keyboard-response","trial_index":21,"time_elapsed":55780,"internal_node_id":"0.0-21.0","subject":"S1C1617","sona":"41487","block":3,"time":"2021-09-16T15:54:53.613Z","response":"2nd","certainty":"high","char":"L","transposition":-1,"order":["shifted","swapped"],"probe_pitches":[10,5,-2,0,8,5,8,0,5,10,8,5,-2,8,3,8],"shifted_pitches":[10,5,-2,0,8,5,8,0,4,10,8,5,-2,8,3,8],"swapped_pitches":[10,5,-2,0,8,5,8,5,0,10,8,5,-2,8,3,8],"shift_direction":-1,"question_num":11,"has_decoy":false},{"rt":2292.7000000029802,"stimulus":"[A] option 1, [L] option 2, [G] neither","key_press":71,"name":"choice","trial_type":"html-keyboard-response","trial_index":32,"time_elapsed":80711,"internal_node_id":"0.0-32.0","subject":"S1C1617","sona":"41487","block":3,"time":"2021-09-16T15:54:53.613Z","response":"neither","certainty":"high","char":"G","transposition":-1,"order":["shifted","swapped"],"probe_pitches":[-1,1,8,6,9,8,4,3,6,1,2,-2,6,-2,-1,1],"shifted_pitches":[-1,1,8,6,9,8,4,3,7,1,2,-2,6,-2,-1,1],"swapped_pitches":[-1,1,8,6,9,8,4,6,3,1,2,-2,6,-2,-1,1],"shift_direction":1,"question_num":21,"has_decoy":false},{"rt":2367.699999988079,"stimulus":"[A] option 1, [L] option 2, [G] neither","key_press":76,"name":"choice","trial_type":"html-keyboard-response","trial_index":43,"time_elapsed":105975,"internal_node_id":"0.0-43.0","subject":"S1C1617","sona":"41487","block":3,"time":"2021-09-16T15:54:53.613Z","response":"2nd","certainty":"high","char":"L","transposition":1,"order":["swapped","shifted"],"probe_pitches":[5,2,4,0,2,8,7,4,2,-1,8,1,8,0,2,-2],"shifted_pitches":[5,2,4,0,2,8,7,3,2,-1,8,1,8,0,2,-2],"swapped_pitches":[5,2,4,0,2,8,7,2,4,-1,8,1,8,0,2,-2],"shift_direction":-1,"question_num":31,"has_decoy":false},{"rt":2287.8999999910593,"stimulus":"[A] option 1, [L] option 2, [G] neither","key_press":65,"name":"choice","trial_type":"html-keyboard-response","trial_index":54,"time_elapsed":130748,"internal_node_id":"0.0-54.0","subject":"S1C1617","sona":"41487","block":3,"time":"2021-09-16T15:54:53.613Z","response":"1st","certainty":"high","char":"A","transposition":2,"order":["swapped","shifted"],"probe_pitches":[8,3,6,3,10,3,8,6,3,8,1,8,1,-2,10,1],"shifted_pitches":[8,3,6,3,10,3,8,7,3,8,1,8,1,-2,10,1],"swapped_pitches":[8,3,6,3,10,3,8,3,6,8,1,8,1,-2,10,1],"shift_direction":1,"question_num":41,"has_decoy":false},{"rt":563.2000000029802,"stimulus":"[A] option 1, [L] option 2, [G] neither","key_press":76,"name":"choice","trial_type":"html-keyboard-response","trial_index":65,"time_elapsed":153887,"internal_node_id":"0.0-65.0","subject":"S1C1617","sona":"41487","block":3,"time":"2021-09-16T15:54:53.613Z","response":"2nd","certainty":"high","char":"L","transposition":-2,"order":["shifted","swapped"],"probe_pitches":[4,2,7,9,3,1,2,5,-1,4,1,4,9,7,1,3],"shifted_pitches":[4,2,7,9,3,1,2,5,0,4,1,4,9,7,1,3],"swapped_pitches":[4,2,7,9,3,1,2,-1,5,4,1,4,9,7,1,3],"shift_direction":1,"question_num":51,"has_decoy":false},{"rt":2628.7999999970198,"stimulus":"[A] option 1, [L] option 2, [G] neither","key_press":65,"name":"choice","trial_type":"html-keyboard-response","trial_index":76,"time_elapsed":179082,"internal_node_id":"0.0-76.0","subject":"S1C1617","sona":"41487","block":3,"time":"2021-09-16T15:54:53.613Z","response":"1st","certainty":"high","char":"A","transposition":-2,"order":["swapped","shifted"],"probe_pitches":[3,-1,2,0,-2,-1,2,3,-2,6,2,5,3,8,-2,-1],"shifted_pitches":[3,-1,2,0,-2,-1,2,4,-2,6,2,5,3,8,-2,-1],"swapped_pitches":[3,-1,2,0,-2,-1,2,-2,3,6,2,5,3,8,-2,-1],"shift_direction":1,"question_num":61,"has_decoy":false},{"rt":1084,"stimulus":"[A] option 1, [L] option 2, [G] neither","key_press":76,"name":"choice","trial_type":"html-keyboard-response","trial_index":87,"time_elapsed":203499,"internal_node_id":"0.0-87.0","subject":"S1C1617","sona":"41487","block":3,"time":"2021-09-16T15:54:53.613Z","response":"2nd","certainty":"high","char":"L","transposition":3,"order":["swapped","shifted"],"probe_pitches":[7,2,5,2,7,0,5,-2,2,10,-2,7,10,0,7,2],"shifted_pitches":[7,2,5,2,7,0,5,-2,1,10,-2,7,10,0,7,2],"swapped_pitches":[7,2,5,2,7,0,5,2,-2,10,-2,7,10,0,7,2],"shift_direction":-1,"question_num":71,"has_decoy":false},{"rt":823.5,"stimulus":"[A] option 1, [L] option 2, [G] neither","key_press":65,"name":"choice","trial_type":"html-keyboard-response","trial_index":98,"time_elapsed":226939,"internal_node_id":"0.0-98.0","subject":"S1C1617","sona":"41487","block":3,"time":"2021-09-16T15:54:53.613Z","response":"1st","certainty":"high","char":"A","transposition":2,"order":["swapped","shifted"],"probe_pitches":[9,7,5,-3,3,-3,3,-3,7,8,2,-2,-3,1,2,1],"shifted_pitches":[9,7,5,-3,3,-3,3,-3,6,8,2,-2,-3,1,2,1],"swapped_pitches":[9,7,5,-3,3,-3,3,7,-3,8,2,-2,-3,1,2,1],"shift_direction":-1,"question_num":81,"has_decoy":false},{"rt":774.5,"stimulus":"[A] option 1, [L] option 2, [G] neither","key_press":71,"name":"choice","trial_type":"html-keyboard-response","trial_index":109,"time_elapsed":250416,"internal_node_id":"0.0-109.0","subject":"S1C1617","sona":"41487","block":3,"time":"2021-09-16T15:54:53.613Z","response":"neither","certainty":"high","char":"G","transposition":-3,"order":["swapped","shifted"],"probe_pitches":[0,6,1,5,7,0,4,7,3,5,-2,0,4,8,9,3],"shifted_pitches":[0,6,1,5,7,0,4,7,2,5,-2,0,4,8,9,3],"swapped_pitches":[0,6,1,5,7,0,4,3,7,5,-2,0,4,8,9,3],"shift_direction":-1,"question_num":91,"has_decoy":false},{"rt":871.3999999910593,"stimulus":"[A] option 1, [L] option 2, [G] neither","key_press":76,"name":"choice","trial_type":"html-keyboard-response","trial_index":120,"time_elapsed":274422,"internal_node_id":"0.0-120.0","subject":"S1C1617","sona":"41487","block":3,"time":"2021-09-16T15:54:53.613Z","response":"2nd","certainty":"high","char":"L","transposition":3,"order":["shifted","swapped"],"probe_pitches":[5,4,7,9,4,7,1,9,0,6,0,9,-1,3,-3,-1],"shifted_pitches":[5,4,7,9,4,7,1,8,0,6,0,9,-1,3,-3,-1],"swapped_pitches":[5,4,7,9,4,7,1,0,9,6,0,9,-1,3,-3,-1],"shift_direction":-1,"question_num":101,"has_decoy":false},{"rt":1193.0999999940395,"stimulus":"[A] option 1, [L] option 2, [G] neither","key_press":76,"name":"choice","trial_type":"html-keyboard-response","trial_index":131,"time_elapsed":298060,"internal_node_id":"0.0-131.0","subject":"S1C1617","sona":"41487","block":3,"time":"2021-09-16T15:54:53.613Z","response":"2nd","certainty":"high","char":"L","transposition":-3,"order":["swapped","shifted"],"probe_pitches":[10,5,10,3,1,3,1,-2,5,10,3,1,3,8,1,3],"shifted_pitches":[10,5,10,3,1,3,1,-3,5,10,3,1,3,8,1,3],"swapped_pitches":[10,5,10,3,1,3,1,5,-2,10,3,1,3,8,1,3],"shift_direction":-1,"question_num":111,"has_decoy":false},{"rt":974.4000000059605,"stimulus":"[A] option 1, [L] option 2, [G] neither","key_press":65,"name":"choice","trial_type":"html-keyboard-response","trial_index":142,"time_elapsed":321681,"internal_node_id":"0.0-142.0","subject":"S1C1617","sona":"41487","block":3,"time":"2021-09-16T15:54:53.613Z","response":"1st","certainty":"high","char":"A","transposition":0,"order":["shifted","swapped"],"probe_pitches":[-3,-1,-3,4,6,0,-2,8,4,1,7,0,1,-1,9,2],"shifted_pitches":[-3,-1,-3,4,6,0,-2,8,5,1,7,0,1,-1,9,2],"swapped_pitches":[-3,-1,-3,4,6,0,-2,4,8,1,7,0,1,-1,9,2],"shift_direction":1,"question_num":121,"has_decoy":false},{"rt":522.7999999970198,"stimulus":"[A] option 1, [L] option 2, [G] neither","key_press":76,"name":"choice","trial_type":"html-keyboard-response","trial_index":153,"time_elapsed":344541,"internal_node_id":"0.0-153.0","subject":"S1C1617","sona":"41487","block":3,"time":"2021-09-16T15:54:53.613Z","response":"2nd","certainty":"high","char":"L","transposition":-2,"order":["shifted","swapped"],"probe_pitches":[10,8,5,0,5,-2,3,0,10,3,-2,0,3,5,10,0],"shifted_pitches":[10,8,5,0,5,-2,3,1,10,3,-2,0,3,5,10,0],"swapped_pitches":[10,8,5,0,5,-2,3,10,0,3,-2,0,3,5,10,0],"shift_direction":1,"question_num":131,"has_decoy":false},{"rt":1167.5999999940395,"stimulus":"[A] option 1, [L] option 2, [G] neither","key_press":71,"name":"choice","trial_type":"html-keyboard-response","trial_index":164,"time_elapsed":368236,"internal_node_id":"0.0-164.0","subject":"S1C1617","sona":"41487","block":3,"time":"2021-09-16T15:54:53.613Z","response":"neither","certainty":"high","char":"G","transposition":-3,"order":["shifted","swapped"],"probe_pitches":[7,6,7,3,5,7,-3,0,3,5,-3,2,4,0,3,-3],"shifted_pitches":[7,6,7,3,5,7,-3,1,3,5,-3,2,4,0,3,-3],"swapped_pitches":[7,6,7,3,5,7,-3,3,0,5,-3,2,4,0,3,-3],"shift_direction":1,"question_num":141,"has_decoy":false},{"rt":405.40000000596046,"stimulus":"[A] option 1, [L] option 2, [G] neither","key_press":76,"name":"choice","trial_type":"html-keyboard-response","trial_index":175,"time_elapsed":391175,"internal_node_id":"0.0-175.0","subject":"S1C1617","sona":"41487","block":3,"time":"2021-09-16T15:54:53.613Z","response":"2nd","certainty":"high","char":"L","transposition":-1,"order":["swapped","shifted"],"probe_pitches":[5,0,3,5,0,5,0,5,3,10,0,7,3,7,10,5],"shifted_pitches":[5,0,3,5,0,5,0,4,3,10,0,7,3,7,10,5],"swapped_pitches":[5,0,3,5,0,5,0,3,5,10,0,7,3,7,10,5],"shift_direction":-1,"question_num":151,"has_decoy":false},{"rt":694.5999999940395,"stimulus":"[A] option 1, [L] option 2, [G] neither","key_press":65,"name":"choice","trial_type":"html-keyboard-response","trial_index":186,"time_elapsed":414354,"internal_node_id":"0.0-186.0","subject":"S1C1617","sona":"41487","block":3,"time":"2021-09-16T15:54:53.613Z","response":"1st","certainty":"high","char":"A","transposition":-2,"order":["shifted","swapped"],"probe_pitches":[0,5,-2,0,5,0,5,7,-2,2,-2,10,5,0,-2,5],"shifted_pitches":[0,5,-2,0,5,0,5,8,-2,2,-2,10,5,0,-2,5],"swapped_pitches":[0,5,-2,0,5,0,5,-2,7,2,-2,10,5,0,-2,5],"shift_direction":1,"question_num":161,"has_decoy":false},{"rt":3564.2999999970198,"stimulus":"[A] option 1, [L] option 2, [G] neither","key_press":71,"name":"choice","trial_type":"html-keyboard-response","trial_index":197,"time_elapsed":440429,"internal_node_id":"0.0-197.0","subject":"S1C1617","sona":"41487","block":3,"time":"2021-09-16T15:54:53.613Z","response":"neither","certainty":"high","char":"G","transposition":-1,"order":["swapped","shifted"],"probe_pitches":[1,7,2,-2,2,8,2,0,-3,8,-2,5,6,7,-2,2],"shifted_pitches":[1,7,2,-2,2,8,2,-1,-3,8,-2,5,6,7,-2,2],"swapped_pitches":[1,7,2,-2,2,8,2,-3,0,8,-2,5,6,7,-2,2],"shift_direction":-1,"question_num":171,"has_decoy":false},{"rt":841.2999999970198,"stimulus":"[A] option 1, [L] option 2, [G] neither","key_press":65,"name":"choice","trial_type":"html-keyboard-response","trial_index":208,"time_elapsed":463929,"internal_node_id":"0.0-208.0","subject":"S1C1617","sona":"41487","block":3,"time":"2021-09-16T15:54:53.613Z","response":"1st","certainty":"high","char":"A","transposition":1,"order":["shifted","swapped"],"probe_pitches":[-2,0,3,0,3,7,5,0,7,5,0,10,7,-2,5,3],"shifted_pitches":[-2,0,3,0,3,7,5,0,6,5,0,10,7,-2,5,3],"swapped_pitches":[-2,0,3,0,3,7,5,7,0,5,0,10,7,-2,5,3],"shift_direction":-1,"question_num":181,"has_decoy":false},{"rt":984.2000000029802,"stimulus":"[A] option 1, [L] option 2, [G] neither","key_press":76,"name":"choice","trial_type":"html-keyboard-response","trial_index":219,"time_elapsed":487554,"internal_node_id":"0.0-219.0","subject":"S1C1617","sona":"41487","block":3,"time":"2021-09-16T15:54:53.613Z","response":"2nd","certainty":"high","char":"L","transposition":-3,"order":["swapped","shifted"],"probe_pitches":[5,1,-2,3,-2,8,1,-2,5,10,1,5,8,10,5,10],"shifted_pitches":[5,1,-2,3,-2,8,1,-2,6,10,1,5,8,10,5,10],"swapped_pitches":[5,1,-2,3,-2,8,1,5,-2,10,1,5,8,10,5,10],"shift_direction":1,"question_num":191,"has_decoy":false}]