[{"rt":2573.6000000089407,"stimulus":"[A] option 1, [L] option 2, [G] neither","key_press":76,"name":"choice","trial_type":"html-keyboard-response","trial_index":10,"time_elapsed":29061,"internal_node_id":"0.0-10.0","subject":"S1C1617","sona":"41487","block":2,"time":"2021-09-16T15:46:40.896Z","response":"2nd","certainty":"high","char":"L","transposition":-2,"order":["shifted","swapped"],"probe_pitches":[8,6,1,8,10,3,8,13,10,8,1,3,8,1,10,3],"shifted_pitches":[8,6,1,8,10,3,8,13,11,8,1,3,8,1,10,3],"swapped_pitches":[8,6,1,8,10,3,8,10,13,8,1,3,8,1,10,3],"shift_direction":1,"question_num":1,"has_decoy":false},{"rt":1153.8999999910593,"stimulus":"[A] option 1, [L] option 2, [G] neither","key_press":65,"name":"choice","trial_type":"html-keyboard-response","trial_index":21,"time_elapsed":52596,"internal_node_id":"0.0-21.0","subject":"S1C1617","sona":"41487","block":2,"time":"2021-09-16T15:46:40.896Z","response":"1st","certainty":"high","char":"A","transposition":1,"order":["swapped","shifted"],"probe_pitches":[9,4,11,6,2,12,1,8,11,0,12,2,4,12,1,5],"shifted_pitches":[9,4,11,6,2,12,1,8,10,0,12,2,4,12,1,5],"swapped_pitches":[9,4,11,6,2,12,1,11,8,0,12,2,4,12,1,5],"shift_direction":-1,"question_num":11,"has_decoy":false},{"rt":923.7999999970198,"stimulus":"[A] option 1, [L] option 2, [G] neither","key_press":76,"name":"choice","trial_type":"html-keyboard-response","trial_index":32,"time_elapsed":75704,"internal_node_id":"0.0-32.0","subject":"S1C1617","sona":"41487","block":2,"time":"2021-09-16T15:46:40.896Z","response":"2nd","certainty":"high","char":"L","transposition":3,"order":["shifted","swapped"],"probe_pitches":[3,4,5,10,4,3,10,12,5,10,7,5,4,2,0,3],"shifted_pitches":[3,4,5,10,4,3,10,12,6,10,7,5,4,2,0,3],"swapped_pitches":[3,4,5,10,4,3,10,5,12,10,7,5,4,2,0,3],"shift_direction":1,"question_num":21,"has_decoy":false},{"rt":975.2000000029802,"stimulus":"[A] option 1, [L] option 2, [G] neither","key_press":65,"name":"choice","trial_type":"html-keyboard-response","trial_index":43,"time_elapsed":99109,"internal_node_id":"0.0-43.0","subject":"S1C1617","sona":"41487","block":2,"time":"2021-09-16T15:46:40.896Z","response":"1st","certainty":"high","char":"A","transposition":2,"order":["shifted","swapped"],"probe_pitches":[1,3,10,3,8,1,5,10,8,1,13,5,3,8,10,13],"shifted_pitches":[1,3,10,3,8,1,5,10,7,1,13,5,3,8,10,13],"swapped_pitches":[1,3,10,3,8,1,5,8,10,1,13,5,3,8,10,13],"shift_direction":-1,"question_num":31,"has_decoy":false},{"rt":1073.300000011921,"stimulus":"[A] option 1, [L] option 2, [G] neither","key_press":76,"name":"choice","trial_type":"html-keyboard-response","trial_index":54,"time_elapsed":122375,"internal_node_id":"0.0-54.0","subject":"S1C1617","sona":"41487","block":2,"time":"2021-09-16T15:46:40.896Z","response":"2nd","certainty":"high","char":"L","transposition":-3,"order":["swapped","shifted"],"probe_pitches":[1,6,8,11,3,1,3,6,1,13,8,1,6,11,6,13],"shifted_pitches":[1,6,8,11,3,1,3,6,2,13,8,1,6,11,6,13],"swapped_pitches":[1,6,8,11,3,1,3,1,6,13,8,1,6,11,6,13],"shift_direction":1,"question_num":41,"has_decoy":false},{"rt":863.0999999940395,"stimulus":"[A] option 1, [L] option 2, [G] neither","key_press":65,"name":"choice","trial_type":"html-keyboard-response","trial_index":65,"time_elapsed":148081,"internal_node_id":"0.0-65.0","subject":"S1C1617","sona":"41487","block":2,"time":"2021-09-16T15:46:40.896Z","response":"1st","certainty":"high","char":"A","transposition":-3,"order":["swapped","shifted"],"probe_pitches":[3,0,6,2,6,12,6,10,3,4,7,8,2,10,11,2],"shifted_pitches":[3,0,6,2,6,12,6,9,3,4,7,8,2,10,11,2],"swapped_pitches":[3,0,6,2,6,12,6,3,10,4,7,8,2,10,11,2],"shift_direction":-1,"question_num":51,"has_decoy":false},{"rt":1286.4000000059605,"stimulus":"[A] option 1, [L] option 2, [G] neither","key_press":76,"name":"choice","trial_type":"html-keyboard-response","trial_index":76,"time_elapsed":171878,"internal_node_id":"0.0-76.0","subject":"S1C1617","sona":"41487","block":2,"time":"2021-09-16T15:46:40.896Z","response":"2nd","certainty":"high","char":"L","transposition":-2,"order":["swapped","shifted"],"probe_pitches":[1,7,11,8,11,12,1,3,6,12,11,4,2,3,12,2],"shifted_pitches":[1,7,11,8,11,12,1,3,5,12,11,4,2,3,12,2],"swapped_pitches":[1,7,11,8,11,12,1,6,3,12,11,4,2,3,12,2],"shift_direction":-1,"question_num":61,"has_decoy":false},{"rt":1187.9000000059605,"stimulus":"[A] option 1, [L] option 2, [G] neither","key_press":65,"name":"choice","trial_type":"html-keyboard-response","trial_index":87,"time_elapsed":195383,"internal_node_id":"0.0-87.0","subject":"S1C1617","sona":"41487","block":2,"time":"2021-09-16T15:46:40.896Z","response":"1st","certainty":"high","char":"A","transposition":-1,"order":["shifted","swapped"],"probe_pitches":[10,11,6,1,10,7,12,9,10,11,9,6,9,3,5,7],"shifted_pitches":[10,11,6,1,10,7,12,8,10,11,9,6,9,3,5,7],"swapped_pitches":[10,11,6,1,10,7,12,10,9,11,9,6,9,3,5,7],"shift_direction":-1,"question_num":71,"has_decoy":false},{"rt":827.7000000029802,"stimulus":"[A] option 1, [L] option 2, [G] neither","key_press":76,"name":"choice","trial_type":"html-keyboard-response","trial_index":98,"time_elapsed":219584,"internal_node_id":"0.0-98.0","subject":"S1C1617","sona":"41487","block":2,"time":"2021-09-16T15:46:40.896Z","response":"2nd","certainty":"high","char":"L","transposition":-3,"order":["swapped","shifted"],"probe_pitches":[6,9,4,1,6,11,1,9,4,1,6,9,13,1,9,6],"shifted_pitches":[6,9,4,1,6,11,1,9,5,1,6,9,13,1,9,6],"swapped_pitches":[6,9,4,1,6,11,1,4,9,1,6,9,13,1,9,6],"shift_direction":1,"question_num":81,"has_decoy":false},{"rt":1299,"stimulus":"[A] option 1, [L] option 2, [G] neither","key_press":65,"name":"choice","trial_type":"html-keyboard-response","trial_index":109,"time_elapsed":243511,"internal_node_id":"0.0-109.0","subject":"S1C1617","sona":"41487","block":2,"time":"2021-09-16T15:46:40.896Z","response":"1st","certainty":"high","char":"A","transposition":3,"order":["swapped","shifted"],"probe_pitches":[6,4,11,4,1,11,1,11,9,4,13,9,6,13,11,6],"shifted_pitches":[6,4,11,4,1,11,1,10,9,4,13,9,6,13,11,6],"swapped_pitches":[6,4,11,4,1,11,1,9,11,4,13,9,6,13,11,6],"shift_direction":-1,"question_num":91,"has_decoy":false},{"rt":1954.3999999910593,"stimulus":"[A] option 1, [L] option 2, [G] neither","key_press":65,"name":"choice","trial_type":"html-keyboard-response","trial_index":120,"time_elapsed":267878,"internal_node_id":"0.0-120.0","subject":"S1C1617","sona":"41487","block":2,"time":"2021-09-16T15:46:40.896Z","response":"1st","certainty":"high","char":"A","transposition":-1,"order":["shifted","swapped"],"probe_pitches":[11,6,11,3,8,11,8,3,6,1,6,3,6,1,8,1],"shifted_pitches":[11,6,11,3,8,11,8,2,6,1,6,3,6,1,8,1],"swapped_pitches":[11,6,11,3,8,11,8,6,3,1,6,3,6,1,8,1],"shift_direction":-1,"question_num":101,"has_decoy":false},{"rt":2486.2000000029802,"stimulus":"[A] option 1, [L] option 2, [G] neither","key_press":76,"name":"choice","trial_type":"html-keyboard-response","trial_index":131,"time_elapsed":292681,"internal_node_id":"0.0-131.0","subject":"S1C1617","sona":"41487","block":2,"time":"2021-09-16T15:46:40.896Z","response":"2nd","certainty":"high","char":"L","transposition":2,"order":["shifted","swapped"],"probe_pitches":[10,12,10,11,10,9,5,6,8,9,10,4,8,9,5,0],"shifted_pitches":[10,12,10,11,10,9,5,7,8,9,10,4,8,9,5,0],"swapped_pitches":[10,12,10,11,10,9,5,8,6,9,10,4,8,9,5,0],"shift_direction":1,"question_num":111,"has_decoy":false},{"rt":2953,"stimulus":"[A] option 1, [L] option 2, [G] neither","key_press":65,"name":"choice","trial_type":"html-keyboard-response","trial_index":142,"time_elapsed":318102,"internal_node_id":"0.0-142.0","subject":"S1C1617","sona":"41487","block":2,"time":"2021-09-16T15:46:40.896Z","response":"1st","certainty":"high","char":"A","transposition":-2,"order":["swapped","shifted"],"probe_pitches":[10,6,0,3,5,3,1,11,3,5,0,6,7,12,3,8],"shifted_pitches":[10,6,0,3,5,3,1,11,4,5,0,6,7,12,3,8],"swapped_pitches":[10,6,0,3,5,3,1,3,11,5,0,6,7,12,3,8],"shift_direction":1,"question_num":121,"has_decoy":false},{"rt":2236.5999999940395,"stimulus":"[A] option 1, [L] option 2, [G] neither","key_press":71,"name":"choice","trial_type":"html-keyboard-response","trial_index":153,"time_elapsed":342745,"internal_node_id":"0.0-153.0","subject":"S1C1617","sona":"41487","block":2,"time":"2021-09-16T15:46:40.896Z","response":"neither","certainty":"high","char":"G","transposition":0,"order":["shifted","swapped"],"probe_pitches":[8,13,10,3,1,5,13,10,5,8,3,13,8,1,13,5],"shifted_pitches":[8,13,10,3,1,5,13,9,5,8,3,13,8,1,13,5],"swapped_pitches":[8,13,10,3,1,5,13,5,10,8,3,13,8,1,13,5],"shift_direction":-1,"question_num":131,"has_decoy":false},{"rt":1314.2000000029802,"stimulus":"[A] option 1, [L] option 2, [G] neither","key_press":65,"name":"choice","trial_type":"html-keyboard-response","trial_index":164,"time_elapsed":366947,"internal_node_id":"0.0-164.0","subject":"S1C1617","sona":"41487","block":2,"time":"2021-09-16T15:46:40.896Z","response":"1st","certainty":"high","char":"A","transposition":-1,"order":["shifted","swapped"],"probe_pitches":[9,7,5,8,2,7,6,0,7,9,4,1,0,10,6,7],"shifted_pitches":[9,7,5,8,2,7,6,-1,7,9,4,1,0,10,6,7],"swapped_pitches":[9,7,5,8,2,7,6,7,0,9,4,1,0,10,6,7],"shift_direction":-1,"question_num":141,"has_decoy":false},{"rt":1013.2999999970198,"stimulus":"[A] option 1, [L] option 2, [G] neither","key_press":76,"name":"choice","trial_type":"html-keyboard-response","trial_index":175,"time_elapsed":390635,"internal_node_id":"0.0-175.0","subject":"S1C1617","sona":"41487","block":2,"time":"2021-09-16T15:46:40.896Z","response":"2nd","certainty":"high","char":"L","transposition":-3,"order":["swapped","shifted"],"probe_pitches":[12,6,11,8,5,12,11,4,1,5,6,1,6,4,0,10],"shifted_pitches":[12,6,11,8,5,12,11,4,2,5,6,1,6,4,0,10],"swapped_pitches":[12,6,11,8,5,12,11,1,4,5,6,1,6,4,0,10],"shift_direction":1,"question_num":151,"has_decoy":false},{"rt":1180.5999999940395,"stimulus":"[A] option 1, [L] option 2, [G] neither","key_press":65,"name":"choice","trial_type":"html-keyboard-response","trial_index":186,"time_elapsed":414237,"internal_node_id":"0.0-186.0","subject":"S1C1617","sona":"41487","block":2,"time":"2021-09-16T15:46:40.896Z","response":"1st","certainty":"high","char":"A","transposition":-2,"order":["swapped","shifted"],"probe_pitches":[8,3,6,13,10,6,13,10,1,8,1,6,3,6,13,1],"shifted_pitches":[8,3,6,13,10,6,13,10,2,8,1,6,3,6,13,1],"swapped_pitches":[8,3,6,13,10,6,13,1,10,8,1,6,3,6,13,1],"shift_direction":1,"question_num":161,"has_decoy":false},{"rt":983.2999999970198,"stimulus":"[A] option 1, [L] option 2, [G] neither","key_press":65,"name":"choice","trial_type":"html-keyboard-response","trial_index":197,"time_elapsed":437687,"internal_node_id":"0.0-197.0","subject":"S1C1617","sona":"41487","block":2,"time":"2021-09-16T15:46:40.896Z","response":"1st","certainty":"high","char":"A","transposition":-1,"order":["shifted","swapped"],"probe_pitches":[1,6,13,11,13,4,13,6,1,8,1,13,6,1,6,4],"shifted_pitches":[1,6,13,11,13,4,13,7,1,8,1,13,6,1,6,4],"swapped_pitches":[1,6,13,11,13,4,13,1,6,8,1,13,6,1,6,4],"shift_direction":1,"question_num":171,"has_decoy":false},{"rt":981.2999999970198,"stimulus":"[A] option 1, [L] option 2, [G] neither","key_press":76,"name":"choice","trial_type":"html-keyboard-response","trial_index":208,"time_elapsed":461130,"internal_node_id":"0.0-208.0","subject":"S1C1617","sona":"41487","block":2,"time":"2021-09-16T15:46:40.896Z","response":"2nd","certainty":"high","char":"L","transposition":0,"order":["shifted","swapped"],"probe_pitches":[9,12,5,7,4,8,0,2,4,7,4,0,4,6,11,4],"shifted_pitches":[9,12,5,7,4,8,0,3,4,7,4,0,4,6,11,4],"swapped_pitches":[9,12,5,7,4,8,0,4,2,7,4,0,4,6,11,4],"shift_direction":1,"question_num":181,"has_decoy":false},{"rt":647.2999999970198,"stimulus":"[A] option 1, [L] option 2, [G] neither","key_press":65,"name":"choice","trial_type":"html-keyboard-response","trial_index":219,"time_elapsed":484774,"internal_node_id":"0.0-219.0","subject":"S1C1617","sona":"41487","block":2,"time":"2021-09-16T15:46:40.896Z","response":"1st","certainty":"high","char":"A","transposition":1,"order":["swapped","shifted"],"probe_pitches":[6,8,13,6,13,11,6,8,11,13,8,4,11,4,8,1],"shifted_pitches":[6,8,13,6,13,11,6,7,11,13,8,4,11,4,8,1],"swapped_pitches":[6,8,13,6,13,11,6,11,8,13,8,4,11,4,8,1],"shift_direction":-1,"question_num":191,"has_decoy":false}]