[{"rt":345.6000000089407,"stimulus":"[A] option 1, [L] option 2, [G] neither","key_press":65,"name":"choice","trial_type":"html-keyboard-response","trial_index":10,"time_elapsed":26454,"internal_node_id":"0.0-10.0","subject":"S1C1617","sona":"41487","block":4,"time":"2021-09-16T16:11:27.928Z","response":"1st","certainty":"high","char":"A","transposition":-2,"order":["shifted","swapped"],"probe_pitches":[8,6,1,6,8,3,11,8,6,11,8,-1,1,6,-1,1],"shifted_pitches":[8,6,1,6,8,3,11,8,5,11,8,-1,1,6,-1,1],"swapped_pitches":[8,6,1,6,8,3,11,6,8,11,8,-1,1,6,-1,1],"shift_direction":-1,"question_num":1,"has_decoy":false},{"rt":603.5999999940395,"stimulus":"[A] option 1, [L] option 2, [G] neither","key_press":76,"name":"choice","trial_type":"html-keyboard-response","trial_index":21,"time_elapsed":49394,"internal_node_id":"0.0-21.0","subject":"S1C1617","sona":"41487","block":4,"time":"2021-09-16T16:11:27.928Z","response":"2nd","certainty":"high","char":"L","transposition":-2,"order":["swapped","shifted"],"probe_pitches":[4,-1,6,11,6,4,9,2,4,6,4,11,9,2,-1,2],"shifted_pitches":[4,-1,6,11,6,4,9,3,4,6,4,11,9,2,-1,2],"swapped_pitches":[4,-1,6,11,6,4,9,4,2,6,4,11,9,2,-1,2],"shift_direction":1,"question_num":11,"has_decoy":false},{"rt":866,"stimulus":"[A] option 1, [L] option 2, [G] neither","key_press":65,"name":"choice","trial_type":"html-keyboard-response","trial_index":32,"time_elapsed":72648,"internal_node_id":"0.0-32.0","subject":"S1C1617","sona":"41487","block":4,"time":"2021-09-16T16:11:27.928Z","response":"1st","certainty":"high","char":"A","transposition":-3,"order":["shifted","swapped"],"probe_pitches":[8,4,11,4,11,8,1,-1,11,4,-1,4,-1,4,11,6],"shifted_pitches":[8,4,11,4,11,8,1,0,11,4,-1,4,-1,4,11,6],"swapped_pitches":[8,4,11,4,11,8,1,11,-1,4,-1,4,-1,4,11,6],"shift_direction":1,"question_num":21,"has_decoy":false},{"rt":1039,"stimulus":"[A] option 1, [L] option 2, [G] neither","key_press":76,"name":"choice","trial_type":"html-keyboard-response","trial_index":43,"time_elapsed":96474,"internal_node_id":"0.0-43.0","subject":"S1C1617","sona":"41487","block":4,"time":"2021-09-16T16:11:27.928Z","response":"2nd","certainty":"high","char":"L","transposition":2,"order":["swapped","shifted"],"probe_pitches":[6,1,5,8,4,8,3,0,6,1,-2,4,0,10,0,10],"shifted_pitches":[6,1,5,8,4,8,3,0,7,1,-2,4,0,10,0,10],"swapped_pitches":[6,1,5,8,4,8,3,6,0,1,-2,4,0,10,0,10],"shift_direction":1,"question_num":31,"has_decoy":false},{"rt":1261.4000000059605,"stimulus":"[A] option 1, [L] option 2, [G] neither","key_press":76,"name":"choice","trial_type":"html-keyboard-response","trial_index":54,"time_elapsed":120499,"internal_node_id":"0.0-54.0","subject":"S1C1617","sona":"41487","block":4,"time":"2021-09-16T16:11:27.928Z","response":"2nd","certainty":"high","char":"L","transposition":-1,"order":["shifted","swapped"],"probe_pitches":[1,4,-1,6,1,4,1,4,9,-1,4,9,-1,4,6,4],"shifted_pitches":[1,4,-1,6,1,4,1,3,9,-1,4,9,-1,4,6,4],"swapped_pitches":[1,4,-1,6,1,4,1,9,4,-1,4,9,-1,4,6,4],"shift_direction":-1,"question_num":41,"has_decoy":false},{"rt":1651.7999999970198,"stimulus":"[A] option 1, [L] option 2, [G] neither","key_press":71,"name":"choice","trial_type":"html-keyboard-response","trial_index":65,"time_elapsed":145562,"internal_node_id":"0.0-65.0","subject":"S1C1617","sona":"41487","block":4,"time":"2021-09-16T16:11:27.928Z","response":"neither","certainty":"high","char":"G","transposition":-3,"order":["swapped","shifted"],"probe_pitches":[9,6,9,4,-1,9,11,1,9,11,4,-1,9,-1,4,11],"shifted_pitches":[9,6,9,4,-1,9,11,1,8,11,4,-1,9,-1,4,11],"swapped_pitches":[9,6,9,4,-1,9,11,9,1,11,4,-1,9,-1,4,11],"shift_direction":-1,"question_num":51,"has_decoy":false},{"rt":1171.4000000059605,"stimulus":"[A] option 1, [L] option 2, [G] neither","key_press":65,"name":"choice","trial_type":"html-keyboard-response","trial_index":76,"time_elapsed":169487,"internal_node_id":"0.0-76.0","subject":"S1C1617","sona":"41487","block":4,"time":"2021-09-16T16:11:27.928Z","response":"1st","certainty":"high","char":"A","transposition":0,"order":["shifted","swapped"],"probe_pitches":[1,6,3,-1,8,1,-1,1,3,11,8,6,1,-1,6,3],"shifted_pitches":[1,6,3,-1,8,1,-1,1,4,11,8,6,1,-1,6,3],"swapped_pitches":[1,6,3,-1,8,1,-1,3,1,11,8,6,1,-1,6,3],"shift_direction":1,"question_num":61,"has_decoy":false},{"rt":2078.4000000059605,"stimulus":"[A] option 1, [L] option 2, [G] neither","key_press":76,"name":"choice","trial_type":"html-keyboard-response","trial_index":87,"time_elapsed":193951,"internal_node_id":"0.0-87.0","subject":"S1C1617","sona":"41487","block":4,"time":"2021-09-16T16:11:27.928Z","response":"2nd","certainty":"high","char":"L","transposition":-3,"order":["swapped","shifted"],"probe_pitches":[9,5,7,9,5,3,7,9,3,5,2,6,10,7,9,-2],"shifted_pitches":[9,5,7,9,5,3,7,8,3,5,2,6,10,7,9,-2],"swapped_pitches":[9,5,7,9,5,3,7,3,9,5,2,6,10,7,9,-2],"shift_direction":-1,"question_num":71,"has_decoy":false},{"rt":2383.4000000059605,"stimulus":"[A] option 1, [L] option 2, [G] neither","key_press":65,"name":"choice","trial_type":"html-keyboard-response","trial_index":98,"time_elapsed":218762,"internal_node_id":"0.0-98.0","subject":"S1C1617","sona":"41487","block":4,"time":"2021-09-16T16:11:27.928Z","response":"1st","certainty":"high","char":"A","transposition":1,"order":["swapped","shifted"],"probe_pitches":[6,3,2,0,-2,-1,7,0,6,-2,7,3,7,-1,10,3],"shifted_pitches":[6,3,2,0,-2,-1,7,1,6,-2,7,3,7,-1,10,3],"swapped_pitches":[6,3,2,0,-2,-1,7,6,0,-2,7,3,7,-1,10,3],"shift_direction":1,"question_num":81,"has_decoy":false},{"rt":1178.5,"stimulus":"[A] option 1, [L] option 2, [G] neither","key_press":71,"name":"choice","trial_type":"html-keyboard-response","trial_index":109,"time_elapsed":242372,"internal_node_id":"0.0-109.0","subject":"S1C1617","sona":"41487","block":4,"time":"2021-09-16T16:11:27.928Z","response":"neither","certainty":"high","char":"G","transposition":3,"order":["shifted","swapped"],"probe_pitches":[7,9,3,-1,5,7,10,5,0,10,8,9,10,1,8,-2],"shifted_pitches":[7,9,3,-1,5,7,10,4,0,10,8,9,10,1,8,-2],"swapped_pitches":[7,9,3,-1,5,7,10,0,5,10,8,9,10,1,8,-2],"shift_direction":-1,"question_num":91,"has_decoy":false},{"rt":1873.9000000059605,"stimulus":"[A] option 1, [L] option 2, [G] neither","key_press":76,"name":"choice","trial_type":"html-keyboard-response","trial_index":120,"time_elapsed":266582,"internal_node_id":"0.0-120.0","subject":"S1C1617","sona":"41487","block":4,"time":"2021-09-16T16:11:27.928Z","response":"2nd","certainty":"high","char":"L","transposition":-1,"order":["shifted","swapped"],"probe_pitches":[8,6,-1,4,9,6,9,6,1,8,4,1,6,0,2,8],"shifted_pitches":[8,6,-1,4,9,6,9,5,1,8,4,1,6,0,2,8],"swapped_pitches":[8,6,-1,4,9,6,9,1,6,8,4,1,6,0,2,8],"shift_direction":-1,"question_num":101,"has_decoy":false},{"rt":1187.7000000029802,"stimulus":"[A] option 1, [L] option 2, [G] neither","key_press":65,"name":"choice","trial_type":"html-keyboard-response","trial_index":131,"time_elapsed":289788,"internal_node_id":"0.0-131.0","subject":"S1C1617","sona":"41487","block":4,"time":"2021-09-16T16:11:27.928Z","response":"1st","certainty":"high","char":"A","transposition":-2,"order":["shifted","swapped"],"probe_pitches":[2,5,6,9,10,6,5,8,4,5,7,-1,-2,1,9,8],"shifted_pitches":[2,5,6,9,10,6,5,8,3,5,7,-1,-2,1,9,8],"swapped_pitches":[2,5,6,9,10,6,5,4,8,5,7,-1,-2,1,9,8],"shift_direction":-1,"question_num":111,"has_decoy":false},{"rt":1353.7999999970198,"stimulus":"[A] option 1, [L] option 2, [G] neither","key_press":65,"name":"choice","trial_type":"html-keyboard-response","trial_index":142,"time_elapsed":313463,"internal_node_id":"0.0-142.0","subject":"S1C1617","sona":"41487","block":4,"time":"2021-09-16T16:11:27.928Z","response":"1st","certainty":"high","char":"A","transposition":-1,"order":["shifted","swapped"],"probe_pitches":[2,-2,-1,-2,5,7,5,-1,-2,3,8,6,-1,-2,3,8],"shifted_pitches":[2,-2,-1,-2,5,7,5,0,-2,3,8,6,-1,-2,3,8],"swapped_pitches":[2,-2,-1,-2,5,7,5,-2,-1,3,8,6,-1,-2,3,8],"shift_direction":1,"question_num":121,"has_decoy":false},{"rt":1271.5,"stimulus":"[A] option 1, [L] option 2, [G] neither","key_press":76,"name":"choice","trial_type":"html-keyboard-response","trial_index":153,"time_elapsed":337679,"internal_node_id":"0.0-153.0","subject":"S1C1617","sona":"41487","block":4,"time":"2021-09-16T16:11:27.928Z","response":"2nd","certainty":"high","char":"L","transposition":-1,"order":["swapped","shifted"],"probe_pitches":[7,9,4,2,11,9,7,2,11,-1,11,4,9,4,11,2],"shifted_pitches":[7,9,4,2,11,9,7,3,11,-1,11,4,9,4,11,2],"swapped_pitches":[7,9,4,2,11,9,7,11,2,-1,11,4,9,4,11,2],"shift_direction":1,"question_num":131,"has_decoy":false},{"rt":1635.4000000059605,"stimulus":"[A] option 1, [L] option 2, [G] neither","key_press":76,"name":"choice","trial_type":"html-keyboard-response","trial_index":164,"time_elapsed":361781,"internal_node_id":"0.0-164.0","subject":"S1C1617","sona":"41487","block":4,"time":"2021-09-16T16:11:27.928Z","response":"2nd","certainty":"high","char":"L","transposition":0,"order":["shifted","swapped"],"probe_pitches":[10,7,2,-2,1,-2,3,2,10,4,8,1,-1,10,-2,4],"shifted_pitches":[10,7,2,-2,1,-2,3,2,9,4,8,1,-1,10,-2,4],"swapped_pitches":[10,7,2,-2,1,-2,3,10,2,4,8,1,-1,10,-2,4],"shift_direction":-1,"question_num":141,"has_decoy":false},{"rt":609.7000000029802,"stimulus":"[A] option 1, [L] option 2, [G] neither","key_press":65,"name":"choice","trial_type":"html-keyboard-response","trial_index":175,"time_elapsed":384718,"internal_node_id":"0.0-175.0","subject":"S1C1617","sona":"41487","block":4,"time":"2021-09-16T16:11:27.928Z","response":"1st","certainty":"high","char":"A","transposition":-2,"order":["swapped","shifted"],"probe_pitches":[9,6,1,7,1,6,4,5,1,3,5,6,9,4,1,3],"shifted_pitches":[9,6,1,7,1,6,4,5,2,3,5,6,9,4,1,3],"swapped_pitches":[9,6,1,7,1,6,4,1,5,3,5,6,9,4,1,3],"shift_direction":1,"question_num":151,"has_decoy":false},{"rt":1423.7999999970198,"stimulus":"[A] option 1, [L] option 2, [G] neither","key_press":76,"name":"choice","trial_type":"html-keyboard-response","trial_index":186,"time_elapsed":409041,"internal_node_id":"0.0-186.0","subject":"S1C1617","sona":"41487","block":4,"time":"2021-09-16T16:11:27.928Z","response":"2nd","certainty":"high","char":"L","transposition":3,"order":["swapped","shifted"],"probe_pitches":[2,4,2,6,2,11,4,-1,11,2,-1,6,9,4,9,6],"shifted_pitches":[2,4,2,6,2,11,4,-1,10,2,-1,6,9,4,9,6],"swapped_pitches":[2,4,2,6,2,11,4,11,-1,2,-1,6,9,4,9,6],"shift_direction":-1,"question_num":161,"has_decoy":false},{"rt":2489.0999999940395,"stimulus":"[A] option 1, [L] option 2, [G] neither","key_press":71,"name":"choice","trial_type":"html-keyboard-response","trial_index":197,"time_elapsed":433940,"internal_node_id":"0.0-197.0","subject":"S1C1617","sona":"41487","block":4,"time":"2021-09-16T16:11:27.928Z","response":"neither","certainty":"high","char":"G","transposition":2,"order":["swapped","shifted"],"probe_pitches":[-1,1,-1,6,-1,6,-1,1,11,8,1,-1,4,11,1,4],"shifted_pitches":[-1,1,-1,6,-1,6,-1,2,11,8,1,-1,4,11,1,4],"swapped_pitches":[-1,1,-1,6,-1,6,-1,11,1,8,1,-1,4,11,1,4],"shift_direction":1,"question_num":171,"has_decoy":false},{"rt":343.70000000298023,"stimulus":"[A] option 1, [L] option 2, [G] neither","key_press":76,"name":"choice","trial_type":"html-keyboard-response","trial_index":208,"time_elapsed":457101,"internal_node_id":"0.0-208.0","subject":"S1C1617","sona":"41487","block":4,"time":"2021-09-16T16:11:27.928Z","response":"2nd","certainty":"high","char":"L","transposition":-3,"order":["swapped","shifted"],"probe_pitches":[7,3,1,8,10,1,9,7,5,8,10,4,5,10,-2,1],"shifted_pitches":[7,3,1,8,10,1,9,7,6,8,10,4,5,10,-2,1],"swapped_pitches":[7,3,1,8,10,1,9,5,7,8,10,4,5,10,-2,1],"shift_direction":1,"question_num":181,"has_decoy":false},{"rt":2574.2000000029802,"stimulus":"[A] option 1, [L] option 2, [G] neither","key_press":71,"name":"choice","trial_type":"html-keyboard-response","trial_index":219,"time_elapsed":482494,"internal_node_id":"0.0-219.0","subject":"S1C1617","sona":"41487","block":4,"time":"2021-09-16T16:11:27.928Z","response":"neither","certainty":"high","char":"G","transposition":1,"order":["shifted","swapped"],"probe_pitches":[7,2,9,4,11,9,2,9,11,-1,7,-1,11,9,-1,11],"shifted_pitches":[7,2,9,4,11,9,2,9,10,-1,7,-1,11,9,-1,11],"swapped_pitches":[7,2,9,4,11,9,2,11,9,-1,7,-1,11,9,-1,11],"shift_direction":-1,"question_num":191,"has_decoy":false}]