[{"rt":1315.300000011921,"stimulus":"[A] option 1, [L] option 2, [G] neither","key_press":76,"name":"choice","trial_type":"html-keyboard-response","trial_index":10,"time_elapsed":25114,"internal_node_id":"0.0-10.0","subject":"S1C1617","sona":"41487","block":6,"time":"2021-09-16T16:27:39.509Z","response":"2nd","certainty":"high","char":"L","transposition":3,"order":["swapped","shifted"],"probe_pitches":[2,6,7,14,13,5,12,14,9,4,2,14,4,9,2,14],"shifted_pitches":[2,6,7,14,13,5,12,14,8,4,2,14,4,9,2,14],"swapped_pitches":[2,6,7,14,13,5,12,9,14,4,2,14,4,9,2,14],"shift_direction":-1,"question_num":1,"has_decoy":false},{"rt":901.7000000029802,"stimulus":"[A] option 1, [L] option 2, [G] neither","key_press":71,"name":"choice","trial_type":"html-keyboard-response","trial_index":21,"time_elapsed":48428,"internal_node_id":"0.0-21.0","subject":"S1C1617","sona":"41487","block":6,"time":"2021-09-16T16:27:39.509Z","response":"neither","certainty":"high","char":"G","transposition":-3,"order":["shifted","swapped"],"probe_pitches":[12,10,5,10,5,12,10,12,0,5,7,12,5,0,7,2],"shifted_pitches":[12,10,5,10,5,12,10,11,0,5,7,12,5,0,7,2],"swapped_pitches":[12,10,5,10,5,12,10,0,12,5,7,12,5,0,7,2],"shift_direction":-1,"question_num":11,"has_decoy":false},{"rt":408.09999999403954,"stimulus":"[A] option 1, [L] option 2, [G] neither","key_press":65,"name":"choice","trial_type":"html-keyboard-response","trial_index":32,"time_elapsed":71252,"internal_node_id":"0.0-32.0","subject":"S1C1617","sona":"41487","block":6,"time":"2021-09-16T16:27:39.509Z","response":"1st","certainty":"high","char":"A","transposition":-1,"order":["swapped","shifted"],"probe_pitches":[12,11,7,5,13,6,14,8,3,14,13,6,12,3,14,3],"shifted_pitches":[12,11,7,5,13,6,14,9,3,14,13,6,12,3,14,3],"swapped_pitches":[12,11,7,5,13,6,14,3,8,14,13,6,12,3,14,3],"shift_direction":1,"question_num":21,"has_decoy":false},{"rt":1831.5,"stimulus":"[A] option 1, [L] option 2, [G] neither","key_press":71,"name":"choice","trial_type":"html-keyboard-response","trial_index":43,"time_elapsed":95448,"internal_node_id":"0.0-43.0","subject":"S1C1617","sona":"41487","block":6,"time":"2021-09-16T16:27:39.509Z","response":"neither","certainty":"high","char":"G","transposition":-3,"order":["shifted","swapped"],"probe_pitches":[0,5,12,8,10,0,3,8,12,10,3,12,8,12,0,10],"shifted_pitches":[0,5,12,8,10,0,3,8,13,10,3,12,8,12,0,10],"swapped_pitches":[0,5,12,8,10,0,3,12,8,10,3,12,8,12,0,10],"shift_direction":1,"question_num":31,"has_decoy":false},{"rt":1485.699999988079,"stimulus":"[A] option 1, [L] option 2, [G] neither","key_press":65,"name":"choice","trial_type":"html-keyboard-response","trial_index":54,"time_elapsed":119267,"internal_node_id":"0.0-54.0","subject":"S1C1617","sona":"41487","block":6,"time":"2021-09-16T16:27:39.509Z","response":"1st","certainty":"high","char":"A","transposition":0,"order":["swapped","shifted"],"probe_pitches":[3,9,7,3,4,3,9,4,11,2,9,8,4,8,2,13],"shifted_pitches":[3,9,7,3,4,3,9,4,12,2,9,8,4,8,2,13],"swapped_pitches":[3,9,7,3,4,3,9,11,4,2,9,8,4,8,2,13],"shift_direction":1,"question_num":41,"has_decoy":false},{"rt":3353.800000011921,"stimulus":"[A] option 1, [L] option 2, [G] neither","key_press":71,"name":"choice","trial_type":"html-keyboard-response","trial_index":65,"time_elapsed":145257,"internal_node_id":"0.0-65.0","subject":"S1C1617","sona":"41487","block":6,"time":"2021-09-16T16:27:39.509Z","response":"neither","certainty":"high","char":"G","transposition":0,"order":["swapped","shifted"],"probe_pitches":[7,5,0,3,0,10,12,3,10,5,12,10,0,3,0,12],"shifted_pitches":[7,5,0,3,0,10,12,2,10,5,12,10,0,3,0,12],"swapped_pitches":[7,5,0,3,0,10,12,10,3,5,12,10,0,3,0,12],"shift_direction":-1,"question_num":51,"has_decoy":false},{"rt":809.0999999940395,"stimulus":"[A] option 1, [L] option 2, [G] neither","key_press":76,"name":"choice","trial_type":"html-keyboard-response","trial_index":76,"time_elapsed":168434,"internal_node_id":"0.0-76.0","subject":"S1C1617","sona":"41487","block":6,"time":"2021-09-16T16:27:39.509Z","response":"2nd","certainty":"high","char":"L","transposition":-1,"order":["shifted","swapped"],"probe_pitches":[7,12,7,9,12,5,2,12,5,9,12,5,7,0,2,7],"shifted_pitches":[7,12,7,9,12,5,2,13,5,9,12,5,7,0,2,7],"swapped_pitches":[7,12,7,9,12,5,2,5,12,9,12,5,7,0,2,7],"shift_direction":1,"question_num":61,"has_decoy":false},{"rt":628.1000000089407,"stimulus":"[A] option 1, [L] option 2, [G] neither","key_press":71,"name":"choice","trial_type":"html-keyboard-response","trial_index":87,"time_elapsed":191426,"internal_node_id":"0.0-87.0","subject":"S1C1617","sona":"41487","block":6,"time":"2021-09-16T16:27:39.509Z","response":"neither","certainty":"high","char":"G","transposition":-2,"order":["shifted","swapped"],"probe_pitches":[3,8,4,6,11,7,9,3,4,10,8,9,4,13,8,11],"shifted_pitches":[3,8,4,6,11,7,9,3,5,10,8,9,4,13,8,11],"swapped_pitches":[3,8,4,6,11,7,9,4,3,10,8,9,4,13,8,11],"shift_direction":1,"question_num":71,"has_decoy":false},{"rt":529.7000000029802,"stimulus":"[A] option 1, [L] option 2, [G] neither","key_press":65,"name":"choice","trial_type":"html-keyboard-response","trial_index":98,"time_elapsed":215973,"internal_node_id":"0.0-98.0","subject":"S1C1617","sona":"41487","block":6,"time":"2021-09-16T16:27:39.509Z","response":"1st","certainty":"high","char":"A","transposition":2,"order":["shifted","swapped"],"probe_pitches":[12,6,3,6,7,14,11,5,2,8,7,6,3,8,2,11],"shifted_pitches":[12,6,3,6,7,14,11,4,2,8,7,6,3,8,2,11],"swapped_pitches":[12,6,3,6,7,14,11,2,5,8,7,6,3,8,2,11],"shift_direction":-1,"question_num":81,"has_decoy":false},{"rt":1043,"stimulus":"[A] option 1, [L] option 2, [G] neither","key_press":76,"name":"choice","trial_type":"html-keyboard-response","trial_index":109,"time_elapsed":239371,"internal_node_id":"0.0-109.0","subject":"S1C1617","sona":"41487","block":6,"time":"2021-09-16T16:27:39.509Z","response":"2nd","certainty":"high","char":"L","transposition":-3,"order":["swapped","shifted"],"probe_pitches":[14,8,11,9,2,12,2,14,9,11,14,12,6,7,6,2],"shifted_pitches":[14,8,11,9,2,12,2,14,10,11,14,12,6,7,6,2],"swapped_pitches":[14,8,11,9,2,12,2,9,14,11,14,12,6,7,6,2],"shift_direction":1,"question_num":91,"has_decoy":false},{"rt":1593.7000000029802,"stimulus":"[A] option 1, [L] option 2, [G] neither","key_press":76,"name":"choice","trial_type":"html-keyboard-response","trial_index":120,"time_elapsed":263297,"internal_node_id":"0.0-120.0","subject":"S1C1617","sona":"41487","block":6,"time":"2021-09-16T16:27:39.509Z","response":"2nd","certainty":"high","char":"L","transposition":-2,"order":["shifted","swapped"],"probe_pitches":[14,10,4,7,2,5,7,6,2,14,2,4,11,14,12,6],"shifted_pitches":[14,10,4,7,2,5,7,6,1,14,2,4,11,14,12,6],"swapped_pitches":[14,10,4,7,2,5,7,2,6,14,2,4,11,14,12,6],"shift_direction":-1,"question_num":101,"has_decoy":false},{"rt":819.8000000119209,"stimulus":"[A] option 1, [L] option 2, [G] neither","key_press":71,"name":"choice","trial_type":"html-keyboard-response","trial_index":131,"time_elapsed":286496,"internal_node_id":"0.0-131.0","subject":"S1C1617","sona":"41487","block":6,"time":"2021-09-16T16:27:39.509Z","response":"neither","certainty":"high","char":"G","transposition":-3,"order":["shifted","swapped"],"probe_pitches":[10,8,9,13,14,10,6,12,13,5,2,13,4,12,6,9],"shifted_pitches":[10,8,9,13,14,10,6,11,13,5,2,13,4,12,6,9],"swapped_pitches":[10,8,9,13,14,10,6,13,12,5,2,13,4,12,6,9],"shift_direction":-1,"question_num":111,"has_decoy":false},{"rt":723.7999999970198,"stimulus":"[A] option 1, [L] option 2, [G] neither","key_press":76,"name":"choice","trial_type":"html-keyboard-response","trial_index":142,"time_elapsed":310031,"internal_node_id":"0.0-142.0","subject":"S1C1617","sona":"41487","block":6,"time":"2021-09-16T16:27:39.509Z","response":"2nd","certainty":"high","char":"L","transposition":-1,"order":["swapped","shifted"],"probe_pitches":[11,13,11,9,13,11,10,7,14,10,2,8,14,13,2,10],"shifted_pitches":[11,13,11,9,13,11,10,6,14,10,2,8,14,13,2,10],"swapped_pitches":[11,13,11,9,13,11,10,14,7,10,2,8,14,13,2,10],"shift_direction":-1,"question_num":121,"has_decoy":false},{"rt":1612.4000000059605,"stimulus":"[A] option 1, [L] option 2, [G] neither","key_press":65,"name":"choice","trial_type":"html-keyboard-response","trial_index":153,"time_elapsed":334220,"internal_node_id":"0.0-153.0","subject":"S1C1617","sona":"41487","block":6,"time":"2021-09-16T16:27:39.509Z","response":"1st","certainty":"high","char":"A","transposition":-1,"order":["swapped","shifted"],"probe_pitches":[2,7,2,5,7,2,0,2,12,10,0,5,2,7,10,5],"shifted_pitches":[2,7,2,5,7,2,0,2,13,10,0,5,2,7,10,5],"swapped_pitches":[2,7,2,5,7,2,0,12,2,10,0,5,2,7,10,5],"shift_direction":1,"question_num":131,"has_decoy":false},{"rt":889,"stimulus":"[A] option 1, [L] option 2, [G] neither","key_press":65,"name":"choice","trial_type":"html-keyboard-response","trial_index":164,"time_elapsed":357486,"internal_node_id":"0.0-164.0","subject":"S1C1617","sona":"41487","block":6,"time":"2021-09-16T16:27:39.509Z","response":"1st","certainty":"high","char":"A","transposition":3,"order":["shifted","swapped"],"probe_pitches":[9,12,7,2,9,2,9,7,2,9,2,9,12,2,4,7],"shifted_pitches":[9,12,7,2,9,2,9,8,2,9,2,9,12,2,4,7],"swapped_pitches":[9,12,7,2,9,2,9,2,7,9,2,9,12,2,4,7],"shift_direction":1,"question_num":141,"has_decoy":false},{"rt":702.8999999910593,"stimulus":"[A] option 1, [L] option 2, [G] neither","key_press":76,"name":"choice","trial_type":"html-keyboard-response","trial_index":175,"time_elapsed":380983,"internal_node_id":"0.0-175.0","subject":"S1C1617","sona":"41487","block":6,"time":"2021-09-16T16:27:39.509Z","response":"2nd","certainty":"high","char":"L","transposition":1,"order":["swapped","shifted"],"probe_pitches":[2,7,9,12,9,12,2,7,4,2,4,9,4,7,9,0],"shifted_pitches":[2,7,9,12,9,12,2,7,3,2,4,9,4,7,9,0],"swapped_pitches":[2,7,9,12,9,12,2,4,7,2,4,9,4,7,9,0],"shift_direction":-1,"question_num":151,"has_decoy":false},{"rt":679.9000000059605,"stimulus":"[A] option 1, [L] option 2, [G] neither","key_press":71,"name":"choice","trial_type":"html-keyboard-response","trial_index":186,"time_elapsed":404155,"internal_node_id":"0.0-186.0","subject":"S1C1617","sona":"41487","block":6,"time":"2021-09-16T16:27:39.509Z","response":"neither","certainty":"high","char":"G","transposition":1,"order":["shifted","swapped"],"probe_pitches":[13,14,12,14,8,12,5,6,11,9,13,14,6,8,2,14],"shifted_pitches":[13,14,12,14,8,12,5,7,11,9,13,14,6,8,2,14],"swapped_pitches":[13,14,12,14,8,12,5,11,6,9,13,14,6,8,2,14],"shift_direction":1,"question_num":161,"has_decoy":false},{"rt":957.1000000089407,"stimulus":"[A] option 1, [L] option 2, [G] neither","key_press":65,"name":"choice","trial_type":"html-keyboard-response","trial_index":197,"time_elapsed":427434,"internal_node_id":"0.0-197.0","subject":"S1C1617","sona":"41487","block":6,"time":"2021-09-16T16:27:39.509Z","response":"1st","certainty":"high","char":"A","transposition":-2,"order":["swapped","shifted"],"probe_pitches":[10,5,0,7,3,5,12,7,0,3,5,3,0,3,10,7],"shifted_pitches":[10,5,0,7,3,5,12,7,-1,3,5,3,0,3,10,7],"swapped_pitches":[10,5,0,7,3,5,12,0,7,3,5,3,0,3,10,7],"shift_direction":-1,"question_num":171,"has_decoy":false},{"rt":582.7000000029802,"stimulus":"[A] option 1, [L] option 2, [G] neither","key_press":76,"name":"choice","trial_type":"html-keyboard-response","trial_index":208,"time_elapsed":450329,"internal_node_id":"0.0-208.0","subject":"S1C1617","sona":"41487","block":6,"time":"2021-09-16T16:27:39.509Z","response":"2nd","certainty":"high","char":"L","transposition":-2,"order":["swapped","shifted"],"probe_pitches":[9,12,7,9,0,7,9,0,12,9,12,2,0,5,9,12],"shifted_pitches":[9,12,7,9,0,7,9,0,11,9,12,2,0,5,9,12],"swapped_pitches":[9,12,7,9,0,7,9,12,0,9,12,2,0,5,9,12],"shift_direction":-1,"question_num":181,"has_decoy":false},{"rt":704.4000000059605,"stimulus":"[A] option 1, [L] option 2, [G] neither","key_press":65,"name":"choice","trial_type":"html-keyboard-response","trial_index":219,"time_elapsed":473383,"internal_node_id":"0.0-219.0","subject":"S1C1617","sona":"41487","block":6,"time":"2021-09-16T16:27:39.509Z","response":"1st","certainty":"high","char":"A","transposition":2,"order":["shifted","swapped"],"probe_pitches":[3,5,10,3,8,10,0,12,3,0,8,12,5,8,3,10],"shifted_pitches":[3,5,10,3,8,10,0,13,3,0,8,12,5,8,3,10],"swapped_pitches":[3,5,10,3,8,10,0,3,12,0,8,12,5,8,3,10],"shift_direction":1,"question_num":191,"has_decoy":false}]