[{"rt":612.2000000029802,"stimulus":"[A] option 1, [L] option 2, [G] neither","key_press":76,"name":"choice","trial_type":"html-keyboard-response","trial_index":10,"time_elapsed":15727,"internal_node_id":"0.0-10.0","subject":"S1C0823","sona":"39889","block":4,"time":"2021-09-17T01:02:32.707Z","response":"2nd","certainty":"high","char":"L","transposition":-2,"order":["swapped","shifted"],"probe_pitches":[0,5,8,12,5,3,6,8],"shifted_pitches":[0,5,8,12,4,3,6,8],"swapped_pitches":[0,5,8,5,12,3,6,8],"shift_direction":-1,"question_num":1,"has_decoy":false},{"rt":759.3999999910593,"stimulus":"[A] option 1, [L] option 2, [G] neither","key_press":65,"name":"choice","trial_type":"html-keyboard-response","trial_index":21,"time_elapsed":30508,"internal_node_id":"0.0-21.0","subject":"S1C0823","sona":"39889","block":4,"time":"2021-09-17T01:02:32.707Z","response":"1st","certainty":"high","char":"A","transposition":-1,"order":["shifted","swapped"],"probe_pitches":[9,7,0,7,11,1,12,4],"shifted_pitches":[9,7,0,8,11,1,12,4],"swapped_pitches":[9,7,0,11,7,1,12,4],"shift_direction":1,"question_num":11,"has_decoy":false},{"rt":1648,"stimulus":"[A] option 1, [L] option 2, [G] neither","key_press":65,"name":"choice","trial_type":"html-keyboard-response","trial_index":32,"time_elapsed":46234,"internal_node_id":"0.0-32.0","subject":"S1C0823","sona":"39889","block":4,"time":"2021-09-17T01:02:32.707Z","response":"1st","certainty":"high","char":"A","transposition":-3,"order":["swapped","shifted"],"probe_pitches":[4,2,8,10,4,11,12,8],"shifted_pitches":[4,2,8,10,3,11,12,8],"swapped_pitches":[4,2,8,4,10,11,12,8],"shift_direction":-1,"question_num":21,"has_decoy":false},{"rt":1580.699999988079,"stimulus":"[A] option 1, [L] option 2, [G] neither","key_press":65,"name":"choice","trial_type":"html-keyboard-response","trial_index":43,"time_elapsed":61895,"internal_node_id":"0.0-43.0","subject":"S1C0823","sona":"39889","block":4,"time":"2021-09-17T01:02:32.707Z","response":"1st","certainty":"high","char":"A","transposition":-3,"order":["shifted","swapped"],"probe_pitches":[5,0,2,9,4,0,3,4],"shifted_pitches":[5,0,2,10,4,0,3,4],"swapped_pitches":[5,0,2,4,9,0,3,4],"shift_direction":1,"question_num":31,"has_decoy":false},{"rt":1424.0999999940395,"stimulus":"[A] option 1, [L] option 2, [G] neither","key_press":76,"name":"choice","trial_type":"html-keyboard-response","trial_index":54,"time_elapsed":77427,"internal_node_id":"0.0-54.0","subject":"S1C0823","sona":"39889","block":4,"time":"2021-09-17T01:02:32.707Z","response":"2nd","certainty":"high","char":"L","transposition":2,"order":["swapped","shifted"],"probe_pitches":[9,4,9,2,11,6,2,11],"shifted_pitches":[9,4,9,2,10,6,2,11],"swapped_pitches":[9,4,9,11,2,6,2,11],"shift_direction":-1,"question_num":41,"has_decoy":false},{"rt":1858.2999999970198,"stimulus":"[A] option 1, [L] option 2, [G] neither","key_press":76,"name":"choice","trial_type":"html-keyboard-response","trial_index":65,"time_elapsed":94428,"internal_node_id":"0.0-65.0","subject":"S1C0823","sona":"39889","block":4,"time":"2021-09-17T01:02:32.707Z","response":"2nd","certainty":"high","char":"L","transposition":-1,"order":["shifted","swapped"],"probe_pitches":[1,4,11,9,1,6,9,-1],"shifted_pitches":[1,4,11,9,0,6,9,-1],"swapped_pitches":[1,4,11,1,9,6,9,-1],"shift_direction":-1,"question_num":51,"has_decoy":false},{"rt":136.20000000298023,"stimulus":"[A] option 1, [L] option 2, [G] neither","key_press":76,"name":"choice","trial_type":"html-keyboard-response","trial_index":76,"time_elapsed":108684,"internal_node_id":"0.0-76.0","subject":"S1C0823","sona":"39889","block":4,"time":"2021-09-17T01:02:32.707Z","response":"2nd","certainty":"high","char":"L","transposition":-1,"order":["shifted","swapped"],"probe_pitches":[6,4,11,4,9,11,2,11],"shifted_pitches":[6,4,11,4,8,11,2,11],"swapped_pitches":[6,4,11,9,4,11,2,11],"shift_direction":-1,"question_num":61,"has_decoy":false},{"rt":34.5,"stimulus":"[A] option 1, [L] option 2, [G] neither","key_press":76,"name":"choice","trial_type":"html-keyboard-response","trial_index":87,"time_elapsed":122791,"internal_node_id":"0.0-87.0","subject":"S1C0823","sona":"39889","block":4,"time":"2021-09-17T01:02:32.707Z","response":"2nd","certainty":"high","char":"L","transposition":-3,"order":["shifted","swapped"],"probe_pitches":[8,4,11,8,-1,1,6,8],"shifted_pitches":[8,4,11,8,0,1,6,8],"swapped_pitches":[8,4,11,-1,8,1,6,8],"shift_direction":1,"question_num":71,"has_decoy":false},{"rt":111.90000000596046,"stimulus":"[A] option 1, [L] option 2, [G] neither","key_press":76,"name":"choice","trial_type":"html-keyboard-response","trial_index":98,"time_elapsed":137023,"internal_node_id":"0.0-98.0","subject":"S1C0823","sona":"39889","block":4,"time":"2021-09-17T01:02:32.707Z","response":"2nd","certainty":"high","char":"L","transposition":3,"order":["swapped","shifted"],"probe_pitches":[11,7,11,9,2,4,11,9],"shifted_pitches":[11,7,11,10,2,4,11,9],"swapped_pitches":[11,7,11,2,9,4,11,9],"shift_direction":1,"question_num":81,"has_decoy":false},{"rt":861,"stimulus":"[A] option 1, [L] option 2, [G] neither","key_press":65,"name":"choice","trial_type":"html-keyboard-response","trial_index":109,"time_elapsed":152349,"internal_node_id":"0.0-109.0","subject":"S1C0823","sona":"39889","block":4,"time":"2021-09-17T01:02:32.707Z","response":"1st","certainty":"high","char":"A","transposition":3,"order":["shifted","swapped"],"probe_pitches":[8,4,1,9,10,12,6,1],"shifted_pitches":[8,4,1,9,11,12,6,1],"swapped_pitches":[8,4,1,10,9,12,6,1],"shift_direction":1,"question_num":91,"has_decoy":false},{"rt":1629.9000000059605,"stimulus":"[A] option 1, [L] option 2, [G] neither","key_press":76,"name":"choice","trial_type":"html-keyboard-response","trial_index":120,"time_elapsed":168132,"internal_node_id":"0.0-120.0","subject":"S1C0823","sona":"39889","block":4,"time":"2021-09-17T01:02:32.707Z","response":"2nd","certainty":"high","char":"L","transposition":0,"order":["shifted","swapped"],"probe_pitches":[4,-1,4,2,9,11,7,9],"shifted_pitches":[4,-1,4,3,9,11,7,9],"swapped_pitches":[4,-1,4,9,2,11,7,9],"shift_direction":1,"question_num":101,"has_decoy":false},{"rt":1476.9000000059605,"stimulus":"[A] option 1, [L] option 2, [G] neither","key_press":76,"name":"choice","trial_type":"html-keyboard-response","trial_index":131,"time_elapsed":183656,"internal_node_id":"0.0-131.0","subject":"S1C0823","sona":"39889","block":4,"time":"2021-09-17T01:02:32.707Z","response":"2nd","certainty":"high","char":"L","transposition":1,"order":["swapped","shifted"],"probe_pitches":[-1,4,1,9,4,6,1,6],"shifted_pitches":[-1,4,1,8,4,6,1,6],"swapped_pitches":[-1,4,1,4,9,6,1,6],"shift_direction":-1,"question_num":111,"has_decoy":false},{"rt":1768.5999999940395,"stimulus":"[A] option 1, [L] option 2, [G] neither","key_press":65,"name":"choice","trial_type":"html-keyboard-response","trial_index":142,"time_elapsed":199585,"internal_node_id":"0.0-142.0","subject":"S1C0823","sona":"39889","block":4,"time":"2021-09-17T01:02:32.707Z","response":"1st","certainty":"high","char":"A","transposition":0,"order":["shifted","swapped"],"probe_pitches":[0,1,2,3,10,12,6,1],"shifted_pitches":[0,1,2,3,9,12,6,1],"swapped_pitches":[0,1,2,10,3,12,6,1],"shift_direction":-1,"question_num":121,"has_decoy":false},{"rt":994.0999999940395,"stimulus":"[A] option 1, [L] option 2, [G] neither","key_press":76,"name":"choice","trial_type":"html-keyboard-response","trial_index":153,"time_elapsed":214720,"internal_node_id":"0.0-153.0","subject":"S1C0823","sona":"39889","block":4,"time":"2021-09-17T01:02:32.707Z","response":"2nd","certainty":"high","char":"L","transposition":-3,"order":["swapped","shifted"],"probe_pitches":[11,8,6,3,1,6,3,1],"shifted_pitches":[11,8,6,4,1,6,3,1],"swapped_pitches":[11,8,6,1,3,6,3,1],"shift_direction":1,"question_num":131,"has_decoy":false},{"rt":1465.5999999940395,"stimulus":"[A] option 1, [L] option 2, [G] neither","key_press":65,"name":"choice","trial_type":"html-keyboard-response","trial_index":164,"time_elapsed":230268,"internal_node_id":"0.0-164.0","subject":"S1C0823","sona":"39889","block":4,"time":"2021-09-17T01:02:32.707Z","response":"1st","certainty":"high","char":"A","transposition":-2,"order":["swapped","shifted"],"probe_pitches":[3,6,1,3,8,11,1,3],"shifted_pitches":[3,6,1,4,8,11,1,3],"swapped_pitches":[3,6,1,8,3,11,1,3],"shift_direction":1,"question_num":141,"has_decoy":false},{"rt":2386.4000000059605,"stimulus":"[A] option 1, [L] option 2, [G] neither","key_press":65,"name":"choice","trial_type":"html-keyboard-response","trial_index":175,"time_elapsed":246826,"internal_node_id":"0.0-175.0","subject":"S1C0823","sona":"39889","block":4,"time":"2021-09-17T01:02:32.707Z","response":"1st","certainty":"high","char":"A","transposition":-2,"order":["shifted","swapped"],"probe_pitches":[6,4,8,1,6,4,8,-1],"shifted_pitches":[6,4,8,1,5,4,8,-1],"swapped_pitches":[6,4,8,6,1,4,8,-1],"shift_direction":-1,"question_num":151,"has_decoy":false},{"rt":1725.7999999970198,"stimulus":"[A] option 1, [L] option 2, [G] neither","key_press":76,"name":"choice","trial_type":"html-keyboard-response","trial_index":186,"time_elapsed":262614,"internal_node_id":"0.0-186.0","subject":"S1C0823","sona":"39889","block":4,"time":"2021-09-17T01:02:32.707Z","response":"2nd","certainty":"high","char":"L","transposition":-1,"order":["shifted","swapped"],"probe_pitches":[10,7,3,6,11,10,3,6],"shifted_pitches":[10,7,3,5,11,10,3,6],"swapped_pitches":[10,7,3,11,6,10,3,6],"shift_direction":-1,"question_num":161,"has_decoy":false},{"rt":1729.5,"stimulus":"[A] option 1, [L] option 2, [G] neither","key_press":65,"name":"choice","trial_type":"html-keyboard-response","trial_index":197,"time_elapsed":278414,"internal_node_id":"0.0-197.0","subject":"S1C0823","sona":"39889","block":4,"time":"2021-09-17T01:02:32.707Z","response":"1st","certainty":"high","char":"A","transposition":-2,"order":["swapped","shifted"],"probe_pitches":[9,8,3,1,6,8,12,2],"shifted_pitches":[9,8,3,1,7,8,12,2],"swapped_pitches":[9,8,3,6,1,8,12,2],"shift_direction":1,"question_num":171,"has_decoy":false},{"rt":1276.7999999970198,"stimulus":"[A] option 1, [L] option 2, [G] neither","key_press":76,"name":"choice","trial_type":"html-keyboard-response","trial_index":208,"time_elapsed":293775,"internal_node_id":"0.0-208.0","subject":"S1C0823","sona":"39889","block":4,"time":"2021-09-17T01:02:32.707Z","response":"2nd","certainty":"high","char":"L","transposition":1,"order":["swapped","shifted"],"probe_pitches":[8,4,8,5,3,7,2,3],"shifted_pitches":[8,4,8,6,3,7,2,3],"swapped_pitches":[8,4,8,3,5,7,2,3],"shift_direction":1,"question_num":181,"has_decoy":false},{"rt":1631.7000000029802,"stimulus":"[A] option 1, [L] option 2, [G] neither","key_press":76,"name":"choice","trial_type":"html-keyboard-response","trial_index":219,"time_elapsed":309511,"internal_node_id":"0.0-219.0","subject":"S1C0823","sona":"39889","block":4,"time":"2021-09-17T01:02:32.707Z","response":"2nd","certainty":"high","char":"L","transposition":2,"order":["swapped","shifted"],"probe_pitches":[10,5,9,3,1,11,7,9],"shifted_pitches":[10,5,9,2,1,11,7,9],"swapped_pitches":[10,5,9,1,3,11,7,9],"shift_direction":-1,"question_num":191,"has_decoy":false}]