[{"rt":2920.4000000059605,"stimulus":"[A] option 1, [L] option 2, [G] neither","key_press":65,"name":"choice","trial_type":"html-keyboard-response","trial_index":15,"time_elapsed":70888,"internal_node_id":"0.0-15.0","response":"1st","certainty":"high","char":"A","transposition":0,"order":["swapped","shifted"],"probe_pitches":[14,8,3,4,8,14,5,12],"shifted_pitches":[14,8,3,4,9,14,5,12],"swapped_pitches":[14,8,3,8,4,14,5,12],"shift_direction":1,"question_num":1,"has_decoy":false,"subject":"S1C0823","sona":"39889","block":1,"time":"2021-09-17T00:47:11.180Z"},{"rt":714.2999999970198,"stimulus":"[A] option 1, [L] option 2, [G] neither","key_press":76,"name":"choice","trial_type":"html-keyboard-response","trial_index":26,"time_elapsed":86009,"internal_node_id":"0.0-26.0","response":"2nd","certainty":"high","char":"L","transposition":-2,"order":["swapped","shifted"],"probe_pitches":[10,8,5,3,1,-2,8,3],"shifted_pitches":[10,8,5,3,2,-2,8,3],"swapped_pitches":[10,8,5,1,3,-2,8,3],"shift_direction":1,"question_num":11,"has_decoy":false,"subject":"S1C0823","sona":"39889","block":1,"time":"2021-09-17T00:47:11.180Z"},{"rt":432.3999999910593,"stimulus":"[A] option 1, [L] option 2, [G] neither","key_press":76,"name":"choice","trial_type":"html-keyboard-response","trial_index":37,"time_elapsed":101130,"internal_node_id":"0.0-37.0","response":"2nd","certainty":"high","char":"L","transposition":1,"order":["shifted","swapped"],"probe_pitches":[3,0,7,5,-2,3,0,5],"shifted_pitches":[3,0,7,5,-3,3,0,5],"swapped_pitches":[3,0,7,-2,5,3,0,5],"shift_direction":-1,"question_num":21,"has_decoy":false,"subject":"S1C0823","sona":"39889","block":1,"time":"2021-09-17T00:47:11.180Z"},{"rt":118.70000000298023,"stimulus":"[A] option 1, [L] option 2, [G] neither","key_press":76,"name":"choice","trial_type":"html-keyboard-response","trial_index":48,"time_elapsed":115408,"internal_node_id":"0.0-48.0","response":"2nd","certainty":"high","char":"L","transposition":-3,"order":["swapped","shifted"],"probe_pitches":[9,14,8,5,11,9,14,10],"shifted_pitches":[9,14,8,6,11,9,14,10],"swapped_pitches":[9,14,8,11,5,9,14,10],"shift_direction":1,"question_num":31,"has_decoy":false,"subject":"S1C0823","sona":"39889","block":1,"time":"2021-09-17T00:47:11.180Z"},{"rt":33.6000000089407,"stimulus":"[A] option 1, [L] option 2, [G] neither","key_press":76,"name":"choice","trial_type":"html-keyboard-response","trial_index":59,"time_elapsed":129461,"internal_node_id":"0.0-59.0","response":"2nd","certainty":"high","char":"L","transposition":-1,"order":["swapped","shifted"],"probe_pitches":[5,10,3,10,7,5,3,0],"shifted_pitches":[5,10,3,11,7,5,3,0],"swapped_pitches":[5,10,3,7,10,5,3,0],"shift_direction":1,"question_num":41,"has_decoy":false,"subject":"S1C0823","sona":"39889","block":1,"time":"2021-09-17T00:47:11.180Z"},{"rt":362.09999999403954,"stimulus":"[A] option 1, [L] option 2, [G] neither","key_press":76,"name":"choice","trial_type":"html-keyboard-response","trial_index":70,"time_elapsed":144384,"internal_node_id":"0.0-70.0","response":"2nd","certainty":"high","char":"L","transposition":2,"order":["swapped","shifted"],"probe_pitches":[-2,3,8,6,3,8,-2,1],"shifted_pitches":[-2,3,8,6,4,8,-2,1],"swapped_pitches":[-2,3,8,3,6,8,-2,1],"shift_direction":1,"question_num":51,"has_decoy":false,"subject":"S1C0823","sona":"39889","block":1,"time":"2021-09-17T00:47:11.180Z"},{"rt":312.90000000596046,"stimulus":"[A] option 1, [L] option 2, [G] neither","key_press":76,"name":"choice","trial_type":"html-keyboard-response","trial_index":81,"time_elapsed":158764,"internal_node_id":"0.0-81.0","response":"2nd","certainty":"high","char":"L","transposition":-2,"order":["shifted","swapped"],"probe_pitches":[9,13,11,14,13,15,6,7],"shifted_pitches":[9,13,11,14,12,15,6,7],"swapped_pitches":[9,13,11,13,14,15,6,7],"shift_direction":-1,"question_num":61,"has_decoy":false,"subject":"S1C0823","sona":"39889","block":1,"time":"2021-09-17T00:47:11.180Z"},{"rt":58.400000005960464,"stimulus":"[A] option 1, [L] option 2, [G] neither","key_press":76,"name":"choice","trial_type":"html-keyboard-response","trial_index":92,"time_elapsed":172979,"internal_node_id":"0.0-92.0","response":"2nd","certainty":"high","char":"L","transposition":2,"order":["swapped","shifted"],"probe_pitches":[8,6,13,6,8,12,9,14],"shifted_pitches":[8,6,13,5,8,12,9,14],"swapped_pitches":[8,6,13,8,6,12,9,14],"shift_direction":-1,"question_num":71,"has_decoy":false,"subject":"S1C0823","sona":"39889","block":1,"time":"2021-09-17T00:47:11.180Z"},{"rt":1156.9000000059605,"stimulus":"[A] option 1, [L] option 2, [G] neither","key_press":65,"name":"choice","trial_type":"html-keyboard-response","trial_index":103,"time_elapsed":188829,"internal_node_id":"0.0-103.0","response":"1st","certainty":"high","char":"A","transposition":1,"order":["swapped","shifted"],"probe_pitches":[14,9,6,9,14,11,8,5],"shifted_pitches":[14,9,6,10,14,11,8,5],"swapped_pitches":[14,9,6,14,9,11,8,5],"shift_direction":1,"question_num":81,"has_decoy":false,"subject":"S1C0823","sona":"39889","block":1,"time":"2021-09-17T00:47:11.180Z"},{"rt":173.79999999701977,"stimulus":"[A] option 1, [L] option 2, [G] neither","key_press":76,"name":"choice","trial_type":"html-keyboard-response","trial_index":114,"time_elapsed":203131,"internal_node_id":"0.0-114.0","response":"2nd","certainty":"high","char":"L","transposition":-3,"order":["shifted","swapped"],"probe_pitches":[6,10,9,14,8,12,3,10],"shifted_pitches":[6,10,9,14,7,12,3,10],"swapped_pitches":[6,10,9,8,14,12,3,10],"shift_direction":-1,"question_num":91,"has_decoy":false,"subject":"S1C0823","sona":"39889","block":1,"time":"2021-09-17T00:47:11.180Z"},{"rt":952.0999999940395,"stimulus":"[A] option 1, [L] option 2, [G] neither","key_press":76,"name":"choice","trial_type":"html-keyboard-response","trial_index":125,"time_elapsed":218240,"internal_node_id":"0.0-125.0","response":"2nd","certainty":"high","char":"L","transposition":-1,"order":["shifted","swapped"],"probe_pitches":[3,9,8,12,3,9,10,5],"shifted_pitches":[3,9,8,13,3,9,10,5],"swapped_pitches":[3,9,8,3,12,9,10,5],"shift_direction":1,"question_num":101,"has_decoy":false,"subject":"S1C0823","sona":"39889","block":1,"time":"2021-09-17T00:47:11.180Z"},{"rt":1568,"stimulus":"[A] option 1, [L] option 2, [G] neither","key_press":65,"name":"choice","trial_type":"html-keyboard-response","trial_index":136,"time_elapsed":233954,"internal_node_id":"0.0-136.0","response":"1st","certainty":"high","char":"A","transposition":-1,"order":["shifted","swapped"],"probe_pitches":[12,13,6,9,4,3,5,11],"shifted_pitches":[12,13,6,8,4,3,5,11],"swapped_pitches":[12,13,6,4,9,3,5,11],"shift_direction":-1,"question_num":111,"has_decoy":false,"subject":"S1C0823","sona":"39889","block":1,"time":"2021-09-17T00:47:11.180Z"},{"rt":87.70000000298023,"stimulus":"[A] option 1, [L] option 2, [G] neither","key_press":76,"name":"choice","trial_type":"html-keyboard-response","trial_index":147,"time_elapsed":248271,"internal_node_id":"0.0-147.0","response":"2nd","certainty":"high","char":"L","transposition":-2,"order":["swapped","shifted"],"probe_pitches":[5,6,7,12,13,15,7,4],"shifted_pitches":[5,6,7,12,14,15,7,4],"swapped_pitches":[5,6,7,13,12,15,7,4],"shift_direction":1,"question_num":121,"has_decoy":false,"subject":"S1C0823","sona":"39889","block":1,"time":"2021-09-17T00:47:11.180Z"},{"rt":435.79999999701977,"stimulus":"[A] option 1, [L] option 2, [G] neither","key_press":76,"name":"choice","trial_type":"html-keyboard-response","trial_index":158,"time_elapsed":263451,"internal_node_id":"0.0-158.0","response":"2nd","certainty":"high","char":"L","transposition":-2,"order":["swapped","shifted"],"probe_pitches":[10,8,3,-2,5,1,3,-2],"shifted_pitches":[10,8,3,-3,5,1,3,-2],"swapped_pitches":[10,8,3,5,-2,1,3,-2],"shift_direction":-1,"question_num":131,"has_decoy":false,"subject":"S1C0823","sona":"39889","block":1,"time":"2021-09-17T00:47:11.180Z"},{"rt":1449.7000000029802,"stimulus":"[A] option 1, [L] option 2, [G] neither","key_press":76,"name":"choice","trial_type":"html-keyboard-response","trial_index":169,"time_elapsed":279286,"internal_node_id":"0.0-169.0","response":"2nd","certainty":"high","char":"L","transposition":3,"order":["shifted","swapped"],"probe_pitches":[5,4,8,4,12,7,4,7],"shifted_pitches":[5,4,8,4,11,7,4,7],"swapped_pitches":[5,4,8,12,4,7,4,7],"shift_direction":-1,"question_num":141,"has_decoy":false,"subject":"S1C0823","sona":"39889","block":1,"time":"2021-09-17T00:47:11.180Z"},{"rt":2150.7999999970198,"stimulus":"[A] option 1, [L] option 2, [G] neither","key_press":65,"name":"choice","trial_type":"html-keyboard-response","trial_index":180,"time_elapsed":295560,"internal_node_id":"0.0-180.0","response":"1st","certainty":"high","char":"A","transposition":-3,"order":["shifted","swapped"],"probe_pitches":[2,-2,0,-2,5,7,10,5],"shifted_pitches":[2,-2,0,-2,4,7,10,5],"swapped_pitches":[2,-2,0,5,-2,7,10,5],"shift_direction":-1,"question_num":151,"has_decoy":false,"subject":"S1C0823","sona":"39889","block":1,"time":"2021-09-17T00:47:11.180Z"},{"rt":1643.5,"stimulus":"[A] option 1, [L] option 2, [G] neither","key_press":76,"name":"choice","trial_type":"html-keyboard-response","trial_index":191,"time_elapsed":311256,"internal_node_id":"0.0-191.0","response":"2nd","certainty":"high","char":"L","transposition":3,"order":["shifted","swapped"],"probe_pitches":[8,10,3,10,5,0,3,-2],"shifted_pitches":[8,10,3,10,4,0,3,-2],"swapped_pitches":[8,10,3,5,10,0,3,-2],"shift_direction":-1,"question_num":161,"has_decoy":false,"subject":"S1C0823","sona":"39889","block":1,"time":"2021-09-17T00:47:11.180Z"},{"rt":281,"stimulus":"[A] option 1, [L] option 2, [G] neither","key_press":76,"name":"choice","trial_type":"html-keyboard-response","trial_index":202,"time_elapsed":325696,"internal_node_id":"0.0-202.0","response":"2nd","certainty":"high","char":"L","transposition":0,"order":["swapped","shifted"],"probe_pitches":[5,7,5,10,7,-2,0,2],"shifted_pitches":[5,7,5,9,7,-2,0,2],"swapped_pitches":[5,7,5,7,10,-2,0,2],"shift_direction":-1,"question_num":171,"has_decoy":false,"subject":"S1C0823","sona":"39889","block":1,"time":"2021-09-17T00:47:11.180Z"},{"rt":866.1000000089407,"stimulus":"[A] option 1, [L] option 2, [G] neither","key_press":71,"name":"choice","trial_type":"html-keyboard-response","trial_index":213,"time_elapsed":340617,"internal_node_id":"0.0-213.0","response":"neither","certainty":"high","char":"G","transposition":-1,"order":["shifted","swapped"],"probe_pitches":[10,5,-2,5,10,8,3,0],"shifted_pitches":[10,5,-2,6,10,8,3,0],"swapped_pitches":[10,5,-2,10,5,8,3,0],"shift_direction":1,"question_num":181,"has_decoy":false,"subject":"S1C0823","sona":"39889","block":1,"time":"2021-09-17T00:47:11.180Z"},{"rt":435.20000000298023,"stimulus":"[A] option 1, [L] option 2, [G] neither","key_press":76,"name":"choice","trial_type":"html-keyboard-response","trial_index":224,"time_elapsed":355156,"internal_node_id":"0.0-224.0","response":"2nd","certainty":"high","char":"L","transposition":-3,"order":["shifted","swapped"],"probe_pitches":[10,8,3,6,10,8,-2,1],"shifted_pitches":[10,8,3,7,10,8,-2,1],"swapped_pitches":[10,8,3,10,6,8,-2,1],"shift_direction":1,"question_num":191,"has_decoy":false,"subject":"S1C0823","sona":"39889","block":1,"time":"2021-09-17T00:47:11.180Z"}]