[{"rt":685.5,"stimulus":"[A] option 1, [L] option 2, [G] neither","key_press":76,"name":"choice","trial_type":"html-keyboard-response","trial_index":10,"time_elapsed":15090,"internal_node_id":"0.0-10.0","subject":"S1C0823","sona":"39889","block":3,"time":"2021-09-17T00:57:20.973Z","response":"2nd","certainty":"high","char":"L","transposition":3,"order":["shifted","swapped"],"probe_pitches":[8,10,13,6,11,8,13,14],"shifted_pitches":[8,10,13,5,11,8,13,14],"swapped_pitches":[8,10,13,11,6,8,13,14],"shift_direction":-1,"question_num":1,"has_decoy":false},{"rt":1056.8999999910593,"stimulus":"[A] option 1, [L] option 2, [G] neither","key_press":65,"name":"choice","trial_type":"html-keyboard-response","trial_index":21,"time_elapsed":30235,"internal_node_id":"0.0-21.0","subject":"S1C0823","sona":"39889","block":3,"time":"2021-09-17T00:57:20.973Z","response":"1st","certainty":"high","char":"A","transposition":3,"order":["swapped","shifted"],"probe_pitches":[2,4,11,6,9,2,4,9],"shifted_pitches":[2,4,11,6,10,2,4,9],"swapped_pitches":[2,4,11,9,6,2,4,9],"shift_direction":1,"question_num":11,"has_decoy":false},{"rt":53.3999999910593,"stimulus":"[A] option 1, [L] option 2, [G] neither","key_press":76,"name":"choice","trial_type":"html-keyboard-response","trial_index":32,"time_elapsed":44335,"internal_node_id":"0.0-32.0","subject":"S1C0823","sona":"39889","block":3,"time":"2021-09-17T00:57:20.973Z","response":"2nd","certainty":"high","char":"L","transposition":-2,"order":["swapped","shifted"],"probe_pitches":[3,8,1,3,-1,6,8,-1],"shifted_pitches":[3,8,1,3,-2,6,8,-1],"swapped_pitches":[3,8,1,-1,3,6,8,-1],"shift_direction":-1,"question_num":21,"has_decoy":false},{"rt":2154.2999999970198,"stimulus":"[A] option 1, [L] option 2, [G] neither","key_press":65,"name":"choice","trial_type":"html-keyboard-response","trial_index":43,"time_elapsed":60532,"internal_node_id":"0.0-43.0","subject":"S1C0823","sona":"39889","block":3,"time":"2021-09-17T00:57:20.973Z","response":"1st","certainty":"high","char":"A","transposition":-3,"order":["swapped","shifted"],"probe_pitches":[9,4,-1,6,11,1,11,4],"shifted_pitches":[9,4,-1,7,11,1,11,4],"swapped_pitches":[9,4,-1,11,6,1,11,4],"shift_direction":1,"question_num":31,"has_decoy":false},{"rt":12.299999997019768,"stimulus":"[A] option 1, [L] option 2, [G] neither","key_press":76,"name":"choice","trial_type":"html-keyboard-response","trial_index":54,"time_elapsed":74613,"internal_node_id":"0.0-54.0","subject":"S1C0823","sona":"39889","block":3,"time":"2021-09-17T00:57:20.973Z","response":"2nd","certainty":"high","char":"L","transposition":0,"order":["shifted","swapped"],"probe_pitches":[2,3,10,11,7,12,2,5],"shifted_pitches":[2,3,10,11,6,12,2,5],"swapped_pitches":[2,3,10,7,11,12,2,5],"shift_direction":-1,"question_num":41,"has_decoy":false},{"rt":775.5999999940395,"stimulus":"[A] option 1, [L] option 2, [G] neither","key_press":65,"name":"choice","trial_type":"html-keyboard-response","trial_index":65,"time_elapsed":89547,"internal_node_id":"0.0-65.0","subject":"S1C0823","sona":"39889","block":3,"time":"2021-09-17T00:57:20.973Z","response":"1st","certainty":"high","char":"A","transposition":1,"order":["swapped","shifted"],"probe_pitches":[11,13,11,3,2,12,6,7],"shifted_pitches":[11,13,11,4,2,12,6,7],"swapped_pitches":[11,13,11,2,3,12,6,7],"shift_direction":1,"question_num":51,"has_decoy":false},{"rt":3.3999999910593033,"stimulus":"[A] option 1, [L] option 2, [G] neither","key_press":76,"name":"choice","trial_type":"html-keyboard-response","trial_index":76,"time_elapsed":103623,"internal_node_id":"0.0-76.0","subject":"S1C0823","sona":"39889","block":3,"time":"2021-09-17T00:57:20.973Z","response":"2nd","certainty":"high","char":"L","transposition":-2,"order":["shifted","swapped"],"probe_pitches":[9,6,-1,1,4,11,4,1],"shifted_pitches":[9,6,-1,2,4,11,4,1],"swapped_pitches":[9,6,-1,4,1,11,4,1],"shift_direction":1,"question_num":61,"has_decoy":false},{"rt":399.40000000596046,"stimulus":"[A] option 1, [L] option 2, [G] neither","key_press":76,"name":"choice","trial_type":"html-keyboard-response","trial_index":87,"time_elapsed":120744,"internal_node_id":"0.0-87.0","subject":"S1C0823","sona":"39889","block":3,"time":"2021-09-17T00:57:20.973Z","response":"2nd","certainty":"high","char":"L","transposition":-1,"order":["shifted","swapped"],"probe_pitches":[6,3,-1,1,8,6,1,6],"shifted_pitches":[6,3,-1,0,8,6,1,6],"swapped_pitches":[6,3,-1,8,1,6,1,6],"shift_direction":-1,"question_num":71,"has_decoy":false},{"rt":67.09999999403954,"stimulus":"[A] option 1, [L] option 2, [G] neither","key_press":76,"name":"choice","trial_type":"html-keyboard-response","trial_index":98,"time_elapsed":134854,"internal_node_id":"0.0-98.0","subject":"S1C0823","sona":"39889","block":3,"time":"2021-09-17T00:57:20.973Z","response":"2nd","certainty":"high","char":"L","transposition":1,"order":["swapped","shifted"],"probe_pitches":[4,2,9,7,4,9,7,11],"shifted_pitches":[4,2,9,7,5,9,7,11],"swapped_pitches":[4,2,9,4,7,9,7,11],"shift_direction":1,"question_num":81,"has_decoy":false},{"rt":332.30000001192093,"stimulus":"[A] option 1, [L] option 2, [G] neither","key_press":65,"name":"choice","trial_type":"html-keyboard-response","trial_index":109,"time_elapsed":149274,"internal_node_id":"0.0-109.0","subject":"S1C0823","sona":"39889","block":3,"time":"2021-09-17T00:57:20.973Z","response":"1st","certainty":"high","char":"A","transposition":-3,"order":["swapped","shifted"],"probe_pitches":[12,8,5,9,4,2,11,8],"shifted_pitches":[12,8,5,10,4,2,11,8],"swapped_pitches":[12,8,5,4,9,2,11,8],"shift_direction":1,"question_num":91,"has_decoy":false},{"rt":2579.800000011921,"stimulus":"[A] option 1, [L] option 2, [G] neither","key_press":65,"name":"choice","trial_type":"html-keyboard-response","trial_index":120,"time_elapsed":165889,"internal_node_id":"0.0-120.0","subject":"S1C0823","sona":"39889","block":3,"time":"2021-09-17T00:57:20.973Z","response":"1st","certainty":"high","char":"A","transposition":2,"order":["swapped","shifted"],"probe_pitches":[11,14,11,6,14,8,2,4],"shifted_pitches":[11,14,11,7,14,8,2,4],"swapped_pitches":[11,14,11,14,6,8,2,4],"shift_direction":1,"question_num":101,"has_decoy":false},{"rt":1962.5999999940395,"stimulus":"[A] option 1, [L] option 2, [G] neither","key_press":65,"name":"choice","trial_type":"html-keyboard-response","trial_index":131,"time_elapsed":181869,"internal_node_id":"0.0-131.0","subject":"S1C0823","sona":"39889","block":3,"time":"2021-09-17T00:57:20.973Z","response":"1st","certainty":"high","char":"A","transposition":-1,"order":["shifted","swapped"],"probe_pitches":[11,9,2,6,-1,9,4,9],"shifted_pitches":[11,9,2,6,-2,9,4,9],"swapped_pitches":[11,9,2,-1,6,9,4,9],"shift_direction":-1,"question_num":111,"has_decoy":false},{"rt":1028.5,"stimulus":"[A] option 1, [L] option 2, [G] neither","key_press":76,"name":"choice","trial_type":"html-keyboard-response","trial_index":142,"time_elapsed":196930,"internal_node_id":"0.0-142.0","subject":"S1C0823","sona":"39889","block":3,"time":"2021-09-17T00:57:20.973Z","response":"2nd","certainty":"high","char":"L","transposition":-1,"order":["shifted","swapped"],"probe_pitches":[6,5,8,4,10,5,4,13],"shifted_pitches":[6,5,8,4,11,5,4,13],"swapped_pitches":[6,5,8,10,4,5,4,13],"shift_direction":1,"question_num":121,"has_decoy":false},{"rt":853.0999999940395,"stimulus":"[A] option 1, [L] option 2, [G] neither","key_press":65,"name":"choice","trial_type":"html-keyboard-response","trial_index":153,"time_elapsed":211916,"internal_node_id":"0.0-153.0","subject":"S1C0823","sona":"39889","block":3,"time":"2021-09-17T00:57:20.973Z","response":"1st","certainty":"high","char":"A","transposition":-2,"order":["swapped","shifted"],"probe_pitches":[4,6,3,9,12,5,10,11],"shifted_pitches":[4,6,3,8,12,5,10,11],"swapped_pitches":[4,6,3,12,9,5,10,11],"shift_direction":-1,"question_num":131,"has_decoy":false},{"rt":325.69999998807907,"stimulus":"[A] option 1, [L] option 2, [G] neither","key_press":76,"name":"choice","trial_type":"html-keyboard-response","trial_index":164,"time_elapsed":226301,"internal_node_id":"0.0-164.0","subject":"S1C0823","sona":"39889","block":3,"time":"2021-09-17T00:57:20.973Z","response":"2nd","certainty":"high","char":"L","transposition":-3,"order":["shifted","swapped"],"probe_pitches":[10,6,12,6,14,7,3,8],"shifted_pitches":[10,6,12,6,13,7,3,8],"swapped_pitches":[10,6,12,14,6,7,3,8],"shift_direction":-1,"question_num":141,"has_decoy":false},{"rt":998.7000000029802,"stimulus":"[A] option 1, [L] option 2, [G] neither","key_press":65,"name":"choice","trial_type":"html-keyboard-response","trial_index":175,"time_elapsed":241427,"internal_node_id":"0.0-175.0","subject":"S1C0823","sona":"39889","block":3,"time":"2021-09-17T00:57:20.973Z","response":"1st","certainty":"high","char":"A","transposition":-3,"order":["shifted","swapped"],"probe_pitches":[-1,4,11,9,2,11,7,-1],"shifted_pitches":[-1,4,11,9,1,11,7,-1],"swapped_pitches":[-1,4,11,2,9,11,7,-1],"shift_direction":-1,"question_num":151,"has_decoy":false},{"rt":1109.5,"stimulus":"[A] option 1, [L] option 2, [G] neither","key_press":76,"name":"choice","trial_type":"html-keyboard-response","trial_index":186,"time_elapsed":256685,"internal_node_id":"0.0-186.0","subject":"S1C0823","sona":"39889","block":3,"time":"2021-09-17T00:57:20.973Z","response":"2nd","certainty":"high","char":"L","transposition":0,"order":["swapped","shifted"],"probe_pitches":[4,-1,6,-1,1,8,6,1],"shifted_pitches":[4,-1,6,-2,1,8,6,1],"swapped_pitches":[4,-1,6,1,-1,8,6,1],"shift_direction":-1,"question_num":161,"has_decoy":false},{"rt":1923.9000000059605,"stimulus":"[A] option 1, [L] option 2, [G] neither","key_press":76,"name":"choice","trial_type":"html-keyboard-response","trial_index":197,"time_elapsed":272757,"internal_node_id":"0.0-197.0","subject":"S1C0823","sona":"39889","block":3,"time":"2021-09-17T00:57:20.973Z","response":"2nd","certainty":"high","char":"L","transposition":-1,"order":["shifted","swapped"],"probe_pitches":[2,8,6,4,8,3,11,4],"shifted_pitches":[2,8,6,4,9,3,11,4],"swapped_pitches":[2,8,6,8,4,3,11,4],"shift_direction":1,"question_num":171,"has_decoy":false},{"rt":0.20000000298023224,"stimulus":"[A] option 1, [L] option 2, [G] neither","key_press":65,"name":"choice","trial_type":"html-keyboard-response","trial_index":208,"time_elapsed":286779,"internal_node_id":"0.0-208.0","subject":"S1C0823","sona":"39889","block":3,"time":"2021-09-17T00:57:20.973Z","response":"1st","certainty":"high","char":"A","transposition":2,"order":["shifted","swapped"],"probe_pitches":[-1,4,8,1,-1,6,-1,6],"shifted_pitches":[-1,4,8,2,-1,6,-1,6],"swapped_pitches":[-1,4,8,-1,1,6,-1,6],"shift_direction":1,"question_num":181,"has_decoy":false},{"rt":0.20000000298023224,"stimulus":"[A] option 1, [L] option 2, [G] neither","key_press":76,"name":"choice","trial_type":"html-keyboard-response","trial_index":219,"time_elapsed":300875,"internal_node_id":"0.0-219.0","subject":"S1C0823","sona":"39889","block":3,"time":"2021-09-17T00:57:20.973Z","response":"2nd","certainty":"high","char":"L","transposition":-2,"order":["swapped","shifted"],"probe_pitches":[3,5,2,4,13,6,5,13],"shifted_pitches":[3,5,2,4,12,6,5,13],"swapped_pitches":[3,5,2,13,4,6,5,13],"shift_direction":-1,"question_num":191,"has_decoy":false}]