[{"rt":1083.9000000059605,"stimulus":"[A] option 1, [L] option 2, [G] neither","key_press":65,"name":"choice","trial_type":"html-keyboard-response","trial_index":10,"time_elapsed":15623,"internal_node_id":"0.0-10.0","subject":"S1C0823","sona":"39889","block":6,"time":"2021-09-17T01:12:57.501Z","response":"1st","certainty":"high","char":"A","transposition":-1,"order":["shifted","swapped"],"probe_pitches":[9,7,0,4,9,7,0,2],"shifted_pitches":[9,7,0,4,10,7,0,2],"swapped_pitches":[9,7,0,9,4,7,0,2],"shift_direction":1,"question_num":1,"has_decoy":false},{"rt":1264.5999999940395,"stimulus":"[A] option 1, [L] option 2, [G] neither","key_press":65,"name":"choice","trial_type":"html-keyboard-response","trial_index":21,"time_elapsed":30961,"internal_node_id":"0.0-21.0","subject":"S1C0823","sona":"39889","block":6,"time":"2021-09-17T01:12:57.501Z","response":"1st","certainty":"high","char":"A","transposition":2,"order":["shifted","swapped"],"probe_pitches":[9,10,8,10,6,3,10,12],"shifted_pitches":[9,10,8,10,7,3,10,12],"swapped_pitches":[9,10,8,6,10,3,10,12],"shift_direction":1,"question_num":11,"has_decoy":false},{"rt":648.8999999910593,"stimulus":"[A] option 1, [L] option 2, [G] neither","key_press":65,"name":"choice","trial_type":"html-keyboard-response","trial_index":32,"time_elapsed":45647,"internal_node_id":"0.0-32.0","subject":"S1C0823","sona":"39889","block":6,"time":"2021-09-17T01:12:57.501Z","response":"1st","certainty":"high","char":"A","transposition":-3,"order":["swapped","shifted"],"probe_pitches":[12,13,12,11,7,12,7,5],"shifted_pitches":[12,13,12,10,7,12,7,5],"swapped_pitches":[12,13,12,7,11,12,7,5],"shift_direction":-1,"question_num":21,"has_decoy":false},{"rt":961.0999999940395,"stimulus":"[A] option 1, [L] option 2, [G] neither","key_press":65,"name":"choice","trial_type":"html-keyboard-response","trial_index":43,"time_elapsed":60711,"internal_node_id":"0.0-43.0","subject":"S1C0823","sona":"39889","block":6,"time":"2021-09-17T01:12:57.501Z","response":"1st","certainty":"high","char":"A","transposition":-3,"order":["shifted","swapped"],"probe_pitches":[0,5,3,0,5,10,8,0],"shifted_pitches":[0,5,3,1,5,10,8,0],"swapped_pitches":[0,5,3,5,0,10,8,0],"shift_direction":1,"question_num":31,"has_decoy":false},{"rt":1684.300000011921,"stimulus":"[A] option 1, [L] option 2, [G] neither","key_press":76,"name":"choice","trial_type":"html-keyboard-response","trial_index":54,"time_elapsed":77423,"internal_node_id":"0.0-54.0","subject":"S1C0823","sona":"39889","block":6,"time":"2021-09-17T01:12:57.501Z","response":"2nd","certainty":"high","char":"L","transposition":-3,"order":["shifted","swapped"],"probe_pitches":[1,4,7,5,10,3,12,9],"shifted_pitches":[1,4,7,6,10,3,12,9],"swapped_pitches":[1,4,7,10,5,3,12,9],"shift_direction":1,"question_num":41,"has_decoy":false},{"rt":1215.9000000059605,"stimulus":"[A] option 1, [L] option 2, [G] neither","key_press":76,"name":"choice","trial_type":"html-keyboard-response","trial_index":65,"time_elapsed":92773,"internal_node_id":"0.0-65.0","subject":"S1C0823","sona":"39889","block":6,"time":"2021-09-17T01:12:57.501Z","response":"2nd","certainty":"high","char":"L","transposition":-1,"order":["swapped","shifted"],"probe_pitches":[5,2,9,5,12,7,12,5],"shifted_pitches":[5,2,9,5,11,7,12,5],"swapped_pitches":[5,2,9,12,5,7,12,5],"shift_direction":-1,"question_num":51,"has_decoy":false},{"rt":414,"stimulus":"[A] option 1, [L] option 2, [G] neither","key_press":65,"name":"choice","trial_type":"html-keyboard-response","trial_index":76,"time_elapsed":107337,"internal_node_id":"0.0-76.0","subject":"S1C0823","sona":"39889","block":6,"time":"2021-09-17T01:12:57.501Z","response":"1st","certainty":"high","char":"A","transposition":1,"order":["swapped","shifted"],"probe_pitches":[5,10,5,3,0,8,10,8],"shifted_pitches":[5,10,5,4,0,8,10,8],"swapped_pitches":[5,10,5,0,3,8,10,8],"shift_direction":1,"question_num":61,"has_decoy":false},{"rt":1341.7000000029802,"stimulus":"[A] option 1, [L] option 2, [G] neither","key_press":76,"name":"choice","trial_type":"html-keyboard-response","trial_index":87,"time_elapsed":122776,"internal_node_id":"0.0-87.0","subject":"S1C0823","sona":"39889","block":6,"time":"2021-09-17T01:12:57.501Z","response":"2nd","certainty":"high","char":"L","transposition":-2,"order":["swapped","shifted"],"probe_pitches":[7,9,13,9,7,1,10,13],"shifted_pitches":[7,9,13,8,7,1,10,13],"swapped_pitches":[7,9,13,7,9,1,10,13],"shift_direction":-1,"question_num":71,"has_decoy":false},{"rt":1429.6000000089407,"stimulus":"[A] option 1, [L] option 2, [G] neither","key_press":65,"name":"choice","trial_type":"html-keyboard-response","trial_index":98,"time_elapsed":138250,"internal_node_id":"0.0-98.0","subject":"S1C0823","sona":"39889","block":6,"time":"2021-09-17T01:12:57.501Z","response":"1st","certainty":"high","char":"A","transposition":0,"order":["swapped","shifted"],"probe_pitches":[8,6,7,8,2,3,2,3],"shifted_pitches":[8,6,7,9,2,3,2,3],"swapped_pitches":[8,6,7,2,8,3,2,3],"shift_direction":1,"question_num":81,"has_decoy":false},{"rt":404.90000000596046,"stimulus":"[A] option 1, [L] option 2, [G] neither","key_press":76,"name":"choice","trial_type":"html-keyboard-response","trial_index":109,"time_elapsed":152729,"internal_node_id":"0.0-109.0","subject":"S1C0823","sona":"39889","block":6,"time":"2021-09-17T01:12:57.501Z","response":"2nd","certainty":"high","char":"L","transposition":2,"order":["shifted","swapped"],"probe_pitches":[2,7,10,12,5,10,12,2],"shifted_pitches":[2,7,10,12,4,10,12,2],"swapped_pitches":[2,7,10,5,12,10,12,2],"shift_direction":-1,"question_num":91,"has_decoy":false},{"rt":1183.7999999970198,"stimulus":"[A] option 1, [L] option 2, [G] neither","key_press":65,"name":"choice","trial_type":"html-keyboard-response","trial_index":120,"time_elapsed":168004,"internal_node_id":"0.0-120.0","subject":"S1C0823","sona":"39889","block":6,"time":"2021-09-17T01:12:57.501Z","response":"1st","certainty":"high","char":"A","transposition":1,"order":["swapped","shifted"],"probe_pitches":[11,6,9,5,2,7,1,4],"shifted_pitches":[11,6,9,5,3,7,1,4],"swapped_pitches":[11,6,9,2,5,7,1,4],"shift_direction":1,"question_num":101,"has_decoy":false},{"rt":1764.2999999970198,"stimulus":"[A] option 1, [L] option 2, [G] neither","key_press":76,"name":"choice","trial_type":"html-keyboard-response","trial_index":131,"time_elapsed":183902,"internal_node_id":"0.0-131.0","subject":"S1C0823","sona":"39889","block":6,"time":"2021-09-17T01:12:57.501Z","response":"2nd","certainty":"high","char":"L","transposition":-1,"order":["shifted","swapped"],"probe_pitches":[7,5,7,2,5,6,5,12],"shifted_pitches":[7,5,7,2,4,6,5,12],"swapped_pitches":[7,5,7,5,2,6,5,12],"shift_direction":-1,"question_num":111,"has_decoy":false},{"rt":1076.8999999910593,"stimulus":"[A] option 1, [L] option 2, [G] neither","key_press":65,"name":"choice","trial_type":"html-keyboard-response","trial_index":142,"time_elapsed":199118,"internal_node_id":"0.0-142.0","subject":"S1C0823","sona":"39889","block":6,"time":"2021-09-17T01:12:57.501Z","response":"1st","certainty":"high","char":"A","transposition":-2,"order":["shifted","swapped"],"probe_pitches":[4,7,8,9,12,5,13,3],"shifted_pitches":[4,7,8,9,11,5,13,3],"swapped_pitches":[4,7,8,12,9,5,13,3],"shift_direction":-1,"question_num":121,"has_decoy":false},{"rt":163.69999998807907,"stimulus":"[A] option 1, [L] option 2, [G] neither","key_press":76,"name":"choice","trial_type":"html-keyboard-response","trial_index":153,"time_elapsed":213345,"internal_node_id":"0.0-153.0","subject":"S1C0823","sona":"39889","block":6,"time":"2021-09-17T01:12:57.501Z","response":"2nd","certainty":"high","char":"L","transposition":-2,"order":["swapped","shifted"],"probe_pitches":[0,3,0,5,3,12,10,7],"shifted_pitches":[0,3,0,5,2,12,10,7],"swapped_pitches":[0,3,0,3,5,12,10,7],"shift_direction":-1,"question_num":131,"has_decoy":false},{"rt":2322.0999999940395,"stimulus":"[A] option 1, [L] option 2, [G] neither","key_press":65,"name":"choice","trial_type":"html-keyboard-response","trial_index":164,"time_elapsed":231158,"internal_node_id":"0.0-164.0","subject":"S1C0823","sona":"39889","block":6,"time":"2021-09-17T01:12:57.501Z","response":"1st","certainty":"high","char":"A","transposition":0,"order":["shifted","swapped"],"probe_pitches":[7,12,9,7,2,0,4,2],"shifted_pitches":[7,12,9,8,2,0,4,2],"swapped_pitches":[7,12,9,2,7,0,4,2],"shift_direction":1,"question_num":141,"has_decoy":false},{"rt":53.900000005960464,"stimulus":"[A] option 1, [L] option 2, [G] neither","key_press":76,"name":"choice","trial_type":"html-keyboard-response","trial_index":175,"time_elapsed":245289,"internal_node_id":"0.0-175.0","subject":"S1C0823","sona":"39889","block":6,"time":"2021-09-17T01:12:57.501Z","response":"2nd","certainty":"high","char":"L","transposition":-3,"order":["swapped","shifted"],"probe_pitches":[0,5,2,7,10,5,7,2],"shifted_pitches":[0,5,2,7,9,5,7,2],"swapped_pitches":[0,5,2,10,7,5,7,2],"shift_direction":-1,"question_num":151,"has_decoy":false},{"rt":574,"stimulus":"[A] option 1, [L] option 2, [G] neither","key_press":65,"name":"choice","trial_type":"html-keyboard-response","trial_index":186,"time_elapsed":259921,"internal_node_id":"0.0-186.0","subject":"S1C0823","sona":"39889","block":6,"time":"2021-09-17T01:12:57.501Z","response":"1st","certainty":"high","char":"A","transposition":-2,"order":["shifted","swapped"],"probe_pitches":[3,7,12,10,7,12,7,5],"shifted_pitches":[3,7,12,11,7,12,7,5],"swapped_pitches":[3,7,12,7,10,12,7,5],"shift_direction":1,"question_num":161,"has_decoy":false},{"rt":650.1000000089407,"stimulus":"[A] option 1, [L] option 2, [G] neither","key_press":76,"name":"choice","trial_type":"html-keyboard-response","trial_index":197,"time_elapsed":274627,"internal_node_id":"0.0-197.0","subject":"S1C0823","sona":"39889","block":6,"time":"2021-09-17T01:12:57.501Z","response":"2nd","certainty":"high","char":"L","transposition":-1,"order":["shifted","swapped"],"probe_pitches":[2,7,11,8,13,9,1,3],"shifted_pitches":[2,7,11,8,12,9,1,3],"swapped_pitches":[2,7,11,13,8,9,1,3],"shift_direction":-1,"question_num":171,"has_decoy":false},{"rt":3310.9000000059605,"stimulus":"[A] option 1, [L] option 2, [G] neither","key_press":76,"name":"choice","trial_type":"html-keyboard-response","trial_index":208,"time_elapsed":292076,"internal_node_id":"0.0-208.0","subject":"S1C0823","sona":"39889","block":6,"time":"2021-09-17T01:12:57.501Z","response":"2nd","certainty":"high","char":"L","transposition":3,"order":["swapped","shifted"],"probe_pitches":[4,1,8,4,9,1,7,8],"shifted_pitches":[4,1,8,5,9,1,7,8],"swapped_pitches":[4,1,8,9,4,1,7,8],"shift_direction":1,"question_num":181,"has_decoy":false},{"rt":2368.9000000059605,"stimulus":"[A] option 1, [L] option 2, [G] neither","key_press":65,"name":"choice","trial_type":"html-keyboard-response","trial_index":219,"time_elapsed":309369,"internal_node_id":"0.0-219.0","subject":"S1C0823","sona":"39889","block":6,"time":"2021-09-17T01:12:57.501Z","response":"1st","certainty":"high","char":"A","transposition":3,"order":["swapped","shifted"],"probe_pitches":[0,2,7,5,12,7,9,0],"shifted_pitches":[0,2,7,4,12,7,9,0],"swapped_pitches":[0,2,7,12,5,7,9,0],"shift_direction":-1,"question_num":191,"has_decoy":false}]