[{"rt":1180.4000000059605,"stimulus":"[A] option 1, [L] option 2, [G] neither","key_press":65,"name":"choice","trial_type":"html-keyboard-response","trial_index":10,"time_elapsed":15230,"internal_node_id":"0.0-10.0","subject":"S1C0823","sona":"39889","block":5,"time":"2021-09-17T01:07:45.758Z","response":"1st","certainty":"high","char":"A","transposition":-3,"order":["swapped","shifted"],"probe_pitches":[6,4,1,9,6,8,4,5],"shifted_pitches":[6,4,1,9,7,8,4,5],"swapped_pitches":[6,4,1,6,9,8,4,5],"shift_direction":1,"question_num":1,"has_decoy":false},{"rt":1350.4000000059605,"stimulus":"[A] option 1, [L] option 2, [G] neither","key_press":65,"name":"choice","trial_type":"html-keyboard-response","trial_index":21,"time_elapsed":30674,"internal_node_id":"0.0-21.0","subject":"S1C0823","sona":"39889","block":5,"time":"2021-09-17T01:07:45.758Z","response":"1st","certainty":"high","char":"A","transposition":-1,"order":["shifted","swapped"],"probe_pitches":[10,7,2,-1,4,9,7,10],"shifted_pitches":[10,7,2,-1,5,9,7,10],"swapped_pitches":[10,7,2,4,-1,9,7,10],"shift_direction":1,"question_num":11,"has_decoy":false},{"rt":2393.2999999970198,"stimulus":"[A] option 1, [L] option 2, [G] neither","key_press":76,"name":"choice","trial_type":"html-keyboard-response","trial_index":32,"time_elapsed":47220,"internal_node_id":"0.0-32.0","subject":"S1C0823","sona":"39889","block":5,"time":"2021-09-17T01:07:45.758Z","response":"2nd","certainty":"high","char":"L","transposition":0,"order":["swapped","shifted"],"probe_pitches":[10,5,8,1,3,10,13,5],"shifted_pitches":[10,5,8,1,2,10,13,5],"swapped_pitches":[10,5,8,3,1,10,13,5],"shift_direction":-1,"question_num":21,"has_decoy":false},{"rt":1638.0999999940395,"stimulus":"[A] option 1, [L] option 2, [G] neither","key_press":65,"name":"choice","trial_type":"html-keyboard-response","trial_index":43,"time_elapsed":62950,"internal_node_id":"0.0-43.0","subject":"S1C0823","sona":"39889","block":5,"time":"2021-09-17T01:07:45.758Z","response":"1st","certainty":"high","char":"A","transposition":-1,"order":["swapped","shifted"],"probe_pitches":[8,11,6,13,8,1,3,1],"shifted_pitches":[8,11,6,14,8,1,3,1],"swapped_pitches":[8,11,6,8,13,1,3,1],"shift_direction":1,"question_num":31,"has_decoy":false},{"rt":1718,"stimulus":"[A] option 1, [L] option 2, [G] neither","key_press":65,"name":"choice","trial_type":"html-keyboard-response","trial_index":54,"time_elapsed":78720,"internal_node_id":"0.0-54.0","subject":"S1C0823","sona":"39889","block":5,"time":"2021-09-17T01:07:45.758Z","response":"1st","certainty":"high","char":"A","transposition":-3,"order":["shifted","swapped"],"probe_pitches":[4,8,11,13,4,6,8,13],"shifted_pitches":[4,8,11,13,3,6,8,13],"swapped_pitches":[4,8,11,4,13,6,8,13],"shift_direction":-1,"question_num":41,"has_decoy":false},{"rt":0.6000000089406967,"stimulus":"[A] option 1, [L] option 2, [G] neither","key_press":76,"name":"choice","trial_type":"html-keyboard-response","trial_index":65,"time_elapsed":92885,"internal_node_id":"0.0-65.0","subject":"S1C0823","sona":"39889","block":5,"time":"2021-09-17T01:07:45.758Z","response":"2nd","certainty":"high","char":"L","transposition":-2,"order":["shifted","swapped"],"probe_pitches":[1,5,10,8,13,3,1,5],"shifted_pitches":[1,5,10,8,12,3,1,5],"swapped_pitches":[1,5,10,13,8,3,1,5],"shift_direction":-1,"question_num":51,"has_decoy":false},{"rt":122.90000000596046,"stimulus":"[A] option 1, [L] option 2, [G] neither","key_press":65,"name":"choice","trial_type":"html-keyboard-response","trial_index":76,"time_elapsed":107045,"internal_node_id":"0.0-76.0","subject":"S1C0823","sona":"39889","block":5,"time":"2021-09-17T01:07:45.758Z","response":"1st","certainty":"high","char":"A","transposition":3,"order":["shifted","swapped"],"probe_pitches":[8,10,3,8,6,1,10,8],"shifted_pitches":[8,10,3,9,6,1,10,8],"swapped_pitches":[8,10,3,6,8,1,10,8],"shift_direction":1,"question_num":61,"has_decoy":false},{"rt":111.5,"stimulus":"[A] option 1, [L] option 2, [G] neither","key_press":65,"name":"choice","trial_type":"html-keyboard-response","trial_index":87,"time_elapsed":121188,"internal_node_id":"0.0-87.0","subject":"S1C0823","sona":"39889","block":5,"time":"2021-09-17T01:07:45.758Z","response":"1st","certainty":"high","char":"A","transposition":-2,"order":["swapped","shifted"],"probe_pitches":[6,4,6,2,4,8,9,4],"shifted_pitches":[6,4,6,2,3,8,9,4],"swapped_pitches":[6,4,6,4,2,8,9,4],"shift_direction":-1,"question_num":71,"has_decoy":false},{"rt":2881.6000000089407,"stimulus":"[A] option 1, [L] option 2, [G] neither","key_press":65,"name":"choice","trial_type":"html-keyboard-response","trial_index":98,"time_elapsed":143089,"internal_node_id":"0.0-98.0","subject":"S1C0823","sona":"39889","block":5,"time":"2021-09-17T01:07:45.758Z","response":"1st","certainty":"high","char":"A","transposition":-2,"order":["swapped","shifted"],"probe_pitches":[9,6,8,10,1,0,4,1],"shifted_pitches":[9,6,8,10,2,0,4,1],"swapped_pitches":[9,6,8,1,10,0,4,1],"shift_direction":1,"question_num":81,"has_decoy":false},{"rt":353.09999999403954,"stimulus":"[A] option 1, [L] option 2, [G] neither","key_press":65,"name":"choice","trial_type":"html-keyboard-response","trial_index":109,"time_elapsed":157552,"internal_node_id":"0.0-109.0","subject":"S1C0823","sona":"39889","block":5,"time":"2021-09-17T01:07:45.758Z","response":"1st","certainty":"high","char":"A","transposition":1,"order":["shifted","swapped"],"probe_pitches":[9,5,6,5,1,6,10,-2],"shifted_pitches":[9,5,6,4,1,6,10,-2],"swapped_pitches":[9,5,6,1,5,6,10,-2],"shift_direction":-1,"question_num":91,"has_decoy":false},{"rt":1832,"stimulus":"[A] option 1, [L] option 2, [G] neither","key_press":76,"name":"choice","trial_type":"html-keyboard-response","trial_index":120,"time_elapsed":173457,"internal_node_id":"0.0-120.0","subject":"S1C0823","sona":"39889","block":5,"time":"2021-09-17T01:07:45.758Z","response":"2nd","certainty":"high","char":"L","transposition":-3,"order":["swapped","shifted"],"probe_pitches":[6,4,9,4,1,9,13,11],"shifted_pitches":[6,4,9,4,2,9,13,11],"swapped_pitches":[6,4,9,1,4,9,13,11],"shift_direction":1,"question_num":101,"has_decoy":false},{"rt":1620.3999999910593,"stimulus":"[A] option 1, [L] option 2, [G] neither","key_press":65,"name":"choice","trial_type":"html-keyboard-response","trial_index":131,"time_elapsed":189203,"internal_node_id":"0.0-131.0","subject":"S1C0823","sona":"39889","block":5,"time":"2021-09-17T01:07:45.758Z","response":"1st","certainty":"high","char":"A","transposition":1,"order":["shifted","swapped"],"probe_pitches":[1,6,9,6,4,11,4,6],"shifted_pitches":[1,6,9,7,4,11,4,6],"swapped_pitches":[1,6,9,4,6,11,4,6],"shift_direction":1,"question_num":111,"has_decoy":false},{"rt":1635.7000000029802,"stimulus":"[A] option 1, [L] option 2, [G] neither","key_press":65,"name":"choice","trial_type":"html-keyboard-response","trial_index":142,"time_elapsed":204914,"internal_node_id":"0.0-142.0","subject":"S1C0823","sona":"39889","block":5,"time":"2021-09-17T01:07:45.758Z","response":"1st","certainty":"high","char":"A","transposition":-1,"order":["shifted","swapped"],"probe_pitches":[1,6,10,6,3,8,13,6],"shifted_pitches":[1,6,10,5,3,8,13,6],"swapped_pitches":[1,6,10,3,6,8,13,6],"shift_direction":-1,"question_num":121,"has_decoy":false},{"rt":69.20000000298023,"stimulus":"[A] option 1, [L] option 2, [G] neither","key_press":76,"name":"choice","trial_type":"html-keyboard-response","trial_index":153,"time_elapsed":219011,"internal_node_id":"0.0-153.0","subject":"S1C0823","sona":"39889","block":5,"time":"2021-09-17T01:07:45.758Z","response":"2nd","certainty":"high","char":"L","transposition":2,"order":["swapped","shifted"],"probe_pitches":[4,9,10,7,2,0,5,4],"shifted_pitches":[4,9,10,6,2,0,5,4],"swapped_pitches":[4,9,10,2,7,0,5,4],"shift_direction":-1,"question_num":131,"has_decoy":false},{"rt":764.5,"stimulus":"[A] option 1, [L] option 2, [G] neither","key_press":76,"name":"choice","trial_type":"html-keyboard-response","trial_index":164,"time_elapsed":235184,"internal_node_id":"0.0-164.0","subject":"S1C0823","sona":"39889","block":5,"time":"2021-09-17T01:07:45.758Z","response":"2nd","certainty":"high","char":"L","transposition":-2,"order":["swapped","shifted"],"probe_pitches":[6,11,8,3,11,13,8,3],"shifted_pitches":[6,11,8,4,11,13,8,3],"swapped_pitches":[6,11,8,11,3,13,8,3],"shift_direction":1,"question_num":141,"has_decoy":false},{"rt":1152.2000000029802,"stimulus":"[A] option 1, [L] option 2, [G] neither","key_press":65,"name":"choice","trial_type":"html-keyboard-response","trial_index":175,"time_elapsed":250355,"internal_node_id":"0.0-175.0","subject":"S1C0823","sona":"39889","block":5,"time":"2021-09-17T01:07:45.758Z","response":"1st","certainty":"high","char":"A","transposition":0,"order":["shifted","swapped"],"probe_pitches":[10,6,5,0,9,-1,2,3],"shifted_pitches":[10,6,5,0,8,-1,2,3],"swapped_pitches":[10,6,5,9,0,-1,2,3],"shift_direction":-1,"question_num":151,"has_decoy":false},{"rt":868,"stimulus":"[A] option 1, [L] option 2, [G] neither","key_press":76,"name":"choice","trial_type":"html-keyboard-response","trial_index":186,"time_elapsed":265250,"internal_node_id":"0.0-186.0","subject":"S1C0823","sona":"39889","block":5,"time":"2021-09-17T01:07:45.758Z","response":"2nd","certainty":"high","char":"L","transposition":3,"order":["swapped","shifted"],"probe_pitches":[8,2,5,8,-1,4,8,2],"shifted_pitches":[8,2,5,9,-1,4,8,2],"swapped_pitches":[8,2,5,-1,8,4,8,2],"shift_direction":1,"question_num":161,"has_decoy":false},{"rt":1567.5,"stimulus":"[A] option 1, [L] option 2, [G] neither","key_press":76,"name":"choice","trial_type":"html-keyboard-response","trial_index":197,"time_elapsed":280850,"internal_node_id":"0.0-197.0","subject":"S1C0823","sona":"39889","block":5,"time":"2021-09-17T01:07:45.758Z","response":"2nd","certainty":"high","char":"L","transposition":-1,"order":["shifted","swapped"],"probe_pitches":[5,6,5,1,6,3,1,8],"shifted_pitches":[5,6,5,0,6,3,1,8],"swapped_pitches":[5,6,5,6,1,3,1,8],"shift_direction":-1,"question_num":171,"has_decoy":false},{"rt":633.2000000029802,"stimulus":"[A] option 1, [L] option 2, [G] neither","key_press":65,"name":"choice","trial_type":"html-keyboard-response","trial_index":208,"time_elapsed":295510,"internal_node_id":"0.0-208.0","subject":"S1C0823","sona":"39889","block":5,"time":"2021-09-17T01:07:45.758Z","response":"1st","certainty":"high","char":"A","transposition":2,"order":["swapped","shifted"],"probe_pitches":[11,13,6,1,8,4,8,1],"shifted_pitches":[11,13,6,1,7,4,8,1],"swapped_pitches":[11,13,6,8,1,4,8,1],"shift_direction":-1,"question_num":181,"has_decoy":false},{"rt":1174.2999999970198,"stimulus":"[A] option 1, [L] option 2, [G] neither","key_press":65,"name":"choice","trial_type":"html-keyboard-response","trial_index":219,"time_elapsed":310836,"internal_node_id":"0.0-219.0","subject":"S1C0823","sona":"39889","block":5,"time":"2021-09-17T01:07:45.758Z","response":"1st","certainty":"high","char":"A","transposition":-3,"order":["shifted","swapped"],"probe_pitches":[2,7,5,0,-2,4,-2,0],"shifted_pitches":[2,7,5,1,-2,4,-2,0],"swapped_pitches":[2,7,5,-2,0,4,-2,0],"shift_direction":1,"question_num":191,"has_decoy":false}]