[{"rt":449.90000000596046,"stimulus":"[A] option 1, [L] option 2, [G] neither","key_press":65,"name":"choice","trial_type":"html-keyboard-response","trial_index":10,"time_elapsed":14946,"internal_node_id":"0.0-10.0","subject":"S1C0823","sona":"39889","block":2,"time":"2021-09-17T00:52:17.918Z","response":"1st","certainty":"high","char":"A","transposition":0,"order":["swapped","shifted"],"probe_pitches":[8,4,0,1,6,-1,-2,1],"shifted_pitches":[8,4,0,2,6,-1,-2,1],"swapped_pitches":[8,4,0,6,1,-1,-2,1],"shift_direction":1,"question_num":1,"has_decoy":false},{"rt":2099.2999999970198,"stimulus":"[A] option 1, [L] option 2, [G] neither","key_press":76,"name":"choice","trial_type":"html-keyboard-response","trial_index":21,"time_elapsed":31102,"internal_node_id":"0.0-21.0","subject":"S1C0823","sona":"39889","block":2,"time":"2021-09-17T00:52:17.918Z","response":"2nd","certainty":"high","char":"L","transposition":1,"order":["shifted","swapped"],"probe_pitches":[2,7,0,5,-2,6,3,2],"shifted_pitches":[2,7,0,4,-2,6,3,2],"swapped_pitches":[2,7,0,-2,5,6,3,2],"shift_direction":-1,"question_num":11,"has_decoy":false},{"rt":140.5,"stimulus":"[A] option 1, [L] option 2, [G] neither","key_press":76,"name":"choice","trial_type":"html-keyboard-response","trial_index":32,"time_elapsed":45339,"internal_node_id":"0.0-32.0","subject":"S1C0823","sona":"39889","block":2,"time":"2021-09-17T00:52:17.918Z","response":"2nd","certainty":"high","char":"L","transposition":-3,"order":["shifted","swapped"],"probe_pitches":[6,10,6,8,10,15,13,8],"shifted_pitches":[6,10,6,8,9,15,13,8],"swapped_pitches":[6,10,6,10,8,15,13,8],"shift_direction":-1,"question_num":21,"has_decoy":false},{"rt":386.5,"stimulus":"[A] option 1, [L] option 2, [G] neither","key_press":76,"name":"choice","trial_type":"html-keyboard-response","trial_index":43,"time_elapsed":59900,"internal_node_id":"0.0-43.0","subject":"S1C0823","sona":"39889","block":2,"time":"2021-09-17T00:52:17.918Z","response":"2nd","certainty":"high","char":"L","transposition":-3,"order":["shifted","swapped"],"probe_pitches":[6,7,10,4,8,5,-1,10],"shifted_pitches":[6,7,10,4,9,5,-1,10],"swapped_pitches":[6,7,10,8,4,5,-1,10],"shift_direction":1,"question_num":31,"has_decoy":false},{"rt":228.59999999403954,"stimulus":"[A] option 1, [L] option 2, [G] neither","key_press":76,"name":"choice","trial_type":"html-keyboard-response","trial_index":54,"time_elapsed":75214,"internal_node_id":"0.0-54.0","subject":"S1C0823","sona":"39889","block":2,"time":"2021-09-17T00:52:17.918Z","response":"2nd","certainty":"high","char":"L","transposition":-1,"order":["swapped","shifted"],"probe_pitches":[7,12,10,7,15,5,7,15],"shifted_pitches":[7,12,10,6,15,5,7,15],"swapped_pitches":[7,12,10,15,7,5,7,15],"shift_direction":-1,"question_num":41,"has_decoy":false},{"rt":109.29999999701977,"stimulus":"[A] option 1, [L] option 2, [G] neither","key_press":76,"name":"choice","trial_type":"html-keyboard-response","trial_index":65,"time_elapsed":89358,"internal_node_id":"0.0-65.0","subject":"S1C0823","sona":"39889","block":2,"time":"2021-09-17T00:52:17.918Z","response":"2nd","certainty":"high","char":"L","transposition":1,"order":["swapped","shifted"],"probe_pitches":[6,10,6,8,15,13,3,8],"shifted_pitches":[6,10,6,8,16,13,3,8],"swapped_pitches":[6,10,6,15,8,13,3,8],"shift_direction":1,"question_num":51,"has_decoy":false},{"rt":2746.2999999970198,"stimulus":"[A] option 1, [L] option 2, [G] neither","key_press":71,"name":"choice","trial_type":"html-keyboard-response","trial_index":76,"time_elapsed":110462,"internal_node_id":"0.0-76.0","subject":"S1C0823","sona":"39889","block":2,"time":"2021-09-17T00:52:17.918Z","response":"neither","certainty":"high","char":"G","transposition":-2,"order":["swapped","shifted"],"probe_pitches":[7,6,-1,2,0,5,6,7],"shifted_pitches":[7,6,-1,2,1,5,6,7],"swapped_pitches":[7,6,-1,0,2,5,6,7],"shift_direction":1,"question_num":61,"has_decoy":false},{"rt":1581,"stimulus":"[A] option 1, [L] option 2, [G] neither","key_press":65,"name":"choice","trial_type":"html-keyboard-response","trial_index":87,"time_elapsed":126069,"internal_node_id":"0.0-87.0","subject":"S1C0823","sona":"39889","block":2,"time":"2021-09-17T00:52:17.918Z","response":"1st","certainty":"high","char":"A","transposition":3,"order":["shifted","swapped"],"probe_pitches":[10,12,5,3,10,8,12,15],"shifted_pitches":[10,12,5,4,10,8,12,15],"swapped_pitches":[10,12,5,10,3,8,12,15],"shift_direction":1,"question_num":71,"has_decoy":false},{"rt":96.8999999910593,"stimulus":"[A] option 1, [L] option 2, [G] neither","key_press":76,"name":"choice","trial_type":"html-keyboard-response","trial_index":98,"time_elapsed":140260,"internal_node_id":"0.0-98.0","subject":"S1C0823","sona":"39889","block":2,"time":"2021-09-17T00:52:17.918Z","response":"2nd","certainty":"high","char":"L","transposition":-1,"order":["shifted","swapped"],"probe_pitches":[3,4,8,6,1,-2,3,0],"shifted_pitches":[3,4,8,7,1,-2,3,0],"swapped_pitches":[3,4,8,1,6,-2,3,0],"shift_direction":1,"question_num":81,"has_decoy":false},{"rt":1832.1000000089407,"stimulus":"[A] option 1, [L] option 2, [G] neither","key_press":65,"name":"choice","trial_type":"html-keyboard-response","trial_index":109,"time_elapsed":156182,"internal_node_id":"0.0-109.0","subject":"S1C0823","sona":"39889","block":2,"time":"2021-09-17T00:52:17.918Z","response":"1st","certainty":"high","char":"A","transposition":-3,"order":["swapped","shifted"],"probe_pitches":[-1,0,1,-2,6,9,8,2],"shifted_pitches":[-1,0,1,-2,5,9,8,2],"swapped_pitches":[-1,0,1,6,-2,9,8,2],"shift_direction":-1,"question_num":91,"has_decoy":false},{"rt":397.59999999403954,"stimulus":"[A] option 1, [L] option 2, [G] neither","key_press":65,"name":"choice","trial_type":"html-keyboard-response","trial_index":120,"time_elapsed":170635,"internal_node_id":"0.0-120.0","subject":"S1C0823","sona":"39889","block":2,"time":"2021-09-17T00:52:17.918Z","response":"1st","certainty":"high","char":"A","transposition":-2,"order":["shifted","swapped"],"probe_pitches":[3,8,11,15,13,6,15,8],"shifted_pitches":[3,8,11,16,13,6,15,8],"swapped_pitches":[3,8,11,13,15,6,15,8],"shift_direction":1,"question_num":101,"has_decoy":false},{"rt":94.09999999403954,"stimulus":"[A] option 1, [L] option 2, [G] neither","key_press":76,"name":"choice","trial_type":"html-keyboard-response","trial_index":131,"time_elapsed":184785,"internal_node_id":"0.0-131.0","subject":"S1C0823","sona":"39889","block":2,"time":"2021-09-17T00:52:17.918Z","response":"2nd","certainty":"high","char":"L","transposition":2,"order":["swapped","shifted"],"probe_pitches":[15,12,10,8,12,10,15,5],"shifted_pitches":[15,12,10,7,12,10,15,5],"swapped_pitches":[15,12,10,12,8,10,15,5],"shift_direction":-1,"question_num":111,"has_decoy":false},{"rt":1537.699999988079,"stimulus":"[A] option 1, [L] option 2, [G] neither","key_press":65,"name":"choice","trial_type":"html-keyboard-response","trial_index":142,"time_elapsed":200420,"internal_node_id":"0.0-142.0","subject":"S1C0823","sona":"39889","block":2,"time":"2021-09-17T00:52:17.918Z","response":"1st","certainty":"high","char":"A","transposition":-2,"order":["shifted","swapped"],"probe_pitches":[10,7,12,10,3,5,3,5],"shifted_pitches":[10,7,12,10,4,5,3,5],"swapped_pitches":[10,7,12,3,10,5,3,5],"shift_direction":1,"question_num":121,"has_decoy":false},{"rt":254.5,"stimulus":"[A] option 1, [L] option 2, [G] neither","key_press":76,"name":"choice","trial_type":"html-keyboard-response","trial_index":153,"time_elapsed":214806,"internal_node_id":"0.0-153.0","subject":"S1C0823","sona":"39889","block":2,"time":"2021-09-17T00:52:17.918Z","response":"2nd","certainty":"high","char":"L","transposition":-3,"order":["swapped","shifted"],"probe_pitches":[6,11,15,11,6,13,8,13],"shifted_pitches":[6,11,15,11,7,13,8,13],"swapped_pitches":[6,11,15,6,11,13,8,13],"shift_direction":1,"question_num":131,"has_decoy":false},{"rt":1410.7999999970198,"stimulus":"[A] option 1, [L] option 2, [G] neither","key_press":65,"name":"choice","trial_type":"html-keyboard-response","trial_index":164,"time_elapsed":230245,"internal_node_id":"0.0-164.0","subject":"S1C0823","sona":"39889","block":2,"time":"2021-09-17T00:52:17.918Z","response":"1st","certainty":"high","char":"A","transposition":-2,"order":["swapped","shifted"],"probe_pitches":[-1,1,5,1,-1,8,7,-1],"shifted_pitches":[-1,1,5,0,-1,8,7,-1],"swapped_pitches":[-1,1,5,-1,1,8,7,-1],"shift_direction":-1,"question_num":141,"has_decoy":false},{"rt":1583.4000000059605,"stimulus":"[A] option 1, [L] option 2, [G] neither","key_press":65,"name":"choice","trial_type":"html-keyboard-response","trial_index":175,"time_elapsed":245980,"internal_node_id":"0.0-175.0","subject":"S1C0823","sona":"39889","block":2,"time":"2021-09-17T00:52:17.918Z","response":"1st","certainty":"high","char":"A","transposition":-1,"order":["swapped","shifted"],"probe_pitches":[13,15,8,15,10,5,3,15],"shifted_pitches":[13,15,8,15,9,5,3,15],"swapped_pitches":[13,15,8,10,15,5,3,15],"shift_direction":-1,"question_num":151,"has_decoy":false},{"rt":638.0999999940395,"stimulus":"[A] option 1, [L] option 2, [G] neither","key_press":76,"name":"choice","trial_type":"html-keyboard-response","trial_index":186,"time_elapsed":260710,"internal_node_id":"0.0-186.0","subject":"S1C0823","sona":"39889","block":2,"time":"2021-09-17T00:52:17.918Z","response":"2nd","certainty":"high","char":"L","transposition":0,"order":["shifted","swapped"],"probe_pitches":[5,3,5,3,10,15,13,8],"shifted_pitches":[5,3,5,2,10,15,13,8],"swapped_pitches":[5,3,5,10,3,15,13,8],"shift_direction":-1,"question_num":161,"has_decoy":false},{"rt":126.40000000596046,"stimulus":"[A] option 1, [L] option 2, [G] neither","key_press":65,"name":"choice","trial_type":"html-keyboard-response","trial_index":197,"time_elapsed":274859,"internal_node_id":"0.0-197.0","subject":"S1C0823","sona":"39889","block":2,"time":"2021-09-17T00:52:17.918Z","response":"1st","certainty":"high","char":"A","transposition":2,"order":["shifted","swapped"],"probe_pitches":[7,4,2,7,9,1,6,-2],"shifted_pitches":[7,4,2,8,9,1,6,-2],"swapped_pitches":[7,4,2,9,7,1,6,-2],"shift_direction":1,"question_num":171,"has_decoy":false},{"rt":722.6999999880791,"stimulus":"[A] option 1, [L] option 2, [G] neither","key_press":65,"name":"choice","trial_type":"html-keyboard-response","trial_index":208,"time_elapsed":289690,"internal_node_id":"0.0-208.0","subject":"S1C0823","sona":"39889","block":2,"time":"2021-09-17T00:52:17.918Z","response":"1st","certainty":"high","char":"A","transposition":-1,"order":["swapped","shifted"],"probe_pitches":[1,-2,2,9,4,10,5,0],"shifted_pitches":[1,-2,2,9,3,10,5,0],"swapped_pitches":[1,-2,2,4,9,10,5,0],"shift_direction":-1,"question_num":181,"has_decoy":false},{"rt":118.20000000298023,"stimulus":"[A] option 1, [L] option 2, [G] neither","key_press":76,"name":"choice","trial_type":"html-keyboard-response","trial_index":219,"time_elapsed":303965,"internal_node_id":"0.0-219.0","subject":"S1C0823","sona":"39889","block":2,"time":"2021-09-17T00:52:17.918Z","response":"2nd","certainty":"high","char":"L","transposition":3,"order":["shifted","swapped"],"probe_pitches":[4,1,3,-2,7,9,4,2],"shifted_pitches":[4,1,3,-2,6,9,4,2],"swapped_pitches":[4,1,3,7,-2,9,4,2],"shift_direction":-1,"question_num":191,"has_decoy":false}]