[{"rt":614.3999999985099,"stimulus":"[A] option 1, [L] option 2, [G] neither","key_press":71,"name":"choice","trial_type":"html-keyboard-response","trial_index":10,"time_elapsed":25456,"internal_node_id":"0.0-10.0","subject":"S1C1219","sona":"41648","block":3,"time":"2021-09-16T01:53:46.793Z","response":"neither","certainty":"high","char":"G","transposition":-1,"order":["shifted","swapped"],"probe_pitches":[8,3,1,3,5,10,1,3,5,1,13,1],"shifted_pitches":[8,3,1,3,5,10,2,3,5,1,13,1],"swapped_pitches":[8,3,1,3,5,1,10,3,5,1,13,1],"shift_direction":1,"question_num":1,"has_decoy":false},{"rt":275.09999999403954,"stimulus":"[A] option 1, [L] option 2, [G] neither","key_press":76,"name":"choice","trial_type":"html-keyboard-response","trial_index":21,"time_elapsed":44117,"internal_node_id":"0.0-21.0","subject":"S1C1219","sona":"41648","block":3,"time":"2021-09-16T01:53:46.793Z","response":"2nd","certainty":"high","char":"L","transposition":-3,"order":["shifted","swapped"],"probe_pitches":[1,5,3,10,1,5,10,8,13,1,8,10],"shifted_pitches":[1,5,3,10,1,4,10,8,13,1,8,10],"swapped_pitches":[1,5,3,10,1,10,5,8,13,1,8,10],"shift_direction":-1,"question_num":11,"has_decoy":false},{"rt":2085.39999999851,"stimulus":"[A] option 1, [L] option 2, [G] neither","key_press":65,"name":"choice","trial_type":"html-keyboard-response","trial_index":32,"time_elapsed":64921,"internal_node_id":"0.0-32.0","subject":"S1C1219","sona":"41648","block":3,"time":"2021-09-16T01:53:46.793Z","response":"1st","certainty":"high","char":"A","transposition":3,"order":["swapped","shifted"],"probe_pitches":[7,6,3,4,2,9,3,2,11,3,6,2],"shifted_pitches":[7,6,3,4,2,10,3,2,11,3,6,2],"swapped_pitches":[7,6,3,4,2,3,9,2,11,3,6,2],"shift_direction":1,"question_num":21,"has_decoy":false},{"rt":49.100000001490116,"stimulus":"[A] option 1, [L] option 2, [G] neither","key_press":76,"name":"choice","trial_type":"html-keyboard-response","trial_index":43,"time_elapsed":83847,"internal_node_id":"0.0-43.0","subject":"S1C1219","sona":"41648","block":3,"time":"2021-09-16T01:53:46.793Z","response":"2nd","certainty":"high","char":"L","transposition":-1,"order":["swapped","shifted"],"probe_pitches":[13,11,13,6,11,3,8,6,11,1,11,1],"shifted_pitches":[13,11,13,6,11,3,7,6,11,1,11,1],"swapped_pitches":[13,11,13,6,11,8,3,6,11,1,11,1],"shift_direction":-1,"question_num":31,"has_decoy":false},{"rt":232.89999999850988,"stimulus":"[A] option 1, [L] option 2, [G] neither","key_press":76,"name":"choice","trial_type":"html-keyboard-response","trial_index":54,"time_elapsed":102451,"internal_node_id":"0.0-54.0","subject":"S1C1219","sona":"41648","block":3,"time":"2021-09-16T01:53:46.793Z","response":"2nd","certainty":"high","char":"L","transposition":1,"order":["swapped","shifted"],"probe_pitches":[13,7,13,9,14,5,7,2,8,10,8,5],"shifted_pitches":[13,7,13,9,14,5,6,2,8,10,8,5],"swapped_pitches":[13,7,13,9,14,7,5,2,8,10,8,5],"shift_direction":-1,"question_num":41,"has_decoy":false},{"rt":308.5,"stimulus":"[A] option 1, [L] option 2, [G] neither","key_press":65,"name":"choice","trial_type":"html-keyboard-response","trial_index":65,"time_elapsed":121388,"internal_node_id":"0.0-65.0","subject":"S1C1219","sona":"41648","block":3,"time":"2021-09-16T01:53:46.793Z","response":"1st","certainty":"high","char":"A","transposition":2,"order":["shifted","swapped"],"probe_pitches":[7,5,12,10,3,2,8,11,2,14,12,3],"shifted_pitches":[7,5,12,10,3,1,8,11,2,14,12,3],"swapped_pitches":[7,5,12,10,3,8,2,11,2,14,12,3],"shift_direction":-1,"question_num":51,"has_decoy":false},{"rt":209.29999999701977,"stimulus":"[A] option 1, [L] option 2, [G] neither","key_press":65,"name":"choice","trial_type":"html-keyboard-response","trial_index":76,"time_elapsed":139847,"internal_node_id":"0.0-76.0","subject":"S1C1219","sona":"41648","block":3,"time":"2021-09-16T01:53:46.793Z","response":"1st","certainty":"high","char":"A","transposition":-2,"order":["shifted","swapped"],"probe_pitches":[3,6,1,6,11,6,1,3,8,3,11,13],"shifted_pitches":[3,6,1,6,11,6,2,3,8,3,11,13],"swapped_pitches":[3,6,1,6,11,1,6,3,8,3,11,13],"shift_direction":1,"question_num":61,"has_decoy":false},{"rt":250.10000000149012,"stimulus":"[A] option 1, [L] option 2, [G] neither","key_press":76,"name":"choice","trial_type":"html-keyboard-response","trial_index":87,"time_elapsed":158488,"internal_node_id":"0.0-87.0","subject":"S1C1219","sona":"41648","block":3,"time":"2021-09-16T01:53:46.793Z","response":"2nd","certainty":"high","char":"L","transposition":-3,"order":["shifted","swapped"],"probe_pitches":[12,6,2,8,9,12,4,14,6,10,3,11],"shifted_pitches":[12,6,2,8,9,12,5,14,6,10,3,11],"swapped_pitches":[12,6,2,8,9,4,12,14,6,10,3,11],"shift_direction":1,"question_num":71,"has_decoy":false},{"rt":191.39999999850988,"stimulus":"[A] option 1, [L] option 2, [G] neither","key_press":76,"name":"choice","trial_type":"html-keyboard-response","trial_index":98,"time_elapsed":177208,"internal_node_id":"0.0-98.0","subject":"S1C1219","sona":"41648","block":3,"time":"2021-09-16T01:53:46.793Z","response":"2nd","certainty":"high","char":"L","transposition":0,"order":["swapped","shifted"],"probe_pitches":[13,10,3,1,6,13,10,6,3,1,3,8],"shifted_pitches":[13,10,3,1,6,14,10,6,3,1,3,8],"swapped_pitches":[13,10,3,1,6,10,13,6,3,1,3,8],"shift_direction":1,"question_num":81,"has_decoy":false},{"rt":521.7999999970198,"stimulus":"[A] option 1, [L] option 2, [G] neither","key_press":65,"name":"choice","trial_type":"html-keyboard-response","trial_index":109,"time_elapsed":196052,"internal_node_id":"0.0-109.0","subject":"S1C1219","sona":"41648","block":3,"time":"2021-09-16T01:53:46.793Z","response":"1st","certainty":"high","char":"A","transposition":3,"order":["shifted","swapped"],"probe_pitches":[3,1,8,13,6,10,3,13,6,10,1,6],"shifted_pitches":[3,1,8,13,6,9,3,13,6,10,1,6],"swapped_pitches":[3,1,8,13,6,3,10,13,6,10,1,6],"shift_direction":-1,"question_num":91,"has_decoy":false},{"rt":954,"stimulus":"[A] option 1, [L] option 2, [G] neither","key_press":76,"name":"choice","trial_type":"html-keyboard-response","trial_index":120,"time_elapsed":215240,"internal_node_id":"0.0-120.0","subject":"S1C1219","sona":"41648","block":3,"time":"2021-09-16T01:53:46.793Z","response":"2nd","certainty":"high","char":"L","transposition":0,"order":["swapped","shifted"],"probe_pitches":[8,10,6,2,11,5,2,3,9,14,5,11],"shifted_pitches":[8,10,6,2,11,4,2,3,9,14,5,11],"swapped_pitches":[8,10,6,2,11,2,5,3,9,14,5,11],"shift_direction":-1,"question_num":101,"has_decoy":false},{"rt":187,"stimulus":"[A] option 1, [L] option 2, [G] neither","key_press":65,"name":"choice","trial_type":"html-keyboard-response","trial_index":131,"time_elapsed":233708,"internal_node_id":"0.0-131.0","subject":"S1C1219","sona":"41648","block":3,"time":"2021-09-16T01:53:46.793Z","response":"1st","certainty":"high","char":"A","transposition":-1,"order":["shifted","swapped"],"probe_pitches":[8,13,11,12,6,8,3,10,12,10,2,5],"shifted_pitches":[8,13,11,12,6,9,3,10,12,10,2,5],"swapped_pitches":[8,13,11,12,6,3,8,10,12,10,2,5],"shift_direction":1,"question_num":111,"has_decoy":false},{"rt":305.3999999985099,"stimulus":"[A] option 1, [L] option 2, [G] neither","key_press":76,"name":"choice","trial_type":"html-keyboard-response","trial_index":142,"time_elapsed":252233,"internal_node_id":"0.0-142.0","subject":"S1C1219","sona":"41648","block":3,"time":"2021-09-16T01:53:46.793Z","response":"2nd","certainty":"high","char":"L","transposition":-3,"order":["swapped","shifted"],"probe_pitches":[13,9,11,9,4,6,13,1,6,11,1,13],"shifted_pitches":[13,9,11,9,4,7,13,1,6,11,1,13],"swapped_pitches":[13,9,11,9,4,13,6,1,6,11,1,13],"shift_direction":1,"question_num":121,"has_decoy":false},{"rt":167.10000000149012,"stimulus":"[A] option 1, [L] option 2, [G] neither","key_press":65,"name":"choice","trial_type":"html-keyboard-response","trial_index":153,"time_elapsed":270533,"internal_node_id":"0.0-153.0","subject":"S1C1219","sona":"41648","block":3,"time":"2021-09-16T01:53:46.793Z","response":"1st","certainty":"high","char":"A","transposition":-2,"order":["swapped","shifted"],"probe_pitches":[11,13,9,13,11,1,4,13,6,1,4,9],"shifted_pitches":[11,13,9,13,11,1,5,13,6,1,4,9],"swapped_pitches":[11,13,9,13,11,4,1,13,6,1,4,9],"shift_direction":1,"question_num":131,"has_decoy":false},{"rt":923.8999999985099,"stimulus":"[A] option 1, [L] option 2, [G] neither","key_press":76,"name":"choice","trial_type":"html-keyboard-response","trial_index":164,"time_elapsed":289792,"internal_node_id":"0.0-164.0","subject":"S1C1219","sona":"41648","block":3,"time":"2021-09-16T01:53:46.793Z","response":"2nd","certainty":"high","char":"L","transposition":1,"order":["shifted","swapped"],"probe_pitches":[13,11,13,8,1,4,6,8,1,4,13,1],"shifted_pitches":[13,11,13,8,1,4,5,8,1,4,13,1],"swapped_pitches":[13,11,13,8,1,6,4,8,1,4,13,1],"shift_direction":-1,"question_num":141,"has_decoy":false},{"rt":288.90000000596046,"stimulus":"[A] option 1, [L] option 2, [G] neither","key_press":65,"name":"choice","trial_type":"html-keyboard-response","trial_index":175,"time_elapsed":308384,"internal_node_id":"0.0-175.0","subject":"S1C1219","sona":"41648","block":3,"time":"2021-09-16T01:53:46.793Z","response":"1st","certainty":"high","char":"A","transposition":-1,"order":["swapped","shifted"],"probe_pitches":[4,10,3,6,8,13,12,9,2,14,9,14],"shifted_pitches":[4,10,3,6,8,13,11,9,2,14,9,14],"swapped_pitches":[4,10,3,6,8,12,13,9,2,14,9,14],"shift_direction":-1,"question_num":151,"has_decoy":false},{"rt":247.89999999850988,"stimulus":"[A] option 1, [L] option 2, [G] neither","key_press":76,"name":"choice","trial_type":"html-keyboard-response","trial_index":186,"time_elapsed":327203,"internal_node_id":"0.0-186.0","subject":"S1C1219","sona":"41648","block":3,"time":"2021-09-16T01:53:46.793Z","response":"2nd","certainty":"high","char":"L","transposition":-3,"order":["swapped","shifted"],"probe_pitches":[4,3,9,11,8,13,6,5,6,5,8,12],"shifted_pitches":[4,3,9,11,8,13,7,5,6,5,8,12],"swapped_pitches":[4,3,9,11,8,6,13,5,6,5,8,12],"shift_direction":1,"question_num":161,"has_decoy":false},{"rt":2659.60000000149,"stimulus":"[A] option 1, [L] option 2, [G] neither","key_press":65,"name":"choice","trial_type":"html-keyboard-response","trial_index":197,"time_elapsed":348088,"internal_node_id":"0.0-197.0","subject":"S1C1219","sona":"41648","block":3,"time":"2021-09-16T01:53:46.793Z","response":"1st","certainty":"high","char":"A","transposition":-2,"order":["shifted","swapped"],"probe_pitches":[13,7,5,2,5,10,7,6,3,2,12,7],"shifted_pitches":[13,7,5,2,5,10,8,6,3,2,12,7],"swapped_pitches":[13,7,5,2,5,7,10,6,3,2,12,7],"shift_direction":1,"question_num":171,"has_decoy":false},{"rt":785.6000000014901,"stimulus":"[A] option 1, [L] option 2, [G] neither","key_press":65,"name":"choice","trial_type":"html-keyboard-response","trial_index":208,"time_elapsed":367930,"internal_node_id":"0.0-208.0","subject":"S1C1219","sona":"41648","block":3,"time":"2021-09-16T01:53:46.793Z","response":"1st","certainty":"high","char":"A","transposition":2,"order":["swapped","shifted"],"probe_pitches":[4,8,11,6,8,11,6,4,1,8,13,6],"shifted_pitches":[4,8,11,6,8,10,6,4,1,8,13,6],"swapped_pitches":[4,8,11,6,8,6,11,4,1,8,13,6],"shift_direction":-1,"question_num":181,"has_decoy":false},{"rt":320.3999999985099,"stimulus":"[A] option 1, [L] option 2, [G] neither","key_press":76,"name":"choice","trial_type":"html-keyboard-response","trial_index":219,"time_elapsed":387075,"internal_node_id":"0.0-219.0","subject":"S1C1219","sona":"41648","block":3,"time":"2021-09-16T01:53:46.793Z","response":"2nd","certainty":"high","char":"L","transposition":-2,"order":["shifted","swapped"],"probe_pitches":[3,4,2,9,3,13,4,10,2,6,10,7],"shifted_pitches":[3,4,2,9,3,12,4,10,2,6,10,7],"swapped_pitches":[3,4,2,9,3,4,13,10,2,6,10,7],"shift_direction":-1,"question_num":191,"has_decoy":false}]