[{"rt":255,"stimulus":"[A] option 1, [L] option 2, [G] neither","key_press":76,"name":"choice","trial_type":"html-keyboard-response","trial_index":10,"time_elapsed":19012,"internal_node_id":"0.0-10.0","subject":"S1C1219","sona":"41648","block":5,"time":"2021-09-16T02:06:49.796Z","response":"2nd","certainty":"high","char":"L","transposition":1,"order":["swapped","shifted"],"probe_pitches":[9,3,5,-3,-1,3,6,9,3,8,3,9],"shifted_pitches":[9,3,5,-3,-1,2,6,9,3,8,3,9],"swapped_pitches":[9,3,5,-3,-1,6,3,9,3,8,3,9],"shift_direction":-1,"question_num":1,"has_decoy":false},{"rt":225.69999999552965,"stimulus":"[A] option 1, [L] option 2, [G] neither","key_press":76,"name":"choice","trial_type":"html-keyboard-response","trial_index":21,"time_elapsed":37994,"internal_node_id":"0.0-21.0","subject":"S1C1219","sona":"41648","block":5,"time":"2021-09-16T02:06:49.796Z","response":"2nd","certainty":"high","char":"L","transposition":-1,"order":["swapped","shifted"],"probe_pitches":[11,13,11,4,1,9,11,1,6,13,11,1],"shifted_pitches":[11,13,11,4,1,9,12,1,6,13,11,1],"swapped_pitches":[11,13,11,4,1,11,9,1,6,13,11,1],"shift_direction":1,"question_num":11,"has_decoy":false},{"rt":209.10000000149012,"stimulus":"[A] option 1, [L] option 2, [G] neither","key_press":65,"name":"choice","trial_type":"html-keyboard-response","trial_index":32,"time_elapsed":56671,"internal_node_id":"0.0-32.0","subject":"S1C1219","sona":"41648","block":5,"time":"2021-09-16T02:06:49.796Z","response":"1st","certainty":"high","char":"A","transposition":-3,"order":["shifted","swapped"],"probe_pitches":[3,5,3,1,3,1,10,13,8,5,13,8],"shifted_pitches":[3,5,3,1,3,1,9,13,8,5,13,8],"swapped_pitches":[3,5,3,1,3,10,1,13,8,5,13,8],"shift_direction":-1,"question_num":21,"has_decoy":false},{"rt":252,"stimulus":"[A] option 1, [L] option 2, [G] neither","key_press":71,"name":"choice","trial_type":"html-keyboard-response","trial_index":43,"time_elapsed":75215,"internal_node_id":"0.0-43.0","subject":"S1C1219","sona":"41648","block":5,"time":"2021-09-16T02:06:49.796Z","response":"neither","certainty":"high","char":"G","transposition":-1,"order":["shifted","swapped"],"probe_pitches":[6,8,11,6,13,8,3,13,1,3,13,11],"shifted_pitches":[6,8,11,6,13,8,2,13,1,3,13,11],"swapped_pitches":[6,8,11,6,13,3,8,13,1,3,13,11],"shift_direction":-1,"question_num":31,"has_decoy":false},{"rt":146.79999999701977,"stimulus":"[A] option 1, [L] option 2, [G] neither","key_press":76,"name":"choice","trial_type":"html-keyboard-response","trial_index":54,"time_elapsed":93616,"internal_node_id":"0.0-54.0","subject":"S1C1219","sona":"41648","block":5,"time":"2021-09-16T02:06:49.796Z","response":"2nd","certainty":"high","char":"L","transposition":2,"order":["swapped","shifted"],"probe_pitches":[1,6,8,6,8,13,6,10,3,8,3,10],"shifted_pitches":[1,6,8,6,8,14,6,10,3,8,3,10],"swapped_pitches":[1,6,8,6,8,6,13,10,3,8,3,10],"shift_direction":1,"question_num":41,"has_decoy":false},{"rt":203.20000000298023,"stimulus":"[A] option 1, [L] option 2, [G] neither","key_press":76,"name":"choice","trial_type":"html-keyboard-response","trial_index":65,"time_elapsed":112197,"internal_node_id":"0.0-65.0","subject":"S1C1219","sona":"41648","block":5,"time":"2021-09-16T02:06:49.796Z","response":"2nd","certainty":"high","char":"L","transposition":-1,"order":["swapped","shifted"],"probe_pitches":[-2,0,-2,2,1,-2,7,6,7,2,0,3],"shifted_pitches":[-2,0,-2,2,1,-2,8,6,7,2,0,3],"swapped_pitches":[-2,0,-2,2,1,7,-2,6,7,2,0,3],"shift_direction":1,"question_num":51,"has_decoy":false},{"rt":186.5,"stimulus":"[A] option 1, [L] option 2, [G] neither","key_press":65,"name":"choice","trial_type":"html-keyboard-response","trial_index":76,"time_elapsed":130664,"internal_node_id":"0.0-76.0","subject":"S1C1219","sona":"41648","block":5,"time":"2021-09-16T02:06:49.796Z","response":"1st","certainty":"high","char":"A","transposition":-3,"order":["swapped","shifted"],"probe_pitches":[-2,2,-1,2,5,8,3,0,7,1,6,3],"shifted_pitches":[-2,2,-1,2,5,8,4,0,7,1,6,3],"swapped_pitches":[-2,2,-1,2,5,3,8,0,7,1,6,3],"shift_direction":1,"question_num":61,"has_decoy":false},{"rt":129,"stimulus":"[A] option 1, [L] option 2, [G] neither","key_press":76,"name":"choice","trial_type":"html-keyboard-response","trial_index":87,"time_elapsed":149061,"internal_node_id":"0.0-87.0","subject":"S1C1219","sona":"41648","block":5,"time":"2021-09-16T02:06:49.796Z","response":"2nd","certainty":"high","char":"L","transposition":1,"order":["swapped","shifted"],"probe_pitches":[4,6,9,13,6,11,9,6,1,11,9,4],"shifted_pitches":[4,6,9,13,6,12,9,6,1,11,9,4],"swapped_pitches":[4,6,9,13,6,9,11,6,1,11,9,4],"shift_direction":1,"question_num":71,"has_decoy":false},{"rt":8032.10000000149,"stimulus":"[A] option 1, [L] option 2, [G] neither","key_press":71,"name":"choice","trial_type":"html-keyboard-response","trial_index":98,"time_elapsed":175187,"internal_node_id":"0.0-98.0","subject":"S1C1219","sona":"41648","block":5,"time":"2021-09-16T02:06:49.796Z","response":"neither","certainty":"high","char":"G","transposition":0,"order":["shifted","swapped"],"probe_pitches":[8,4,8,6,13,4,6,1,13,11,4,11],"shifted_pitches":[8,4,8,6,13,3,6,1,13,11,4,11],"swapped_pitches":[8,4,8,6,13,6,4,1,13,11,4,11],"shift_direction":-1,"question_num":81,"has_decoy":false},{"rt":244.30000000447035,"stimulus":"[A] option 1, [L] option 2, [G] neither","key_press":65,"name":"choice","trial_type":"html-keyboard-response","trial_index":109,"time_elapsed":194329,"internal_node_id":"0.0-109.0","subject":"S1C1219","sona":"41648","block":5,"time":"2021-09-16T02:06:49.796Z","response":"1st","certainty":"high","char":"A","transposition":-3,"order":["shifted","swapped"],"probe_pitches":[10,5,3,10,13,8,3,5,8,3,8,13],"shifted_pitches":[10,5,3,10,13,7,3,5,8,3,8,13],"swapped_pitches":[10,5,3,10,13,3,8,5,8,3,8,13],"shift_direction":-1,"question_num":91,"has_decoy":false},{"rt":381.8999999985099,"stimulus":"[A] option 1, [L] option 2, [G] neither","key_press":76,"name":"choice","trial_type":"html-keyboard-response","trial_index":120,"time_elapsed":212991,"internal_node_id":"0.0-120.0","subject":"S1C1219","sona":"41648","block":5,"time":"2021-09-16T02:06:49.796Z","response":"2nd","certainty":"high","char":"L","transposition":3,"order":["shifted","swapped"],"probe_pitches":[0,2,5,6,5,-3,2,-2,5,2,-1,4],"shifted_pitches":[0,2,5,6,5,-3,3,-2,5,2,-1,4],"swapped_pitches":[0,2,5,6,5,2,-3,-2,5,2,-1,4],"shift_direction":1,"question_num":101,"has_decoy":false},{"rt":272.1000000014901,"stimulus":"[A] option 1, [L] option 2, [G] neither","key_press":76,"name":"choice","trial_type":"html-keyboard-response","trial_index":131,"time_elapsed":231574,"internal_node_id":"0.0-131.0","subject":"S1C1219","sona":"41648","block":5,"time":"2021-09-16T02:06:49.796Z","response":"2nd","certainty":"high","char":"L","transposition":-2,"order":["shifted","swapped"],"probe_pitches":[8,13,6,1,8,13,11,8,11,3,8,1],"shifted_pitches":[8,13,6,1,8,13,12,8,11,3,8,1],"swapped_pitches":[8,13,6,1,8,11,13,8,11,3,8,1],"shift_direction":1,"question_num":111,"has_decoy":false},{"rt":159.30000000447035,"stimulus":"[A] option 1, [L] option 2, [G] neither","key_press":76,"name":"choice","trial_type":"html-keyboard-response","trial_index":142,"time_elapsed":249799,"internal_node_id":"0.0-142.0","subject":"S1C1219","sona":"41648","block":5,"time":"2021-09-16T02:06:49.796Z","response":"2nd","certainty":"high","char":"L","transposition":-2,"order":["swapped","shifted"],"probe_pitches":[1,3,6,13,10,6,8,13,10,13,3,10],"shifted_pitches":[1,3,6,13,10,7,8,13,10,13,3,10],"swapped_pitches":[1,3,6,13,10,8,6,13,10,13,3,10],"shift_direction":1,"question_num":121,"has_decoy":false},{"rt":195.39999999850988,"stimulus":"[A] option 1, [L] option 2, [G] neither","key_press":65,"name":"choice","trial_type":"html-keyboard-response","trial_index":153,"time_elapsed":268267,"internal_node_id":"0.0-153.0","subject":"S1C1219","sona":"41648","block":5,"time":"2021-09-16T02:06:49.796Z","response":"1st","certainty":"high","char":"A","transposition":0,"order":["shifted","swapped"],"probe_pitches":[-1,4,-2,6,0,6,9,3,-1,0,6,8],"shifted_pitches":[-1,4,-2,6,0,7,9,3,-1,0,6,8],"swapped_pitches":[-1,4,-2,6,0,9,6,3,-1,0,6,8],"shift_direction":1,"question_num":131,"has_decoy":false},{"rt":574.7999999970198,"stimulus":"[A] option 1, [L] option 2, [G] neither","key_press":65,"name":"choice","trial_type":"html-keyboard-response","trial_index":164,"time_elapsed":287235,"internal_node_id":"0.0-164.0","subject":"S1C1219","sona":"41648","block":5,"time":"2021-09-16T02:06:49.796Z","response":"1st","certainty":"high","char":"A","transposition":2,"order":["shifted","swapped"],"probe_pitches":[7,2,-1,2,-1,0,9,5,2,-3,3,0],"shifted_pitches":[7,2,-1,2,-1,1,9,5,2,-3,3,0],"swapped_pitches":[7,2,-1,2,-1,9,0,5,2,-3,3,0],"shift_direction":1,"question_num":141,"has_decoy":false},{"rt":278.19999999552965,"stimulus":"[A] option 1, [L] option 2, [G] neither","key_press":65,"name":"choice","trial_type":"html-keyboard-response","trial_index":175,"time_elapsed":305537,"internal_node_id":"0.0-175.0","subject":"S1C1219","sona":"41648","block":5,"time":"2021-09-16T02:06:49.796Z","response":"1st","certainty":"high","char":"A","transposition":-2,"order":["swapped","shifted"],"probe_pitches":[1,-2,0,7,4,-1,6,1,3,-1,4,0],"shifted_pitches":[1,-2,0,7,4,-1,5,1,3,-1,4,0],"swapped_pitches":[1,-2,0,7,4,6,-1,1,3,-1,4,0],"shift_direction":-1,"question_num":151,"has_decoy":false},{"rt":658.3999999985099,"stimulus":"[A] option 1, [L] option 2, [G] neither","key_press":76,"name":"choice","trial_type":"html-keyboard-response","trial_index":186,"time_elapsed":324384,"internal_node_id":"0.0-186.0","subject":"S1C1219","sona":"41648","block":5,"time":"2021-09-16T02:06:49.796Z","response":"2nd","certainty":"high","char":"L","transposition":3,"order":["swapped","shifted"],"probe_pitches":[4,1,6,4,1,11,13,8,1,8,1,6],"shifted_pitches":[4,1,6,4,1,11,12,8,1,8,1,6],"swapped_pitches":[4,1,6,4,1,13,11,8,1,8,1,6],"shift_direction":-1,"question_num":161,"has_decoy":false},{"rt":4511.0999999940395,"stimulus":"[A] option 1, [L] option 2, [G] neither","key_press":71,"name":"choice","trial_type":"html-keyboard-response","trial_index":197,"time_elapsed":347208,"internal_node_id":"0.0-197.0","subject":"S1C1219","sona":"41648","block":5,"time":"2021-09-16T02:06:49.796Z","response":"neither","certainty":"high","char":"G","transposition":-1,"order":["shifted","swapped"],"probe_pitches":[7,2,5,4,5,-3,0,7,8,6,3,0],"shifted_pitches":[7,2,5,4,5,-3,-1,7,8,6,3,0],"swapped_pitches":[7,2,5,4,5,0,-3,7,8,6,3,0],"shift_direction":-1,"question_num":171,"has_decoy":false},{"rt":2735.5,"stimulus":"[A] option 1, [L] option 2, [G] neither","key_press":65,"name":"choice","trial_type":"html-keyboard-response","trial_index":208,"time_elapsed":368316,"internal_node_id":"0.0-208.0","subject":"S1C1219","sona":"41648","block":5,"time":"2021-09-16T02:06:49.796Z","response":"1st","certainty":"high","char":"A","transposition":-3,"order":["swapped","shifted"],"probe_pitches":[3,4,-2,4,2,1,7,-2,5,7,9,-2],"shifted_pitches":[3,4,-2,4,2,0,7,-2,5,7,9,-2],"swapped_pitches":[3,4,-2,4,2,7,1,-2,5,7,9,-2],"shift_direction":-1,"question_num":181,"has_decoy":false},{"rt":1713.3999999985099,"stimulus":"[A] option 1, [L] option 2, [G] neither","key_press":71,"name":"choice","trial_type":"html-keyboard-response","trial_index":219,"time_elapsed":388344,"internal_node_id":"0.0-219.0","subject":"S1C1219","sona":"41648","block":5,"time":"2021-09-16T02:06:49.796Z","response":"neither","certainty":"high","char":"G","transposition":-2,"order":["shifted","swapped"],"probe_pitches":[-2,3,9,5,3,7,2,0,9,-3,2,0],"shifted_pitches":[-2,3,9,5,3,6,2,0,9,-3,2,0],"swapped_pitches":[-2,3,9,5,3,2,7,0,9,-3,2,0],"shift_direction":-1,"question_num":191,"has_decoy":false}]