[{"rt":2651.7000000029802,"stimulus":"[A] option 1, [L] option 2, [G] neither","key_press":65,"name":"choice","trial_type":"html-keyboard-response","trial_index":10,"time_elapsed":23426,"internal_node_id":"0.0-10.0","subject":"S1C1219","sona":"41648","block":2,"time":"2021-09-16T01:47:15.438Z","response":"1st","certainty":"high","char":"A","transposition":-3,"order":["swapped","shifted"],"probe_pitches":[4,1,-3,1,4,1,-1,4,6,-1,6,9],"shifted_pitches":[4,1,-3,1,4,0,-1,4,6,-1,6,9],"swapped_pitches":[4,1,-3,1,4,-1,1,4,6,-1,6,9],"shift_direction":-1,"question_num":1,"has_decoy":false},{"rt":1024.1000000014901,"stimulus":"[A] option 1, [L] option 2, [G] neither","key_press":76,"name":"choice","trial_type":"html-keyboard-response","trial_index":21,"time_elapsed":43510,"internal_node_id":"0.0-21.0","subject":"S1C1219","sona":"41648","block":2,"time":"2021-09-16T01:47:15.438Z","response":"2nd","certainty":"high","char":"L","transposition":0,"order":["shifted","swapped"],"probe_pitches":[9,5,8,13,14,10,5,14,9,11,8,15],"shifted_pitches":[9,5,8,13,14,10,6,14,9,11,8,15],"swapped_pitches":[9,5,8,13,14,5,10,14,9,11,8,15],"shift_direction":1,"question_num":11,"has_decoy":false},{"rt":696.3999999985099,"stimulus":"[A] option 1, [L] option 2, [G] neither","key_press":76,"name":"choice","trial_type":"html-keyboard-response","trial_index":32,"time_elapsed":62903,"internal_node_id":"0.0-32.0","subject":"S1C1219","sona":"41648","block":2,"time":"2021-09-16T01:47:15.438Z","response":"2nd","certainty":"high","char":"L","transposition":-3,"order":["shifted","swapped"],"probe_pitches":[6,3,9,7,13,6,4,3,10,13,8,11],"shifted_pitches":[6,3,9,7,13,5,4,3,10,13,8,11],"swapped_pitches":[6,3,9,7,13,4,6,3,10,13,8,11],"shift_direction":-1,"question_num":21,"has_decoy":false},{"rt":1293.5999999940395,"stimulus":"[A] option 1, [L] option 2, [G] neither","key_press":76,"name":"choice","trial_type":"html-keyboard-response","trial_index":43,"time_elapsed":82598,"internal_node_id":"0.0-43.0","subject":"S1C1219","sona":"41648","block":2,"time":"2021-09-16T01:47:15.438Z","response":"2nd","certainty":"high","char":"L","transposition":-2,"order":["swapped","shifted"],"probe_pitches":[0,2,4,-3,4,9,7,-3,4,0,7,0],"shifted_pitches":[0,2,4,-3,4,9,8,-3,4,0,7,0],"swapped_pitches":[0,2,4,-3,4,7,9,-3,4,0,7,0],"shift_direction":1,"question_num":31,"has_decoy":false},{"rt":300.29999999701977,"stimulus":"[A] option 1, [L] option 2, [G] neither","key_press":65,"name":"choice","trial_type":"html-keyboard-response","trial_index":54,"time_elapsed":101703,"internal_node_id":"0.0-54.0","subject":"S1C1219","sona":"41648","block":2,"time":"2021-09-16T01:47:15.438Z","response":"1st","certainty":"high","char":"A","transposition":1,"order":["shifted","swapped"],"probe_pitches":[9,6,4,6,4,-3,2,6,2,-1,9,-1],"shifted_pitches":[9,6,4,6,4,-3,1,6,2,-1,9,-1],"swapped_pitches":[9,6,4,6,4,2,-3,6,2,-1,9,-1],"shift_direction":-1,"question_num":41,"has_decoy":false},{"rt":337.5,"stimulus":"[A] option 1, [L] option 2, [G] neither","key_press":76,"name":"choice","trial_type":"html-keyboard-response","trial_index":65,"time_elapsed":120393,"internal_node_id":"0.0-65.0","subject":"S1C1219","sona":"41648","block":2,"time":"2021-09-16T01:47:15.438Z","response":"2nd","certainty":"high","char":"L","transposition":-2,"order":["swapped","shifted"],"probe_pitches":[10,7,9,15,6,15,7,5,6,12,5,3],"shifted_pitches":[10,7,9,15,6,14,7,5,6,12,5,3],"swapped_pitches":[10,7,9,15,6,7,15,5,6,12,5,3],"shift_direction":-1,"question_num":51,"has_decoy":false},{"rt":270.3999999985099,"stimulus":"[A] option 1, [L] option 2, [G] neither","key_press":76,"name":"choice","trial_type":"html-keyboard-response","trial_index":76,"time_elapsed":139133,"internal_node_id":"0.0-76.0","subject":"S1C1219","sona":"41648","block":2,"time":"2021-09-16T01:47:15.438Z","response":"2nd","certainty":"high","char":"L","transposition":-1,"order":["swapped","shifted"],"probe_pitches":[4,3,4,9,5,10,6,12,15,4,10,7],"shifted_pitches":[4,3,4,9,5,11,6,12,15,4,10,7],"swapped_pitches":[4,3,4,9,5,6,10,12,15,4,10,7],"shift_direction":1,"question_num":61,"has_decoy":false},{"rt":234.09999999403954,"stimulus":"[A] option 1, [L] option 2, [G] neither","key_press":76,"name":"choice","trial_type":"html-keyboard-response","trial_index":87,"time_elapsed":158364,"internal_node_id":"0.0-87.0","subject":"S1C1219","sona":"41648","block":2,"time":"2021-09-16T01:47:15.438Z","response":"2nd","certainty":"high","char":"L","transposition":3,"order":["shifted","swapped"],"probe_pitches":[3,6,8,11,12,14,6,11,8,12,4,11],"shifted_pitches":[3,6,8,11,12,14,7,11,8,12,4,11],"swapped_pitches":[3,6,8,11,12,6,14,11,8,12,4,11],"shift_direction":1,"question_num":71,"has_decoy":false},{"rt":258.20000000298023,"stimulus":"[A] option 1, [L] option 2, [G] neither","key_press":65,"name":"choice","trial_type":"html-keyboard-response","trial_index":98,"time_elapsed":176953,"internal_node_id":"0.0-98.0","subject":"S1C1219","sona":"41648","block":2,"time":"2021-09-16T01:47:15.438Z","response":"1st","certainty":"high","char":"A","transposition":-2,"order":["shifted","swapped"],"probe_pitches":[4,-1,6,1,-1,1,4,-3,9,6,9,-3],"shifted_pitches":[4,-1,6,1,-1,0,4,-3,9,6,9,-3],"swapped_pitches":[4,-1,6,1,-1,4,1,-3,9,6,9,-3],"shift_direction":-1,"question_num":81,"has_decoy":false},{"rt":326,"stimulus":"[A] option 1, [L] option 2, [G] neither","key_press":65,"name":"choice","trial_type":"html-keyboard-response","trial_index":109,"time_elapsed":195836,"internal_node_id":"0.0-109.0","subject":"S1C1219","sona":"41648","block":2,"time":"2021-09-16T01:47:15.438Z","response":"1st","certainty":"high","char":"A","transposition":-2,"order":["swapped","shifted"],"probe_pitches":[8,14,9,14,15,13,7,14,3,5,6,9],"shifted_pitches":[8,14,9,14,15,12,7,14,3,5,6,9],"swapped_pitches":[8,14,9,14,15,7,13,14,3,5,6,9],"shift_direction":-1,"question_num":91,"has_decoy":false},{"rt":1064.4000000059605,"stimulus":"[A] option 1, [L] option 2, [G] neither","key_press":71,"name":"choice","trial_type":"html-keyboard-response","trial_index":120,"time_elapsed":215713,"internal_node_id":"0.0-120.0","subject":"S1C1219","sona":"41648","block":2,"time":"2021-09-16T01:47:15.438Z","response":"neither","certainty":"high","char":"G","transposition":-1,"order":["shifted","swapped"],"probe_pitches":[-3,2,-3,4,9,-1,4,7,2,4,7,2],"shifted_pitches":[-3,2,-3,4,9,-1,5,7,2,4,7,2],"swapped_pitches":[-3,2,-3,4,9,4,-1,7,2,4,7,2],"shift_direction":1,"question_num":101,"has_decoy":false},{"rt":315.6000000014901,"stimulus":"[A] option 1, [L] option 2, [G] neither","key_press":65,"name":"choice","trial_type":"html-keyboard-response","trial_index":131,"time_elapsed":234586,"internal_node_id":"0.0-131.0","subject":"S1C1219","sona":"41648","block":2,"time":"2021-09-16T01:47:15.438Z","response":"1st","certainty":"high","char":"A","transposition":0,"order":["swapped","shifted"],"probe_pitches":[9,4,-3,0,4,7,0,2,4,7,4,0],"shifted_pitches":[9,4,-3,0,4,7,1,2,4,7,4,0],"swapped_pitches":[9,4,-3,0,4,0,7,2,4,7,4,0],"shift_direction":1,"question_num":111,"has_decoy":false},{"rt":3971.9000000059605,"stimulus":"[A] option 1, [L] option 2, [G] neither","key_press":76,"name":"choice","trial_type":"html-keyboard-response","trial_index":142,"time_elapsed":256819,"internal_node_id":"0.0-142.0","subject":"S1C1219","sona":"41648","block":2,"time":"2021-09-16T01:47:15.438Z","response":"2nd","certainty":"high","char":"L","transposition":-1,"order":["shifted","swapped"],"probe_pitches":[8,9,5,11,4,5,12,8,3,11,14,3],"shifted_pitches":[8,9,5,11,4,5,13,8,3,11,14,3],"swapped_pitches":[8,9,5,11,4,12,5,8,3,11,14,3],"shift_direction":1,"question_num":121,"has_decoy":false},{"rt":279.5,"stimulus":"[A] option 1, [L] option 2, [G] neither","key_press":76,"name":"choice","trial_type":"html-keyboard-response","trial_index":153,"time_elapsed":276126,"internal_node_id":"0.0-153.0","subject":"S1C1219","sona":"41648","block":2,"time":"2021-09-16T01:47:15.438Z","response":"2nd","certainty":"high","char":"L","transposition":-3,"order":["shifted","swapped"],"probe_pitches":[7,4,8,5,13,8,11,4,7,11,12,15],"shifted_pitches":[7,4,8,5,13,9,11,4,7,11,12,15],"swapped_pitches":[7,4,8,5,13,11,8,4,7,11,12,15],"shift_direction":1,"question_num":131,"has_decoy":false},{"rt":228.60000000149012,"stimulus":"[A] option 1, [L] option 2, [G] neither","key_press":65,"name":"choice","trial_type":"html-keyboard-response","trial_index":164,"time_elapsed":294884,"internal_node_id":"0.0-164.0","subject":"S1C1219","sona":"41648","block":2,"time":"2021-09-16T01:47:15.438Z","response":"1st","certainty":"high","char":"A","transposition":3,"order":["shifted","swapped"],"probe_pitches":[7,5,7,9,5,0,9,2,9,7,0,9],"shifted_pitches":[7,5,7,9,5,1,9,2,9,7,0,9],"swapped_pitches":[7,5,7,9,5,9,0,2,9,7,0,9],"shift_direction":1,"question_num":141,"has_decoy":false},{"rt":2951,"stimulus":"[A] option 1, [L] option 2, [G] neither","key_press":65,"name":"choice","trial_type":"html-keyboard-response","trial_index":175,"time_elapsed":316421,"internal_node_id":"0.0-175.0","subject":"S1C1219","sona":"41648","block":2,"time":"2021-09-16T01:47:15.438Z","response":"1st","certainty":"high","char":"A","transposition":-3,"order":["shifted","swapped"],"probe_pitches":[-3,2,5,2,5,-3,0,9,0,7,2,7],"shifted_pitches":[-3,2,5,2,5,-4,0,9,0,7,2,7],"swapped_pitches":[-3,2,5,2,5,0,-3,9,0,7,2,7],"shift_direction":-1,"question_num":151,"has_decoy":false},{"rt":263.79999999701977,"stimulus":"[A] option 1, [L] option 2, [G] neither","key_press":76,"name":"choice","trial_type":"html-keyboard-response","trial_index":186,"time_elapsed":335694,"internal_node_id":"0.0-186.0","subject":"S1C1219","sona":"41648","block":2,"time":"2021-09-16T01:47:15.438Z","response":"2nd","certainty":"high","char":"L","transposition":2,"order":["swapped","shifted"],"probe_pitches":[10,7,13,12,3,7,9,12,7,10,6,3],"shifted_pitches":[10,7,13,12,3,7,8,12,7,10,6,3],"swapped_pitches":[10,7,13,12,3,9,7,12,7,10,6,3],"shift_direction":-1,"question_num":161,"has_decoy":false},{"rt":542.2999999970198,"stimulus":"[A] option 1, [L] option 2, [G] neither","key_press":65,"name":"choice","trial_type":"html-keyboard-response","trial_index":197,"time_elapsed":354747,"internal_node_id":"0.0-197.0","subject":"S1C1219","sona":"41648","block":2,"time":"2021-09-16T01:47:15.438Z","response":"1st","certainty":"high","char":"A","transposition":-1,"order":["swapped","shifted"],"probe_pitches":[2,-1,6,9,4,9,2,6,4,9,-1,2],"shifted_pitches":[2,-1,6,9,4,9,3,6,4,9,-1,2],"swapped_pitches":[2,-1,6,9,4,2,9,6,4,9,-1,2],"shift_direction":1,"question_num":171,"has_decoy":false},{"rt":234.10000000149012,"stimulus":"[A] option 1, [L] option 2, [G] neither","key_press":76,"name":"choice","trial_type":"html-keyboard-response","trial_index":208,"time_elapsed":374321,"internal_node_id":"0.0-208.0","subject":"S1C1219","sona":"41648","block":2,"time":"2021-09-16T01:47:15.438Z","response":"2nd","certainty":"high","char":"L","transposition":2,"order":["swapped","shifted"],"probe_pitches":[9,4,-3,-1,4,-1,7,-3,4,2,-1,7],"shifted_pitches":[9,4,-3,-1,4,-2,7,-3,4,2,-1,7],"swapped_pitches":[9,4,-3,-1,4,7,-1,-3,4,2,-1,7],"shift_direction":-1,"question_num":181,"has_decoy":false},{"rt":527.6000000014901,"stimulus":"[A] option 1, [L] option 2, [G] neither","key_press":76,"name":"choice","trial_type":"html-keyboard-response","trial_index":219,"time_elapsed":393539,"internal_node_id":"0.0-219.0","subject":"S1C1219","sona":"41648","block":2,"time":"2021-09-16T01:47:15.438Z","response":"2nd","certainty":"high","char":"L","transposition":1,"order":["swapped","shifted"],"probe_pitches":[5,11,5,6,12,3,11,15,7,13,3,12],"shifted_pitches":[5,11,5,6,12,3,10,15,7,13,3,12],"swapped_pitches":[5,11,5,6,12,11,3,15,7,13,3,12],"shift_direction":-1,"question_num":191,"has_decoy":false}]