[{"rt":6612.89999999851,"stimulus":"[A] option 1, [L] option 2, [G] neither","key_press":76,"name":"choice","trial_type":"html-keyboard-response","trial_index":15,"time_elapsed":134976,"internal_node_id":"0.0-15.0","response":"2nd","certainty":"high","char":"L","transposition":-3,"order":["swapped","shifted"],"probe_pitches":[3,5,3,6,13,10,4,8,4,10,5,6],"shifted_pitches":[3,5,3,6,13,9,4,8,4,10,5,6],"swapped_pitches":[3,5,3,6,13,4,10,8,4,10,5,6],"shift_direction":-1,"question_num":1,"has_decoy":false,"subject":"S1C1219","sona":"41648","block":1,"time":"2021-09-16T01:40:37.258Z"},{"rt":1740.3000000044703,"stimulus":"[A] option 1, [L] option 2, [G] neither","key_press":65,"name":"choice","trial_type":"html-keyboard-response","trial_index":26,"time_elapsed":156301,"internal_node_id":"0.0-26.0","response":"1st","certainty":"high","char":"A","transposition":0,"order":["shifted","swapped"],"probe_pitches":[1,4,11,13,8,1,6,11,13,6,8,1],"shifted_pitches":[1,4,11,13,8,2,6,11,13,6,8,1],"swapped_pitches":[1,4,11,13,8,6,1,11,13,6,8,1],"shift_direction":1,"question_num":11,"has_decoy":false,"subject":"S1C1219","sona":"41648","block":1,"time":"2021-09-16T01:40:37.258Z"},{"rt":1272.7000000029802,"stimulus":"[A] option 1, [L] option 2, [G] neither","key_press":76,"name":"choice","trial_type":"html-keyboard-response","trial_index":37,"time_elapsed":176552,"internal_node_id":"0.0-37.0","response":"2nd","certainty":"high","char":"L","transposition":2,"order":["swapped","shifted"],"probe_pitches":[6,12,11,13,10,13,11,6,4,13,8,10],"shifted_pitches":[6,12,11,13,10,14,11,6,4,13,8,10],"swapped_pitches":[6,12,11,13,10,11,13,6,4,13,8,10],"shift_direction":1,"question_num":21,"has_decoy":false,"subject":"S1C1219","sona":"41648","block":1,"time":"2021-09-16T01:40:37.258Z"},{"rt":1875,"stimulus":"[A] option 1, [L] option 2, [G] neither","key_press":65,"name":"choice","trial_type":"html-keyboard-response","trial_index":48,"time_elapsed":197664,"internal_node_id":"0.0-48.0","response":"1st","certainty":"high","char":"A","transposition":-2,"order":["swapped","shifted"],"probe_pitches":[13,11,13,6,11,13,4,11,6,4,13,9],"shifted_pitches":[13,11,13,6,11,13,5,11,6,4,13,9],"swapped_pitches":[13,11,13,6,11,4,13,11,6,4,13,9],"shift_direction":1,"question_num":31,"has_decoy":false,"subject":"S1C1219","sona":"41648","block":1,"time":"2021-09-16T01:40:37.258Z"},{"rt":1070.9000000059605,"stimulus":"[A] option 1, [L] option 2, [G] neither","key_press":65,"name":"choice","trial_type":"html-keyboard-response","trial_index":59,"time_elapsed":220539,"internal_node_id":"0.0-59.0","response":"1st","certainty":"high","char":"A","transposition":-1,"order":["shifted","swapped"],"probe_pitches":[3,5,6,7,14,7,4,12,11,10,14,3],"shifted_pitches":[3,5,6,7,14,8,4,12,11,10,14,3],"swapped_pitches":[3,5,6,7,14,4,7,12,11,10,14,3],"shift_direction":1,"question_num":41,"has_decoy":false,"subject":"S1C1219","sona":"41648","block":1,"time":"2021-09-16T01:40:37.258Z"},{"rt":314.1000000014901,"stimulus":"[A] option 1, [L] option 2, [G] neither","key_press":76,"name":"choice","trial_type":"html-keyboard-response","trial_index":70,"time_elapsed":239991,"internal_node_id":"0.0-70.0","response":"2nd","certainty":"high","char":"L","transposition":-3,"order":["swapped","shifted"],"probe_pitches":[5,1,5,10,1,3,8,10,5,13,1,5],"shifted_pitches":[5,1,5,10,1,2,8,10,5,13,1,5],"swapped_pitches":[5,1,5,10,1,8,3,10,5,13,1,5],"shift_direction":-1,"question_num":51,"has_decoy":false,"subject":"S1C1219","sona":"41648","block":1,"time":"2021-09-16T01:40:37.258Z"},{"rt":318.20000000298023,"stimulus":"[A] option 1, [L] option 2, [G] neither","key_press":65,"name":"choice","trial_type":"html-keyboard-response","trial_index":81,"time_elapsed":258582,"internal_node_id":"0.0-81.0","response":"1st","certainty":"high","char":"A","transposition":-3,"order":["shifted","swapped"],"probe_pitches":[8,5,8,10,8,1,5,10,8,10,1,3],"shifted_pitches":[8,5,8,10,8,0,5,10,8,10,1,3],"swapped_pitches":[8,5,8,10,8,5,1,10,8,10,1,3],"shift_direction":-1,"question_num":61,"has_decoy":false,"subject":"S1C1219","sona":"41648","block":1,"time":"2021-09-16T01:40:37.258Z"},{"rt":408.30000000447035,"stimulus":"[A] option 1, [L] option 2, [G] neither","key_press":65,"name":"choice","trial_type":"html-keyboard-response","trial_index":92,"time_elapsed":277701,"internal_node_id":"0.0-92.0","response":"1st","certainty":"high","char":"A","transposition":-2,"order":["swapped","shifted"],"probe_pitches":[8,13,6,1,8,3,11,13,6,3,1,3],"shifted_pitches":[8,13,6,1,8,3,10,13,6,3,1,3],"swapped_pitches":[8,13,6,1,8,11,3,13,6,3,1,3],"shift_direction":-1,"question_num":71,"has_decoy":false,"subject":"S1C1219","sona":"41648","block":1,"time":"2021-09-16T01:40:37.258Z"},{"rt":589.3999999985099,"stimulus":"[A] option 1, [L] option 2, [G] neither","key_press":76,"name":"choice","trial_type":"html-keyboard-response","trial_index":103,"time_elapsed":297330,"internal_node_id":"0.0-103.0","response":"2nd","certainty":"high","char":"L","transposition":-1,"order":["swapped","shifted"],"probe_pitches":[14,11,13,10,8,7,5,9,10,4,13,7],"shifted_pitches":[14,11,13,10,8,7,6,9,10,4,13,7],"swapped_pitches":[14,11,13,10,8,5,7,9,10,4,13,7],"shift_direction":1,"question_num":81,"has_decoy":false,"subject":"S1C1219","sona":"41648","block":1,"time":"2021-09-16T01:40:37.258Z"},{"rt":306.8999999985099,"stimulus":"[A] option 1, [L] option 2, [G] neither","key_press":76,"name":"choice","trial_type":"html-keyboard-response","trial_index":114,"time_elapsed":316378,"internal_node_id":"0.0-114.0","response":"2nd","certainty":"high","char":"L","transposition":-2,"order":["shifted","swapped"],"probe_pitches":[6,4,9,7,14,7,12,10,3,7,6,8],"shifted_pitches":[6,4,9,7,14,7,13,10,3,7,6,8],"swapped_pitches":[6,4,9,7,14,12,7,10,3,7,6,8],"shift_direction":1,"question_num":91,"has_decoy":false,"subject":"S1C1219","sona":"41648","block":1,"time":"2021-09-16T01:40:37.258Z"},{"rt":684.2999999970198,"stimulus":"[A] option 1, [L] option 2, [G] neither","key_press":65,"name":"choice","trial_type":"html-keyboard-response","trial_index":125,"time_elapsed":335112,"internal_node_id":"0.0-125.0","response":"1st","certainty":"high","char":"A","transposition":-2,"order":["shifted","swapped"],"probe_pitches":[13,9,6,10,12,14,8,13,3,10,5,3],"shifted_pitches":[13,9,6,10,12,14,7,13,3,10,5,3],"swapped_pitches":[13,9,6,10,12,8,14,13,3,10,5,3],"shift_direction":-1,"question_num":101,"has_decoy":false,"subject":"S1C1219","sona":"41648","block":1,"time":"2021-09-16T01:40:37.258Z"},{"rt":1887.1000000014901,"stimulus":"[A] option 1, [L] option 2, [G] neither","key_press":65,"name":"choice","trial_type":"html-keyboard-response","trial_index":136,"time_elapsed":356365,"internal_node_id":"0.0-136.0","response":"1st","certainty":"high","char":"A","transposition":1,"order":["swapped","shifted"],"probe_pitches":[6,1,6,3,6,13,3,8,1,10,3,8],"shifted_pitches":[6,1,6,3,6,13,4,8,1,10,3,8],"swapped_pitches":[6,1,6,3,6,3,13,8,1,10,3,8],"shift_direction":1,"question_num":111,"has_decoy":false,"subject":"S1C1219","sona":"41648","block":1,"time":"2021-09-16T01:40:37.258Z"},{"rt":664.3000000044703,"stimulus":"[A] option 1, [L] option 2, [G] neither","key_press":65,"name":"choice","trial_type":"html-keyboard-response","trial_index":147,"time_elapsed":375159,"internal_node_id":"0.0-147.0","response":"1st","certainty":"high","char":"A","transposition":-3,"order":["shifted","swapped"],"probe_pitches":[9,3,5,13,14,13,8,10,5,14,15,11],"shifted_pitches":[9,3,5,13,14,12,8,10,5,14,15,11],"swapped_pitches":[9,3,5,13,14,8,13,10,5,14,15,11],"shift_direction":-1,"question_num":121,"has_decoy":false,"subject":"S1C1219","sona":"41648","block":1,"time":"2021-09-16T01:40:37.258Z"},{"rt":867.3999999985099,"stimulus":"[A] option 1, [L] option 2, [G] neither","key_press":76,"name":"choice","trial_type":"html-keyboard-response","trial_index":158,"time_elapsed":395657,"internal_node_id":"0.0-158.0","response":"2nd","certainty":"high","char":"L","transposition":0,"order":["swapped","shifted"],"probe_pitches":[5,4,3,10,3,12,6,5,3,5,14,3],"shifted_pitches":[5,4,3,10,3,11,6,5,3,5,14,3],"swapped_pitches":[5,4,3,10,3,6,12,5,3,5,14,3],"shift_direction":-1,"question_num":131,"has_decoy":false,"subject":"S1C1219","sona":"41648","block":1,"time":"2021-09-16T01:40:37.258Z"},{"rt":1727.6000000014901,"stimulus":"[A] option 1, [L] option 2, [G] neither","key_press":65,"name":"choice","trial_type":"html-keyboard-response","trial_index":169,"time_elapsed":415819,"internal_node_id":"0.0-169.0","response":"1st","certainty":"high","char":"A","transposition":3,"order":["shifted","swapped"],"probe_pitches":[6,8,3,11,13,3,1,13,6,8,6,3],"shifted_pitches":[6,8,3,11,13,3,2,13,6,8,6,3],"swapped_pitches":[6,8,3,11,13,1,3,13,6,8,6,3],"shift_direction":1,"question_num":141,"has_decoy":false,"subject":"S1C1219","sona":"41648","block":1,"time":"2021-09-16T01:40:37.258Z"},{"rt":301.5,"stimulus":"[A] option 1, [L] option 2, [G] neither","key_press":76,"name":"choice","trial_type":"html-keyboard-response","trial_index":180,"time_elapsed":434438,"internal_node_id":"0.0-180.0","response":"2nd","certainty":"high","char":"L","transposition":-1,"order":["swapped","shifted"],"probe_pitches":[3,6,3,10,8,6,13,10,8,10,8,3],"shifted_pitches":[3,6,3,10,8,6,14,10,8,10,8,3],"swapped_pitches":[3,6,3,10,8,13,6,10,8,10,8,3],"shift_direction":1,"question_num":151,"has_decoy":false,"subject":"S1C1219","sona":"41648","block":1,"time":"2021-09-16T01:40:37.258Z"},{"rt":2045.6000000014901,"stimulus":"[A] option 1, [L] option 2, [G] neither","key_press":65,"name":"choice","trial_type":"html-keyboard-response","trial_index":191,"time_elapsed":455223,"internal_node_id":"0.0-191.0","response":"1st","certainty":"high","char":"A","transposition":2,"order":["shifted","swapped"],"probe_pitches":[13,11,8,4,6,11,1,6,11,13,1,13],"shifted_pitches":[13,11,8,4,6,10,1,6,11,13,1,13],"swapped_pitches":[13,11,8,4,6,1,11,6,11,13,1,13],"shift_direction":-1,"question_num":161,"has_decoy":false,"subject":"S1C1219","sona":"41648","block":1,"time":"2021-09-16T01:40:37.258Z"},{"rt":3245.0999999940395,"stimulus":"[A] option 1, [L] option 2, [G] neither","key_press":65,"name":"choice","trial_type":"html-keyboard-response","trial_index":202,"time_elapsed":477623,"internal_node_id":"0.0-202.0","response":"1st","certainty":"high","char":"A","transposition":-1,"order":["shifted","swapped"],"probe_pitches":[4,6,9,11,9,6,4,11,9,1,6,9],"shifted_pitches":[4,6,9,11,9,5,4,11,9,1,6,9],"swapped_pitches":[4,6,9,11,9,4,6,11,9,1,6,9],"shift_direction":-1,"question_num":171,"has_decoy":false,"subject":"S1C1219","sona":"41648","block":1,"time":"2021-09-16T01:40:37.258Z"},{"rt":316.80000000447035,"stimulus":"[A] option 1, [L] option 2, [G] neither","key_press":76,"name":"choice","trial_type":"html-keyboard-response","trial_index":213,"time_elapsed":497433,"internal_node_id":"0.0-213.0","response":"2nd","certainty":"high","char":"L","transposition":3,"order":["shifted","swapped"],"probe_pitches":[3,9,15,8,7,6,4,11,15,9,7,8],"shifted_pitches":[3,9,15,8,7,6,5,11,15,9,7,8],"swapped_pitches":[3,9,15,8,7,4,6,11,15,9,7,8],"shift_direction":1,"question_num":181,"has_decoy":false,"subject":"S1C1219","sona":"41648","block":1,"time":"2021-09-16T01:40:37.258Z"},{"rt":322.6000000014901,"stimulus":"[A] option 1, [L] option 2, [G] neither","key_press":65,"name":"choice","trial_type":"html-keyboard-response","trial_index":224,"time_elapsed":517414,"internal_node_id":"0.0-224.0","response":"1st","certainty":"high","char":"A","transposition":1,"order":["swapped","shifted"],"probe_pitches":[12,11,14,11,4,6,11,14,3,7,4,3],"shifted_pitches":[12,11,14,11,4,6,10,14,3,7,4,3],"swapped_pitches":[12,11,14,11,4,11,6,14,3,7,4,3],"shift_direction":-1,"question_num":191,"has_decoy":false,"subject":"S1C1219","sona":"41648","block":1,"time":"2021-09-16T01:40:37.258Z"}]