[{"rt":234.39999999850988,"stimulus":"[A] option 1, [L] option 2, [G] neither","key_press":76,"name":"choice","trial_type":"html-keyboard-response","trial_index":10,"time_elapsed":22169,"internal_node_id":"0.0-10.0","subject":"S1C1219","sona":"41648","block":4,"time":"2021-09-16T02:00:15.221Z","response":"2nd","certainty":"high","char":"L","transposition":0,"order":["swapped","shifted"],"probe_pitches":[5,7,4,6,-1,0,9,10,9,-1,4,6],"shifted_pitches":[5,7,4,6,-1,0,8,10,9,-1,4,6],"swapped_pitches":[5,7,4,6,-1,9,0,10,9,-1,4,6],"shift_direction":-1,"question_num":1,"has_decoy":false},{"rt":1426.8000000044703,"stimulus":"[A] option 1, [L] option 2, [G] neither","key_press":76,"name":"choice","trial_type":"html-keyboard-response","trial_index":21,"time_elapsed":41769,"internal_node_id":"0.0-21.0","subject":"S1C1219","sona":"41648","block":4,"time":"2021-09-16T02:00:15.221Z","response":"2nd","certainty":"high","char":"L","transposition":2,"order":["swapped","shifted"],"probe_pitches":[8,4,11,6,11,4,6,1,6,11,8,11],"shifted_pitches":[8,4,11,6,11,4,5,1,6,11,8,11],"swapped_pitches":[8,4,11,6,11,6,4,1,6,11,8,11],"shift_direction":-1,"question_num":11,"has_decoy":false},{"rt":224.79999999701977,"stimulus":"[A] option 1, [L] option 2, [G] neither","key_press":76,"name":"choice","trial_type":"html-keyboard-response","trial_index":32,"time_elapsed":60276,"internal_node_id":"0.0-32.0","subject":"S1C1219","sona":"41648","block":4,"time":"2021-09-16T02:00:15.221Z","response":"2nd","certainty":"high","char":"L","transposition":3,"order":["shifted","swapped"],"probe_pitches":[-1,2,5,8,2,-1,4,7,2,8,1,10],"shifted_pitches":[-1,2,5,8,2,-1,3,7,2,8,1,10],"swapped_pitches":[-1,2,5,8,2,4,-1,7,2,8,1,10],"shift_direction":-1,"question_num":21,"has_decoy":false},{"rt":2136.10000000149,"stimulus":"[A] option 1, [L] option 2, [G] neither","key_press":71,"name":"choice","trial_type":"html-keyboard-response","trial_index":43,"time_elapsed":80555,"internal_node_id":"0.0-43.0","subject":"S1C1219","sona":"41648","block":4,"time":"2021-09-16T02:00:15.221Z","response":"neither","certainty":"high","char":"G","transposition":2,"order":["shifted","swapped"],"probe_pitches":[3,5,8,5,11,2,10,8,2,8,3,10],"shifted_pitches":[3,5,8,5,11,1,10,8,2,8,3,10],"swapped_pitches":[3,5,8,5,11,10,2,8,2,8,3,10],"shift_direction":-1,"question_num":31,"has_decoy":false},{"rt":297.6000000014901,"stimulus":"[A] option 1, [L] option 2, [G] neither","key_press":76,"name":"choice","trial_type":"html-keyboard-response","trial_index":54,"time_elapsed":100085,"internal_node_id":"0.0-54.0","subject":"S1C1219","sona":"41648","block":4,"time":"2021-09-16T02:00:15.221Z","response":"2nd","certainty":"high","char":"L","transposition":-3,"order":["swapped","shifted"],"probe_pitches":[11,6,11,6,-1,9,11,-1,1,4,-1,11],"shifted_pitches":[11,6,11,6,-1,9,10,-1,1,4,-1,11],"swapped_pitches":[11,6,11,6,-1,11,9,-1,1,4,-1,11],"shift_direction":-1,"question_num":41,"has_decoy":false},{"rt":290.1000000014901,"stimulus":"[A] option 1, [L] option 2, [G] neither","key_press":76,"name":"choice","trial_type":"html-keyboard-response","trial_index":65,"time_elapsed":118666,"internal_node_id":"0.0-65.0","subject":"S1C1219","sona":"41648","block":4,"time":"2021-09-16T02:00:15.221Z","response":"2nd","certainty":"high","char":"L","transposition":-2,"order":["swapped","shifted"],"probe_pitches":[4,9,4,-1,2,4,9,2,-1,7,11,9],"shifted_pitches":[4,9,4,-1,2,5,9,2,-1,7,11,9],"swapped_pitches":[4,9,4,-1,2,9,4,2,-1,7,11,9],"shift_direction":1,"question_num":51,"has_decoy":false},{"rt":1012.1999999955297,"stimulus":"[A] option 1, [L] option 2, [G] neither","key_press":65,"name":"choice","trial_type":"html-keyboard-response","trial_index":76,"time_elapsed":137924,"internal_node_id":"0.0-76.0","subject":"S1C1219","sona":"41648","block":4,"time":"2021-09-16T02:00:15.221Z","response":"1st","certainty":"high","char":"A","transposition":-3,"order":["shifted","swapped"],"probe_pitches":[8,11,4,8,4,11,8,6,1,4,1,-1],"shifted_pitches":[8,11,4,8,4,12,8,6,1,4,1,-1],"swapped_pitches":[8,11,4,8,4,8,11,6,1,4,1,-1],"shift_direction":1,"question_num":61,"has_decoy":false},{"rt":1073.3999999985099,"stimulus":"[A] option 1, [L] option 2, [G] neither","key_press":65,"name":"choice","trial_type":"html-keyboard-response","trial_index":87,"time_elapsed":157334,"internal_node_id":"0.0-87.0","subject":"S1C1219","sona":"41648","block":4,"time":"2021-09-16T02:00:15.221Z","response":"1st","certainty":"high","char":"A","transposition":3,"order":["shifted","swapped"],"probe_pitches":[11,9,2,9,2,9,4,6,9,4,11,4],"shifted_pitches":[11,9,2,9,2,8,4,6,9,4,11,4],"swapped_pitches":[11,9,2,9,2,4,9,6,9,4,11,4],"shift_direction":-1,"question_num":71,"has_decoy":false},{"rt":987.7000000029802,"stimulus":"[A] option 1, [L] option 2, [G] neither","key_press":65,"name":"choice","trial_type":"html-keyboard-response","trial_index":98,"time_elapsed":176626,"internal_node_id":"0.0-98.0","subject":"S1C1219","sona":"41648","block":4,"time":"2021-09-16T02:00:15.221Z","response":"1st","certainty":"high","char":"A","transposition":-1,"order":["swapped","shifted"],"probe_pitches":[6,11,6,3,6,3,-1,8,11,1,8,11],"shifted_pitches":[6,11,6,3,6,2,-1,8,11,1,8,11],"swapped_pitches":[6,11,6,3,6,-1,3,8,11,1,8,11],"shift_direction":-1,"question_num":81,"has_decoy":false},{"rt":611.2000000029802,"stimulus":"[A] option 1, [L] option 2, [G] neither","key_press":76,"name":"choice","trial_type":"html-keyboard-response","trial_index":109,"time_elapsed":195534,"internal_node_id":"0.0-109.0","subject":"S1C1219","sona":"41648","block":4,"time":"2021-09-16T02:00:15.221Z","response":"2nd","certainty":"high","char":"L","transposition":1,"order":["swapped","shifted"],"probe_pitches":[-1,1,4,9,4,9,1,11,1,6,4,1],"shifted_pitches":[-1,1,4,9,4,9,2,11,1,6,4,1],"swapped_pitches":[-1,1,4,9,4,1,9,11,1,6,4,1],"shift_direction":1,"question_num":91,"has_decoy":false},{"rt":236.39999999850988,"stimulus":"[A] option 1, [L] option 2, [G] neither","key_press":76,"name":"choice","trial_type":"html-keyboard-response","trial_index":120,"time_elapsed":213881,"internal_node_id":"0.0-120.0","subject":"S1C1219","sona":"41648","block":4,"time":"2021-09-16T02:00:15.221Z","response":"2nd","certainty":"high","char":"L","transposition":-2,"order":["swapped","shifted"],"probe_pitches":[-1,0,1,2,7,6,4,9,-1,6,2,0],"shifted_pitches":[-1,0,1,2,7,6,5,9,-1,6,2,0],"swapped_pitches":[-1,0,1,2,7,4,6,9,-1,6,2,0],"shift_direction":1,"question_num":101,"has_decoy":false},{"rt":327.20000000298023,"stimulus":"[A] option 1, [L] option 2, [G] neither","key_press":76,"name":"choice","trial_type":"html-keyboard-response","trial_index":131,"time_elapsed":232984,"internal_node_id":"0.0-131.0","subject":"S1C1219","sona":"41648","block":4,"time":"2021-09-16T02:00:15.221Z","response":"2nd","certainty":"high","char":"L","transposition":-3,"order":["swapped","shifted"],"probe_pitches":[11,7,10,3,6,10,3,-1,7,8,11,-1],"shifted_pitches":[11,7,10,3,6,10,2,-1,7,8,11,-1],"swapped_pitches":[11,7,10,3,6,3,10,-1,7,8,11,-1],"shift_direction":-1,"question_num":111,"has_decoy":false},{"rt":223.5,"stimulus":"[A] option 1, [L] option 2, [G] neither","key_press":76,"name":"choice","trial_type":"html-keyboard-response","trial_index":142,"time_elapsed":251555,"internal_node_id":"0.0-142.0","subject":"S1C1219","sona":"41648","block":4,"time":"2021-09-16T02:00:15.221Z","response":"2nd","certainty":"high","char":"L","transposition":-1,"order":["shifted","swapped"],"probe_pitches":[-1,0,2,10,2,5,1,8,10,7,1,-1],"shifted_pitches":[-1,0,2,10,2,6,1,8,10,7,1,-1],"swapped_pitches":[-1,0,2,10,2,1,5,8,10,7,1,-1],"shift_direction":1,"question_num":121,"has_decoy":false},{"rt":324.79999999701977,"stimulus":"[A] option 1, [L] option 2, [G] neither","key_press":65,"name":"choice","trial_type":"html-keyboard-response","trial_index":153,"time_elapsed":270146,"internal_node_id":"0.0-153.0","subject":"S1C1219","sona":"41648","block":4,"time":"2021-09-16T02:00:15.221Z","response":"1st","certainty":"high","char":"A","transposition":0,"order":["shifted","swapped"],"probe_pitches":[8,6,11,6,8,1,-1,6,1,11,3,1],"shifted_pitches":[8,6,11,6,8,1,0,6,1,11,3,1],"swapped_pitches":[8,6,11,6,8,-1,1,6,1,11,3,1],"shift_direction":1,"question_num":131,"has_decoy":false},{"rt":303,"stimulus":"[A] option 1, [L] option 2, [G] neither","key_press":76,"name":"choice","trial_type":"html-keyboard-response","trial_index":164,"time_elapsed":288776,"internal_node_id":"0.0-164.0","subject":"S1C1219","sona":"41648","block":4,"time":"2021-09-16T02:00:15.221Z","response":"2nd","certainty":"high","char":"L","transposition":-2,"order":["swapped","shifted"],"probe_pitches":[0,3,0,1,2,8,0,5,-1,1,4,3],"shifted_pitches":[0,3,0,1,2,9,0,5,-1,1,4,3],"swapped_pitches":[0,3,0,1,2,0,8,5,-1,1,4,3],"shift_direction":1,"question_num":141,"has_decoy":false},{"rt":277.1000000014901,"stimulus":"[A] option 1, [L] option 2, [G] neither","key_press":76,"name":"choice","trial_type":"html-keyboard-response","trial_index":175,"time_elapsed":307251,"internal_node_id":"0.0-175.0","subject":"S1C1219","sona":"41648","block":4,"time":"2021-09-16T02:00:15.221Z","response":"2nd","certainty":"high","char":"L","transposition":-1,"order":["shifted","swapped"],"probe_pitches":[2,4,11,7,-1,2,9,11,4,9,2,9],"shifted_pitches":[2,4,11,7,-1,3,9,11,4,9,2,9],"swapped_pitches":[2,4,11,7,-1,9,2,11,4,9,2,9],"shift_direction":1,"question_num":151,"has_decoy":false},{"rt":1616.7000000029802,"stimulus":"[A] option 1, [L] option 2, [G] neither","key_press":71,"name":"choice","trial_type":"html-keyboard-response","trial_index":186,"time_elapsed":327272,"internal_node_id":"0.0-186.0","subject":"S1C1219","sona":"41648","block":4,"time":"2021-09-16T02:00:15.221Z","response":"neither","certainty":"high","char":"G","transposition":1,"order":["shifted","swapped"],"probe_pitches":[10,11,4,11,4,8,9,1,0,-1,10,11],"shifted_pitches":[10,11,4,11,4,7,9,1,0,-1,10,11],"swapped_pitches":[10,11,4,11,4,9,8,1,0,-1,10,11],"shift_direction":-1,"question_num":161,"has_decoy":false},{"rt":1161.3000000044703,"stimulus":"[A] option 1, [L] option 2, [G] neither","key_press":65,"name":"choice","trial_type":"html-keyboard-response","trial_index":197,"time_elapsed":347083,"internal_node_id":"0.0-197.0","subject":"S1C1219","sona":"41648","block":4,"time":"2021-09-16T02:00:15.221Z","response":"1st","certainty":"high","char":"A","transposition":-2,"order":["shifted","swapped"],"probe_pitches":[-1,4,-1,6,4,2,6,4,6,9,2,6],"shifted_pitches":[-1,4,-1,6,4,2,5,4,6,9,2,6],"swapped_pitches":[-1,4,-1,6,4,6,2,4,6,9,2,6],"shift_direction":-1,"question_num":171,"has_decoy":false},{"rt":890.6000000014901,"stimulus":"[A] option 1, [L] option 2, [G] neither","key_press":65,"name":"choice","trial_type":"html-keyboard-response","trial_index":208,"time_elapsed":366288,"internal_node_id":"0.0-208.0","subject":"S1C1219","sona":"41648","block":4,"time":"2021-09-16T02:00:15.221Z","response":"1st","certainty":"high","char":"A","transposition":-1,"order":["shifted","swapped"],"probe_pitches":[5,1,7,9,8,3,5,0,3,-1,5,7],"shifted_pitches":[5,1,7,9,8,4,5,0,3,-1,5,7],"swapped_pitches":[5,1,7,9,8,5,3,0,3,-1,5,7],"shift_direction":1,"question_num":181,"has_decoy":false},{"rt":215,"stimulus":"[A] option 1, [L] option 2, [G] neither","key_press":65,"name":"choice","trial_type":"html-keyboard-response","trial_index":219,"time_elapsed":384973,"internal_node_id":"0.0-219.0","subject":"S1C1219","sona":"41648","block":4,"time":"2021-09-16T02:00:15.221Z","response":"1st","certainty":"high","char":"A","transposition":-3,"order":["swapped","shifted"],"probe_pitches":[7,1,5,3,2,8,9,11,0,4,8,2],"shifted_pitches":[7,1,5,3,2,8,10,11,0,4,8,2],"swapped_pitches":[7,1,5,3,2,9,8,11,0,4,8,2],"shift_direction":1,"question_num":191,"has_decoy":false}]