[{"rt":166.90000000596046,"stimulus":"[A] option 1, [L] option 2, [G] neither","key_press":76,"name":"choice","trial_type":"html-keyboard-response","trial_index":10,"time_elapsed":19337,"internal_node_id":"0.0-10.0","subject":"S1C1219","sona":"41648","block":6,"time":"2021-09-16T02:13:08.234Z","response":"2nd","certainty":"high","char":"L","transposition":-2,"order":["swapped","shifted"],"probe_pitches":[-2,3,-2,1,6,1,8,10,6,-2,10,1],"shifted_pitches":[-2,3,-2,1,6,1,7,10,6,-2,10,1],"swapped_pitches":[-2,3,-2,1,6,8,1,10,6,-2,10,1],"shift_direction":-1,"question_num":1,"has_decoy":false},{"rt":276.79999999701977,"stimulus":"[A] option 1, [L] option 2, [G] neither","key_press":65,"name":"choice","trial_type":"html-keyboard-response","trial_index":21,"time_elapsed":37844,"internal_node_id":"0.0-21.0","subject":"S1C1219","sona":"41648","block":6,"time":"2021-09-16T02:13:08.234Z","response":"1st","certainty":"high","char":"A","transposition":1,"order":["shifted","swapped"],"probe_pitches":[14,10,14,13,5,10,3,12,14,12,8,6],"shifted_pitches":[14,10,14,13,5,11,3,12,14,12,8,6],"swapped_pitches":[14,10,14,13,5,3,10,12,14,12,8,6],"shift_direction":1,"question_num":11,"has_decoy":false},{"rt":222.70000000298023,"stimulus":"[A] option 1, [L] option 2, [G] neither","key_press":65,"name":"choice","trial_type":"html-keyboard-response","trial_index":32,"time_elapsed":56500,"internal_node_id":"0.0-32.0","subject":"S1C1219","sona":"41648","block":6,"time":"2021-09-16T02:13:08.234Z","response":"1st","certainty":"high","char":"A","transposition":-2,"order":["shifted","swapped"],"probe_pitches":[12,13,11,13,14,7,10,8,5,12,14,3],"shifted_pitches":[12,13,11,13,14,7,9,8,5,12,14,3],"swapped_pitches":[12,13,11,13,14,10,7,8,5,12,14,3],"shift_direction":-1,"question_num":21,"has_decoy":false},{"rt":63.20000000298023,"stimulus":"[A] option 1, [L] option 2, [G] neither","key_press":65,"name":"choice","trial_type":"html-keyboard-response","trial_index":43,"time_elapsed":74841,"internal_node_id":"0.0-43.0","subject":"S1C1219","sona":"41648","block":6,"time":"2021-09-16T02:13:08.234Z","response":"1st","certainty":"high","char":"A","transposition":-3,"order":["shifted","swapped"],"probe_pitches":[10,7,2,0,7,10,2,-2,0,5,2,7],"shifted_pitches":[10,7,2,0,7,11,2,-2,0,5,2,7],"swapped_pitches":[10,7,2,0,7,2,10,-2,0,5,2,7],"shift_direction":1,"question_num":31,"has_decoy":false},{"rt":268.19999999552965,"stimulus":"[A] option 1, [L] option 2, [G] neither","key_press":76,"name":"choice","trial_type":"html-keyboard-response","trial_index":54,"time_elapsed":93431,"internal_node_id":"0.0-54.0","subject":"S1C1219","sona":"41648","block":6,"time":"2021-09-16T02:13:08.234Z","response":"2nd","certainty":"high","char":"L","transposition":-3,"order":["swapped","shifted"],"probe_pitches":[8,6,10,8,1,-2,3,10,1,3,1,3],"shifted_pitches":[8,6,10,8,1,-3,3,10,1,3,1,3],"swapped_pitches":[8,6,10,8,1,3,-2,10,1,3,1,3],"shift_direction":-1,"question_num":41,"has_decoy":false},{"rt":241.30000000447035,"stimulus":"[A] option 1, [L] option 2, [G] neither","key_press":76,"name":"choice","trial_type":"html-keyboard-response","trial_index":65,"time_elapsed":111899,"internal_node_id":"0.0-65.0","subject":"S1C1219","sona":"41648","block":6,"time":"2021-09-16T02:13:08.234Z","response":"2nd","certainty":"high","char":"L","transposition":2,"order":["swapped","shifted"],"probe_pitches":[11,10,9,8,2,6,10,14,9,12,11,9],"shifted_pitches":[11,10,9,8,2,5,10,14,9,12,11,9],"swapped_pitches":[11,10,9,8,2,10,6,14,9,12,11,9],"shift_direction":-1,"question_num":51,"has_decoy":false},{"rt":25.19999999552965,"stimulus":"[A] option 1, [L] option 2, [G] neither","key_press":65,"name":"choice","trial_type":"html-keyboard-response","trial_index":76,"time_elapsed":130138,"internal_node_id":"0.0-76.0","subject":"S1C1219","sona":"41648","block":6,"time":"2021-09-16T02:13:08.234Z","response":"1st","certainty":"high","char":"A","transposition":-3,"order":["shifted","swapped"],"probe_pitches":[14,13,14,7,4,2,9,12,11,12,4,12],"shifted_pitches":[14,13,14,7,4,2,10,12,11,12,4,12],"swapped_pitches":[14,13,14,7,4,9,2,12,11,12,4,12],"shift_direction":1,"question_num":61,"has_decoy":false},{"rt":2381.1999999955297,"stimulus":"[A] option 1, [L] option 2, [G] neither","key_press":71,"name":"choice","trial_type":"html-keyboard-response","trial_index":87,"time_elapsed":150641,"internal_node_id":"0.0-87.0","subject":"S1C1219","sona":"41648","block":6,"time":"2021-09-16T02:13:08.234Z","response":"neither","certainty":"high","char":"G","transposition":-1,"order":["shifted","swapped"],"probe_pitches":[-2,3,-2,5,1,8,5,1,-2,5,-2,8],"shifted_pitches":[-2,3,-2,5,1,7,5,1,-2,5,-2,8],"swapped_pitches":[-2,3,-2,5,1,5,8,1,-2,5,-2,8],"shift_direction":-1,"question_num":71,"has_decoy":false},{"rt":235.29999999701977,"stimulus":"[A] option 1, [L] option 2, [G] neither","key_press":76,"name":"choice","trial_type":"html-keyboard-response","trial_index":98,"time_elapsed":169162,"internal_node_id":"0.0-98.0","subject":"S1C1219","sona":"41648","block":6,"time":"2021-09-16T02:13:08.234Z","response":"2nd","certainty":"high","char":"L","transposition":1,"order":["swapped","shifted"],"probe_pitches":[10,5,8,3,1,3,10,1,10,5,3,-2],"shifted_pitches":[10,5,8,3,1,2,10,1,10,5,3,-2],"swapped_pitches":[10,5,8,3,1,10,3,1,10,5,3,-2],"shift_direction":-1,"question_num":81,"has_decoy":false},{"rt":225,"stimulus":"[A] option 1, [L] option 2, [G] neither","key_press":65,"name":"choice","trial_type":"html-keyboard-response","trial_index":109,"time_elapsed":188047,"internal_node_id":"0.0-109.0","subject":"S1C1219","sona":"41648","block":6,"time":"2021-09-16T02:13:08.234Z","response":"1st","certainty":"high","char":"A","transposition":-1,"order":["shifted","swapped"],"probe_pitches":[6,10,11,5,3,2,11,4,7,14,3,7],"shifted_pitches":[6,10,11,5,3,2,12,4,7,14,3,7],"swapped_pitches":[6,10,11,5,3,11,2,4,7,14,3,7],"shift_direction":1,"question_num":91,"has_decoy":false},{"rt":243.30000000447035,"stimulus":"[A] option 1, [L] option 2, [G] neither","key_press":76,"name":"choice","trial_type":"html-keyboard-response","trial_index":120,"time_elapsed":206320,"internal_node_id":"0.0-120.0","subject":"S1C1219","sona":"41648","block":6,"time":"2021-09-16T02:13:08.234Z","response":"2nd","certainty":"high","char":"L","transposition":-2,"order":["swapped","shifted"],"probe_pitches":[3,2,3,11,5,2,6,5,2,5,12,7],"shifted_pitches":[3,2,3,11,5,1,6,5,2,5,12,7],"swapped_pitches":[3,2,3,11,5,6,2,5,2,5,12,7],"shift_direction":-1,"question_num":101,"has_decoy":false},{"rt":245.89999999850988,"stimulus":"[A] option 1, [L] option 2, [G] neither","key_press":76,"name":"choice","trial_type":"html-keyboard-response","trial_index":131,"time_elapsed":224723,"internal_node_id":"0.0-131.0","subject":"S1C1219","sona":"41648","block":6,"time":"2021-09-16T02:13:08.234Z","response":"2nd","certainty":"high","char":"L","transposition":3,"order":["swapped","shifted"],"probe_pitches":[-2,0,3,10,5,10,3,8,3,5,10,0],"shifted_pitches":[-2,0,3,10,5,10,4,8,3,5,10,0],"swapped_pitches":[-2,0,3,10,5,3,10,8,3,5,10,0],"shift_direction":1,"question_num":111,"has_decoy":false},{"rt":62.899999998509884,"stimulus":"[A] option 1, [L] option 2, [G] neither","key_press":76,"name":"choice","trial_type":"html-keyboard-response","trial_index":142,"time_elapsed":243032,"internal_node_id":"0.0-142.0","subject":"S1C1219","sona":"41648","block":6,"time":"2021-09-16T02:13:08.234Z","response":"2nd","certainty":"high","char":"L","transposition":0,"order":["swapped","shifted"],"probe_pitches":[-2,3,5,-2,3,5,10,-2,10,0,5,7],"shifted_pitches":[-2,3,5,-2,3,4,10,-2,10,0,5,7],"swapped_pitches":[-2,3,5,-2,3,10,5,-2,10,0,5,7],"shift_direction":-1,"question_num":121,"has_decoy":false},{"rt":154.5,"stimulus":"[A] option 1, [L] option 2, [G] neither","key_press":76,"name":"choice","trial_type":"html-keyboard-response","trial_index":153,"time_elapsed":261243,"internal_node_id":"0.0-153.0","subject":"S1C1219","sona":"41648","block":6,"time":"2021-09-16T02:13:08.234Z","response":"2nd","certainty":"high","char":"L","transposition":3,"order":["swapped","shifted"],"probe_pitches":[13,12,5,9,4,5,7,13,12,10,6,4],"shifted_pitches":[13,12,5,9,4,5,8,13,12,10,6,4],"swapped_pitches":[13,12,5,9,4,7,5,13,12,10,6,4],"shift_direction":1,"question_num":131,"has_decoy":false},{"rt":211.70000000298023,"stimulus":"[A] option 1, [L] option 2, [G] neither","key_press":65,"name":"choice","trial_type":"html-keyboard-response","trial_index":164,"time_elapsed":280777,"internal_node_id":"0.0-164.0","subject":"S1C1219","sona":"41648","block":6,"time":"2021-09-16T02:13:08.234Z","response":"1st","certainty":"high","char":"A","transposition":-2,"order":["shifted","swapped"],"probe_pitches":[0,2,5,10,5,10,7,0,2,-2,2,0],"shifted_pitches":[0,2,5,10,5,10,8,0,2,-2,2,0],"swapped_pitches":[0,2,5,10,5,7,10,0,2,-2,2,0],"shift_direction":1,"question_num":141,"has_decoy":false},{"rt":996.6999999955297,"stimulus":"[A] option 1, [L] option 2, [G] neither","key_press":76,"name":"choice","trial_type":"html-keyboard-response","trial_index":175,"time_elapsed":299807,"internal_node_id":"0.0-175.0","subject":"S1C1219","sona":"41648","block":6,"time":"2021-09-16T02:13:08.234Z","response":"2nd","certainty":"high","char":"L","transposition":0,"order":["swapped","shifted"],"probe_pitches":[14,10,7,14,10,7,11,12,9,14,12,4],"shifted_pitches":[14,10,7,14,10,6,11,12,9,14,12,4],"swapped_pitches":[14,10,7,14,10,11,7,12,9,14,12,4],"shift_direction":-1,"question_num":151,"has_decoy":false},{"rt":348.3999999985099,"stimulus":"[A] option 1, [L] option 2, [G] neither","key_press":76,"name":"choice","trial_type":"html-keyboard-response","trial_index":186,"time_elapsed":318472,"internal_node_id":"0.0-186.0","subject":"S1C1219","sona":"41648","block":6,"time":"2021-09-16T02:13:08.234Z","response":"2nd","certainty":"high","char":"L","transposition":-1,"order":["swapped","shifted"],"probe_pitches":[6,11,12,4,11,3,6,10,12,10,14,5],"shifted_pitches":[6,11,12,4,11,3,7,10,12,10,14,5],"swapped_pitches":[6,11,12,4,11,6,3,10,12,10,14,5],"shift_direction":1,"question_num":161,"has_decoy":false},{"rt":218.5,"stimulus":"[A] option 1, [L] option 2, [G] neither","key_press":65,"name":"choice","trial_type":"html-keyboard-response","trial_index":197,"time_elapsed":336815,"internal_node_id":"0.0-197.0","subject":"S1C1219","sona":"41648","block":6,"time":"2021-09-16T02:13:08.234Z","response":"1st","certainty":"high","char":"A","transposition":-3,"order":["shifted","swapped"],"probe_pitches":[3,2,9,10,6,5,2,8,14,5,9,6],"shifted_pitches":[3,2,9,10,6,4,2,8,14,5,9,6],"swapped_pitches":[3,2,9,10,6,2,5,8,14,5,9,6],"shift_direction":-1,"question_num":171,"has_decoy":false},{"rt":344.29999999701977,"stimulus":"[A] option 1, [L] option 2, [G] neither","key_press":65,"name":"choice","trial_type":"html-keyboard-response","trial_index":208,"time_elapsed":355494,"internal_node_id":"0.0-208.0","subject":"S1C1219","sona":"41648","block":6,"time":"2021-09-16T02:13:08.234Z","response":"1st","certainty":"high","char":"A","transposition":-1,"order":["shifted","swapped"],"probe_pitches":[5,0,7,10,3,7,-2,3,-2,3,5,0],"shifted_pitches":[5,0,7,10,3,7,-1,3,-2,3,5,0],"swapped_pitches":[5,0,7,10,3,-2,7,3,-2,3,5,0],"shift_direction":1,"question_num":181,"has_decoy":false},{"rt":694.5,"stimulus":"[A] option 1, [L] option 2, [G] neither","key_press":71,"name":"choice","trial_type":"html-keyboard-response","trial_index":219,"time_elapsed":374676,"internal_node_id":"0.0-219.0","subject":"S1C1219","sona":"41648","block":6,"time":"2021-09-16T02:13:08.234Z","response":"neither","certainty":"high","char":"G","transposition":2,"order":["shifted","swapped"],"probe_pitches":[3,8,5,8,5,0,-2,10,8,-2,5,8],"shifted_pitches":[3,8,5,8,5,0,-1,10,8,-2,5,8],"swapped_pitches":[3,8,5,8,5,-2,0,10,8,-2,5,8],"shift_direction":1,"question_num":191,"has_decoy":false}]