[{"rt":7742,"stimulus":"[A] option 1, [L] option 2, [G] neither","key_press":65,"name":"choice","trial_type":"html-keyboard-response","trial_index":10,"time_elapsed":39282,"internal_node_id":"0.0-10.0","subject":"S1C1210","sona":"41677","block":2,"time":"2021-09-15T16:56:08.962Z","response":"1st","certainty":"high","char":"A","transposition":-1,"order":["swapped","shifted"],"probe_pitches":[-2,2,-2,2,5,10,7,-2,0,10,-2,7],"shifted_pitches":[-2,2,-2,2,5,10,6,-2,0,10,-2,7],"swapped_pitches":[-2,2,-2,2,5,7,10,-2,0,10,-2,7],"shift_direction":-1,"question_num":1,"has_decoy":false},{"rt":4350.39999999851,"stimulus":"[A] option 1, [L] option 2, [G] neither","key_press":76,"name":"choice","trial_type":"html-keyboard-response","trial_index":21,"time_elapsed":64078,"internal_node_id":"0.0-21.0","subject":"S1C1210","sona":"41677","block":2,"time":"2021-09-15T16:56:08.962Z","response":"2nd","certainty":"high","char":"L","transposition":-1,"order":["shifted","swapped"],"probe_pitches":[5,1,8,1,8,5,10,3,8,1,10,-2],"shifted_pitches":[5,1,8,1,8,5,11,3,8,1,10,-2],"swapped_pitches":[5,1,8,1,8,10,5,3,8,1,10,-2],"shift_direction":1,"question_num":11,"has_decoy":false},{"rt":4036.39999999851,"stimulus":"[A] option 1, [L] option 2, [G] neither","key_press":76,"name":"choice","trial_type":"html-keyboard-response","trial_index":32,"time_elapsed":93956,"internal_node_id":"0.0-32.0","subject":"S1C1210","sona":"41677","block":2,"time":"2021-09-15T16:56:08.962Z","response":"2nd","certainty":"high","char":"L","transposition":3,"order":["swapped","shifted"],"probe_pitches":[-2,0,7,10,3,9,1,3,5,4,5,7],"shifted_pitches":[-2,0,7,10,3,9,2,3,5,4,5,7],"swapped_pitches":[-2,0,7,10,3,1,9,3,5,4,5,7],"shift_direction":1,"question_num":21,"has_decoy":false},{"rt":2076.8000000044703,"stimulus":"[A] option 1, [L] option 2, [G] neither","key_press":65,"name":"choice","trial_type":"html-keyboard-response","trial_index":43,"time_elapsed":123276,"internal_node_id":"0.0-43.0","subject":"S1C1210","sona":"41677","block":2,"time":"2021-09-15T16:56:08.962Z","response":"1st","certainty":"high","char":"A","transposition":-3,"order":["shifted","swapped"],"probe_pitches":[7,10,3,0,-2,0,7,5,-2,0,7,5],"shifted_pitches":[7,10,3,0,-2,1,7,5,-2,0,7,5],"swapped_pitches":[7,10,3,0,-2,7,0,5,-2,0,7,5],"shift_direction":1,"question_num":31,"has_decoy":false},{"rt":988.1000000014901,"stimulus":"[A] option 1, [L] option 2, [G] neither","key_press":76,"name":"choice","trial_type":"html-keyboard-response","trial_index":54,"time_elapsed":147766,"internal_node_id":"0.0-54.0","subject":"S1C1210","sona":"41677","block":2,"time":"2021-09-15T16:56:08.962Z","response":"2nd","certainty":"high","char":"L","transposition":-3,"order":["shifted","swapped"],"probe_pitches":[-1,1,6,0,-1,6,0,-1,7,-1,4,3],"shifted_pitches":[-1,1,6,0,-1,5,0,-1,7,-1,4,3],"swapped_pitches":[-1,1,6,0,-1,0,6,-1,7,-1,4,3],"shift_direction":-1,"question_num":41,"has_decoy":false},{"rt":30958.89999999851,"stimulus":"[A] option 1, [L] option 2, [G] neither","key_press":65,"name":"choice","trial_type":"html-keyboard-response","trial_index":65,"time_elapsed":201279,"internal_node_id":"0.0-65.0","subject":"S1C1210","sona":"41677","block":2,"time":"2021-09-15T16:56:08.962Z","response":"1st","certainty":"high","char":"A","transposition":1,"order":["shifted","swapped"],"probe_pitches":[7,3,6,5,2,9,5,4,6,10,4,7],"shifted_pitches":[7,3,6,5,2,8,5,4,6,10,4,7],"swapped_pitches":[7,3,6,5,2,5,9,4,6,10,4,7],"shift_direction":-1,"question_num":51,"has_decoy":false},{"rt":4292.5,"stimulus":"[A] option 1, [L] option 2, [G] neither","key_press":65,"name":"choice","trial_type":"html-keyboard-response","trial_index":76,"time_elapsed":224943,"internal_node_id":"0.0-76.0","subject":"S1C1210","sona":"41677","block":2,"time":"2021-09-15T16:56:08.962Z","response":"1st","certainty":"high","char":"A","transposition":-1,"order":["swapped","shifted"],"probe_pitches":[-2,4,8,4,-2,2,6,-2,0,8,7,8],"shifted_pitches":[-2,4,8,4,-2,1,6,-2,0,8,7,8],"swapped_pitches":[-2,4,8,4,-2,6,2,-2,0,8,7,8],"shift_direction":-1,"question_num":61,"has_decoy":false},{"rt":2300.2000000029802,"stimulus":"[A] option 1, [L] option 2, [G] neither","key_press":71,"name":"choice","trial_type":"html-keyboard-response","trial_index":87,"time_elapsed":252518,"internal_node_id":"0.0-87.0","subject":"S1C1210","sona":"41677","block":2,"time":"2021-09-15T16:56:08.962Z","response":"neither","certainty":"high","char":"G","transposition":0,"order":["swapped","shifted"],"probe_pitches":[-2,3,0,1,0,2,6,9,3,1,5,3],"shifted_pitches":[-2,3,0,1,0,2,7,9,3,1,5,3],"swapped_pitches":[-2,3,0,1,0,6,2,9,3,1,5,3],"shift_direction":1,"question_num":71,"has_decoy":false},{"rt":1889.6999999955297,"stimulus":"[A] option 1, [L] option 2, [G] neither","key_press":76,"name":"choice","trial_type":"html-keyboard-response","trial_index":98,"time_elapsed":277777,"internal_node_id":"0.0-98.0","subject":"S1C1210","sona":"41677","block":2,"time":"2021-09-15T16:56:08.962Z","response":"2nd","certainty":"high","char":"L","transposition":0,"order":["shifted","swapped"],"probe_pitches":[3,5,1,-2,5,8,-2,5,10,-2,8,3],"shifted_pitches":[3,5,1,-2,5,7,-2,5,10,-2,8,3],"swapped_pitches":[3,5,1,-2,5,-2,8,5,10,-2,8,3],"shift_direction":-1,"question_num":81,"has_decoy":false},{"rt":8740.70000000298,"stimulus":"[A] option 1, [L] option 2, [G] neither","key_press":65,"name":"choice","trial_type":"html-keyboard-response","trial_index":109,"time_elapsed":313491,"internal_node_id":"0.0-109.0","subject":"S1C1210","sona":"41677","block":2,"time":"2021-09-15T16:56:08.962Z","response":"1st","certainty":"high","char":"A","transposition":-2,"order":["shifted","swapped"],"probe_pitches":[3,1,8,3,-2,8,3,-2,3,-2,6,3],"shifted_pitches":[3,1,8,3,-2,8,4,-2,3,-2,6,3],"swapped_pitches":[3,1,8,3,-2,3,8,-2,3,-2,6,3],"shift_direction":1,"question_num":91,"has_decoy":false},{"rt":3072.39999999851,"stimulus":"[A] option 1, [L] option 2, [G] neither","key_press":71,"name":"choice","trial_type":"html-keyboard-response","trial_index":120,"time_elapsed":340947,"internal_node_id":"0.0-120.0","subject":"S1C1210","sona":"41677","block":2,"time":"2021-09-15T16:56:08.962Z","response":"neither","certainty":"high","char":"G","transposition":2,"order":["swapped","shifted"],"probe_pitches":[8,5,10,3,-2,5,3,8,-2,8,0,3],"shifted_pitches":[8,5,10,3,-2,6,3,8,-2,8,0,3],"swapped_pitches":[8,5,10,3,-2,3,5,8,-2,8,0,3],"shift_direction":1,"question_num":101,"has_decoy":false},{"rt":8834.10000000149,"stimulus":"[A] option 1, [L] option 2, [G] neither","key_press":65,"name":"choice","trial_type":"html-keyboard-response","trial_index":131,"time_elapsed":406582,"internal_node_id":"0.0-131.0","subject":"S1C1210","sona":"41677","block":2,"time":"2021-09-15T16:56:08.962Z","response":"1st","certainty":"high","char":"A","transposition":-2,"order":["swapped","shifted"],"probe_pitches":[6,1,8,10,3,1,6,3,8,1,8,6],"shifted_pitches":[6,1,8,10,3,1,5,3,8,1,8,6],"swapped_pitches":[6,1,8,10,3,6,1,3,8,1,8,6],"shift_direction":-1,"question_num":111,"has_decoy":false},{"rt":417.79999999701977,"stimulus":"[A] option 1, [L] option 2, [G] neither","key_press":76,"name":"choice","trial_type":"html-keyboard-response","trial_index":142,"time_elapsed":429429,"internal_node_id":"0.0-142.0","subject":"S1C1210","sona":"41677","block":2,"time":"2021-09-15T16:56:08.962Z","response":"2nd","certainty":"high","char":"L","transposition":-2,"order":["shifted","swapped"],"probe_pitches":[10,5,8,7,9,4,-1,8,9,6,1,3],"shifted_pitches":[10,5,8,7,9,4,0,8,9,6,1,3],"swapped_pitches":[10,5,8,7,9,-1,4,8,9,6,1,3],"shift_direction":1,"question_num":121,"has_decoy":false},{"rt":124892.80000000447,"stimulus":"[A] option 1, [L] option 2, [G] neither","key_press":71,"name":"choice","trial_type":"html-keyboard-response","trial_index":153,"time_elapsed":627355,"internal_node_id":"0.0-153.0","subject":"S1C1210","sona":"41677","block":2,"time":"2021-09-15T16:56:08.962Z","response":"neither","certainty":"high","char":"G","transposition":3,"order":["swapped","shifted"],"probe_pitches":[5,10,5,3,10,5,7,0,-2,0,-2,0],"shifted_pitches":[5,10,5,3,10,4,7,0,-2,0,-2,0],"swapped_pitches":[5,10,5,3,10,7,5,0,-2,0,-2,0],"shift_direction":-1,"question_num":131,"has_decoy":false},{"rt":1521.7000000029802,"stimulus":"[A] option 1, [L] option 2, [G] neither","key_press":65,"name":"choice","trial_type":"html-keyboard-response","trial_index":164,"time_elapsed":651293,"internal_node_id":"0.0-164.0","subject":"S1C1210","sona":"41677","block":2,"time":"2021-09-15T16:56:08.962Z","response":"1st","certainty":"high","char":"A","transposition":-3,"order":["swapped","shifted"],"probe_pitches":[0,3,5,0,8,0,10,5,3,5,-2,3],"shifted_pitches":[0,3,5,0,8,0,11,5,3,5,-2,3],"swapped_pitches":[0,3,5,0,8,10,0,5,3,5,-2,3],"shift_direction":1,"question_num":141,"has_decoy":false},{"rt":3968.60000000149,"stimulus":"[A] option 1, [L] option 2, [G] neither","key_press":65,"name":"choice","trial_type":"html-keyboard-response","trial_index":175,"time_elapsed":677047,"internal_node_id":"0.0-175.0","subject":"S1C1210","sona":"41677","block":2,"time":"2021-09-15T16:56:08.962Z","response":"1st","certainty":"high","char":"A","transposition":1,"order":["shifted","swapped"],"probe_pitches":[10,5,10,5,0,2,10,7,0,-2,7,10],"shifted_pitches":[10,5,10,5,0,1,10,7,0,-2,7,10],"swapped_pitches":[10,5,10,5,0,10,2,7,0,-2,7,10],"shift_direction":-1,"question_num":151,"has_decoy":false},{"rt":1138.6000000014901,"stimulus":"[A] option 1, [L] option 2, [G] neither","key_press":65,"name":"choice","trial_type":"html-keyboard-response","trial_index":186,"time_elapsed":699748,"internal_node_id":"0.0-186.0","subject":"S1C1210","sona":"41677","block":2,"time":"2021-09-15T16:56:08.962Z","response":"1st","certainty":"high","char":"A","transposition":-2,"order":["shifted","swapped"],"probe_pitches":[-1,-2,2,0,9,1,2,7,-2,8,1,-1],"shifted_pitches":[-1,-2,2,0,9,1,3,7,-2,8,1,-1],"swapped_pitches":[-1,-2,2,0,9,2,1,7,-2,8,1,-1],"shift_direction":1,"question_num":161,"has_decoy":false},{"rt":4271.60000000149,"stimulus":"[A] option 1, [L] option 2, [G] neither","key_press":76,"name":"choice","trial_type":"html-keyboard-response","trial_index":197,"time_elapsed":749361,"internal_node_id":"0.0-197.0","subject":"S1C1210","sona":"41677","block":2,"time":"2021-09-15T16:56:08.962Z","response":"2nd","certainty":"high","char":"L","transposition":-3,"order":["swapped","shifted"],"probe_pitches":[7,2,-2,2,6,3,1,-2,10,7,5,1],"shifted_pitches":[7,2,-2,2,6,4,1,-2,10,7,5,1],"swapped_pitches":[7,2,-2,2,6,1,3,-2,10,7,5,1],"shift_direction":1,"question_num":171,"has_decoy":false},{"rt":6139.10000000149,"stimulus":"[A] option 1, [L] option 2, [G] neither","key_press":65,"name":"choice","trial_type":"html-keyboard-response","trial_index":208,"time_elapsed":778609,"internal_node_id":"0.0-208.0","subject":"S1C1210","sona":"41677","block":2,"time":"2021-09-15T16:56:08.962Z","response":"1st","certainty":"high","char":"A","transposition":-1,"order":["shifted","swapped"],"probe_pitches":[10,9,7,-1,3,7,0,9,5,2,4,5],"shifted_pitches":[10,9,7,-1,3,6,0,9,5,2,4,5],"swapped_pitches":[10,9,7,-1,3,0,7,9,5,2,4,5],"shift_direction":-1,"question_num":181,"has_decoy":false},{"rt":1063,"stimulus":"[A] option 1, [L] option 2, [G] neither","key_press":76,"name":"choice","trial_type":"html-keyboard-response","trial_index":219,"time_elapsed":815405,"internal_node_id":"0.0-219.0","subject":"S1C1210","sona":"41677","block":2,"time":"2021-09-15T16:56:08.962Z","response":"2nd","certainty":"high","char":"L","transposition":2,"order":["swapped","shifted"],"probe_pitches":[5,2,6,3,1,-1,10,-2,2,0,3,7],"shifted_pitches":[5,2,6,3,1,-1,9,-2,2,0,3,7],"swapped_pitches":[5,2,6,3,1,10,-1,-2,2,0,3,7],"shift_direction":-1,"question_num":191,"has_decoy":false}]