[{"rt":2752.5,"stimulus":"[A] option 1, [L] option 2, [G] neither","key_press":71,"name":"choice","trial_type":"html-keyboard-response","trial_index":10,"time_elapsed":23534,"internal_node_id":"0.0-10.0","subject":"S1C1210","sona":"41677","block":3,"time":"2021-09-15T17:08:05.843Z","response":"neither","certainty":"high","char":"G","transposition":-3,"order":["shifted","swapped"],"probe_pitches":[11,13,9,1,4,11,13,6,11,6,11,4],"shifted_pitches":[11,13,9,1,4,12,13,6,11,6,11,4],"swapped_pitches":[11,13,9,1,4,13,11,6,11,6,11,4],"shift_direction":1,"question_num":1,"has_decoy":false},{"rt":2748.7000000029802,"stimulus":"[A] option 1, [L] option 2, [G] neither","key_press":65,"name":"choice","trial_type":"html-keyboard-response","trial_index":21,"time_elapsed":45441,"internal_node_id":"0.0-21.0","subject":"S1C1210","sona":"41677","block":3,"time":"2021-09-15T17:08:05.843Z","response":"1st","certainty":"high","char":"A","transposition":0,"order":["swapped","shifted"],"probe_pitches":[12,14,11,4,11,5,12,7,5,3,2,12],"shifted_pitches":[12,14,11,4,11,5,13,7,5,3,2,12],"swapped_pitches":[12,14,11,4,11,12,5,7,5,3,2,12],"shift_direction":1,"question_num":11,"has_decoy":false},{"rt":5040.29999999702,"stimulus":"[A] option 1, [L] option 2, [G] neither","key_press":76,"name":"choice","trial_type":"html-keyboard-response","trial_index":32,"time_elapsed":87492,"internal_node_id":"0.0-32.0","subject":"S1C1210","sona":"41677","block":3,"time":"2021-09-15T17:08:05.843Z","response":"2nd","certainty":"high","char":"L","transposition":1,"order":["swapped","shifted"],"probe_pitches":[2,7,3,8,13,4,9,6,7,2,14,2],"shifted_pitches":[2,7,3,8,13,4,10,6,7,2,14,2],"swapped_pitches":[2,7,3,8,13,9,4,6,7,2,14,2],"shift_direction":1,"question_num":21,"has_decoy":false},{"rt":6453.89999999851,"stimulus":"[A] option 1, [L] option 2, [G] neither","key_press":76,"name":"choice","trial_type":"html-keyboard-response","trial_index":43,"time_elapsed":127769,"internal_node_id":"0.0-43.0","subject":"S1C1210","sona":"41677","block":3,"time":"2021-09-15T17:08:05.843Z","response":"2nd","certainty":"high","char":"L","transposition":-1,"order":["shifted","swapped"],"probe_pitches":[10,13,10,3,5,8,10,5,1,10,13,3],"shifted_pitches":[10,13,10,3,5,8,11,5,1,10,13,3],"swapped_pitches":[10,13,10,3,5,10,8,5,1,10,13,3],"shift_direction":1,"question_num":31,"has_decoy":false},{"rt":68481.89999999851,"stimulus":"[A] option 1, [L] option 2, [G] neither","key_press":65,"name":"choice","trial_type":"html-keyboard-response","trial_index":54,"time_elapsed":219247,"internal_node_id":"0.0-54.0","subject":"S1C1210","sona":"41677","block":3,"time":"2021-09-15T17:08:05.843Z","response":"1st","certainty":"high","char":"A","transposition":3,"order":["shifted","swapped"],"probe_pitches":[4,6,8,11,8,11,13,8,4,11,6,8],"shifted_pitches":[4,6,8,11,8,11,14,8,4,11,6,8],"swapped_pitches":[4,6,8,11,8,13,11,8,4,11,6,8],"shift_direction":1,"question_num":41,"has_decoy":false},{"rt":1621.2999999970198,"stimulus":"[A] option 1, [L] option 2, [G] neither","key_press":65,"name":"choice","trial_type":"html-keyboard-response","trial_index":65,"time_elapsed":242878,"internal_node_id":"0.0-65.0","subject":"S1C1210","sona":"41677","block":3,"time":"2021-09-15T17:08:05.843Z","response":"1st","certainty":"high","char":"A","transposition":-1,"order":["swapped","shifted"],"probe_pitches":[12,14,8,13,9,14,7,10,5,11,3,9],"shifted_pitches":[12,14,8,13,9,14,6,10,5,11,3,9],"swapped_pitches":[12,14,8,13,9,7,14,10,5,11,3,9],"shift_direction":-1,"question_num":51,"has_decoy":false},{"rt":3095.5,"stimulus":"[A] option 1, [L] option 2, [G] neither","key_press":71,"name":"choice","trial_type":"html-keyboard-response","trial_index":76,"time_elapsed":270064,"internal_node_id":"0.0-76.0","subject":"S1C1210","sona":"41677","block":3,"time":"2021-09-15T17:08:05.843Z","response":"neither","certainty":"high","char":"G","transposition":2,"order":["shifted","swapped"],"probe_pitches":[13,9,8,3,9,6,8,4,6,11,10,7],"shifted_pitches":[13,9,8,3,9,5,8,4,6,11,10,7],"swapped_pitches":[13,9,8,3,9,8,6,4,6,11,10,7],"shift_direction":-1,"question_num":61,"has_decoy":false},{"rt":1544.5,"stimulus":"[A] option 1, [L] option 2, [G] neither","key_press":65,"name":"choice","trial_type":"html-keyboard-response","trial_index":87,"time_elapsed":299595,"internal_node_id":"0.0-87.0","subject":"S1C1210","sona":"41677","block":3,"time":"2021-09-15T17:08:05.843Z","response":"1st","certainty":"high","char":"A","transposition":-1,"order":["shifted","swapped"],"probe_pitches":[2,3,10,7,9,7,3,12,3,12,14,6],"shifted_pitches":[2,3,10,7,9,8,3,12,3,12,14,6],"swapped_pitches":[2,3,10,7,9,3,7,12,3,12,14,6],"shift_direction":1,"question_num":71,"has_decoy":false},{"rt":1803.3999999985099,"stimulus":"[A] option 1, [L] option 2, [G] neither","key_press":76,"name":"choice","trial_type":"html-keyboard-response","trial_index":98,"time_elapsed":322638,"internal_node_id":"0.0-98.0","subject":"S1C1210","sona":"41677","block":3,"time":"2021-09-15T17:08:05.843Z","response":"2nd","certainty":"high","char":"L","transposition":-3,"order":["shifted","swapped"],"probe_pitches":[10,12,13,5,4,8,3,13,5,8,6,2],"shifted_pitches":[10,12,13,5,4,9,3,13,5,8,6,2],"swapped_pitches":[10,12,13,5,4,3,8,13,5,8,6,2],"shift_direction":1,"question_num":81,"has_decoy":false},{"rt":70539,"stimulus":"[A] option 1, [L] option 2, [G] neither","key_press":76,"name":"choice","trial_type":"html-keyboard-response","trial_index":109,"time_elapsed":414748,"internal_node_id":"0.0-109.0","subject":"S1C1210","sona":"41677","block":3,"time":"2021-09-15T17:08:05.843Z","response":"2nd","certainty":"high","char":"L","transposition":-2,"order":["swapped","shifted"],"probe_pitches":[11,9,4,6,4,1,11,13,11,13,9,13],"shifted_pitches":[11,9,4,6,4,1,10,13,11,13,9,13],"swapped_pitches":[11,9,4,6,4,11,1,13,11,13,9,13],"shift_direction":-1,"question_num":91,"has_decoy":false},{"rt":1838.4000000059605,"stimulus":"[A] option 1, [L] option 2, [G] neither","key_press":65,"name":"choice","trial_type":"html-keyboard-response","trial_index":120,"time_elapsed":439261,"internal_node_id":"0.0-120.0","subject":"S1C1210","sona":"41677","block":3,"time":"2021-09-15T17:08:05.843Z","response":"1st","certainty":"high","char":"A","transposition":-3,"order":["shifted","swapped"],"probe_pitches":[5,9,10,2,8,7,10,2,4,6,10,9],"shifted_pitches":[5,9,10,2,8,7,11,2,4,6,10,9],"swapped_pitches":[5,9,10,2,8,10,7,2,4,6,10,9],"shift_direction":1,"question_num":101,"has_decoy":false},{"rt":2717.5,"stimulus":"[A] option 1, [L] option 2, [G] neither","key_press":76,"name":"choice","trial_type":"html-keyboard-response","trial_index":131,"time_elapsed":466742,"internal_node_id":"0.0-131.0","subject":"S1C1210","sona":"41677","block":3,"time":"2021-09-15T17:08:05.843Z","response":"2nd","certainty":"high","char":"L","transposition":-2,"order":["swapped","shifted"],"probe_pitches":[3,8,9,12,13,5,3,13,2,9,7,2],"shifted_pitches":[3,8,9,12,13,4,3,13,2,9,7,2],"swapped_pitches":[3,8,9,12,13,3,5,13,2,9,7,2],"shift_direction":-1,"question_num":111,"has_decoy":false},{"rt":5461,"stimulus":"[A] option 1, [L] option 2, [G] neither","key_press":71,"name":"choice","trial_type":"html-keyboard-response","trial_index":142,"time_elapsed":492066,"internal_node_id":"0.0-142.0","subject":"S1C1210","sona":"41677","block":3,"time":"2021-09-15T17:08:05.843Z","response":"neither","certainty":"high","char":"G","transposition":-3,"order":["swapped","shifted"],"probe_pitches":[1,6,3,8,13,10,8,13,3,10,13,3],"shifted_pitches":[1,6,3,8,13,9,8,13,3,10,13,3],"swapped_pitches":[1,6,3,8,13,8,10,13,3,10,13,3],"shift_direction":-1,"question_num":121,"has_decoy":false},{"rt":2751.7000000029802,"stimulus":"[A] option 1, [L] option 2, [G] neither","key_press":65,"name":"choice","trial_type":"html-keyboard-response","trial_index":153,"time_elapsed":515795,"internal_node_id":"0.0-153.0","subject":"S1C1210","sona":"41677","block":3,"time":"2021-09-15T17:08:05.843Z","response":"1st","certainty":"high","char":"A","transposition":-2,"order":["swapped","shifted"],"probe_pitches":[10,8,5,1,8,13,5,10,8,3,10,8],"shifted_pitches":[10,8,5,1,8,14,5,10,8,3,10,8],"swapped_pitches":[10,8,5,1,8,5,13,10,8,3,10,8],"shift_direction":1,"question_num":131,"has_decoy":false},{"rt":3020,"stimulus":"[A] option 1, [L] option 2, [G] neither","key_press":76,"name":"choice","trial_type":"html-keyboard-response","trial_index":164,"time_elapsed":542953,"internal_node_id":"0.0-164.0","subject":"S1C1210","sona":"41677","block":3,"time":"2021-09-15T17:08:05.843Z","response":"2nd","certainty":"high","char":"L","transposition":0,"order":["shifted","swapped"],"probe_pitches":[11,6,11,13,11,4,6,11,6,4,8,11],"shifted_pitches":[11,6,11,13,11,4,5,11,6,4,8,11],"swapped_pitches":[11,6,11,13,11,6,4,11,6,4,8,11],"shift_direction":-1,"question_num":141,"has_decoy":false},{"rt":8435.20000000298,"stimulus":"[A] option 1, [L] option 2, [G] neither","key_press":65,"name":"choice","trial_type":"html-keyboard-response","trial_index":175,"time_elapsed":594203,"internal_node_id":"0.0-175.0","subject":"S1C1210","sona":"41677","block":3,"time":"2021-09-15T17:08:05.843Z","response":"1st","certainty":"high","char":"A","transposition":2,"order":["shifted","swapped"],"probe_pitches":[13,10,13,8,10,3,6,13,8,10,13,6],"shifted_pitches":[13,10,13,8,10,4,6,13,8,10,13,6],"swapped_pitches":[13,10,13,8,10,6,3,13,8,10,13,6],"shift_direction":1,"question_num":151,"has_decoy":false},{"rt":2277.2999999970198,"stimulus":"[A] option 1, [L] option 2, [G] neither","key_press":76,"name":"choice","trial_type":"html-keyboard-response","trial_index":186,"time_elapsed":619234,"internal_node_id":"0.0-186.0","subject":"S1C1210","sona":"41677","block":3,"time":"2021-09-15T17:08:05.843Z","response":"2nd","certainty":"high","char":"L","transposition":3,"order":["swapped","shifted"],"probe_pitches":[11,8,4,10,9,2,8,9,8,13,11,14],"shifted_pitches":[11,8,4,10,9,2,7,9,8,13,11,14],"swapped_pitches":[11,8,4,10,9,8,2,9,8,13,11,14],"shift_direction":-1,"question_num":161,"has_decoy":false},{"rt":3492.89999999851,"stimulus":"[A] option 1, [L] option 2, [G] neither","key_press":65,"name":"choice","trial_type":"html-keyboard-response","trial_index":197,"time_elapsed":648636,"internal_node_id":"0.0-197.0","subject":"S1C1210","sona":"41677","block":3,"time":"2021-09-15T17:08:05.843Z","response":"1st","certainty":"high","char":"A","transposition":-2,"order":["shifted","swapped"],"probe_pitches":[9,7,5,7,14,13,7,9,5,10,9,7],"shifted_pitches":[9,7,5,7,14,12,7,9,5,10,9,7],"swapped_pitches":[9,7,5,7,14,7,13,9,5,10,9,7],"shift_direction":-1,"question_num":171,"has_decoy":false},{"rt":2915.39999999851,"stimulus":"[A] option 1, [L] option 2, [G] neither","key_press":76,"name":"choice","trial_type":"html-keyboard-response","trial_index":208,"time_elapsed":680565,"internal_node_id":"0.0-208.0","subject":"S1C1210","sona":"41677","block":3,"time":"2021-09-15T17:08:05.843Z","response":"2nd","certainty":"high","char":"L","transposition":-1,"order":["swapped","shifted"],"probe_pitches":[13,8,13,8,13,6,1,13,11,13,3,11],"shifted_pitches":[13,8,13,8,13,6,0,13,11,13,3,11],"swapped_pitches":[13,8,13,8,13,1,6,13,11,13,3,11],"shift_direction":-1,"question_num":181,"has_decoy":false},{"rt":2154.89999999851,"stimulus":"[A] option 1, [L] option 2, [G] neither","key_press":65,"name":"choice","trial_type":"html-keyboard-response","trial_index":219,"time_elapsed":706770,"internal_node_id":"0.0-219.0","subject":"S1C1210","sona":"41677","block":3,"time":"2021-09-15T17:08:05.843Z","response":"1st","certainty":"high","char":"A","transposition":1,"order":["swapped","shifted"],"probe_pitches":[8,6,3,8,6,3,8,11,1,8,11,8],"shifted_pitches":[8,6,3,8,6,2,8,11,1,8,11,8],"swapped_pitches":[8,6,3,8,6,8,3,11,1,8,11,8],"shift_direction":-1,"question_num":191,"has_decoy":false}]