[{"rt":1340.3999999985099,"stimulus":"[A] option 1, [L] option 2, [G] neither","key_press":65,"name":"choice","trial_type":"html-keyboard-response","trial_index":10,"time_elapsed":20778,"internal_node_id":"0.0-10.0","subject":"S1C1210","sona":"41677","block":6,"time":"2021-09-15T17:34:53.376Z","response":"1st","certainty":"high","char":"A","transposition":-3,"order":["shifted","swapped"],"probe_pitches":[10,12,13,7,3,11,5,6,13,2,12,5],"shifted_pitches":[10,12,13,7,3,11,4,6,13,2,12,5],"swapped_pitches":[10,12,13,7,3,5,11,6,13,2,12,5],"shift_direction":-1,"question_num":1,"has_decoy":false},{"rt":1702.8999999985099,"stimulus":"[A] option 1, [L] option 2, [G] neither","key_press":76,"name":"choice","trial_type":"html-keyboard-response","trial_index":21,"time_elapsed":44767,"internal_node_id":"0.0-21.0","subject":"S1C1210","sona":"41677","block":6,"time":"2021-09-15T17:34:53.376Z","response":"2nd","certainty":"high","char":"L","transposition":3,"order":["shifted","swapped"],"probe_pitches":[8,7,13,6,7,9,11,3,11,13,11,7],"shifted_pitches":[8,7,13,6,7,10,11,3,11,13,11,7],"swapped_pitches":[8,7,13,6,7,11,9,3,11,13,11,7],"shift_direction":1,"question_num":11,"has_decoy":false},{"rt":625.1000000014901,"stimulus":"[A] option 1, [L] option 2, [G] neither","key_press":76,"name":"choice","trial_type":"html-keyboard-response","trial_index":32,"time_elapsed":65806,"internal_node_id":"0.0-32.0","subject":"S1C1210","sona":"41677","block":6,"time":"2021-09-15T17:34:53.376Z","response":"2nd","certainty":"high","char":"L","transposition":1,"order":["shifted","swapped"],"probe_pitches":[9,7,2,-3,0,9,2,-3,7,2,7,5],"shifted_pitches":[9,7,2,-3,0,10,2,-3,7,2,7,5],"swapped_pitches":[9,7,2,-3,0,2,9,-3,7,2,7,5],"shift_direction":1,"question_num":21,"has_decoy":false},{"rt":3881.2999999970198,"stimulus":"[A] option 1, [L] option 2, [G] neither","key_press":65,"name":"choice","trial_type":"html-keyboard-response","trial_index":43,"time_elapsed":92080,"internal_node_id":"0.0-43.0","subject":"S1C1210","sona":"41677","block":6,"time":"2021-09-15T17:34:53.376Z","response":"1st","certainty":"high","char":"A","transposition":-3,"order":["swapped","shifted"],"probe_pitches":[-1,-3,2,-1,4,-3,-1,9,7,4,7,2],"shifted_pitches":[-1,-3,2,-1,4,-4,-1,9,7,4,7,2],"swapped_pitches":[-1,-3,2,-1,4,-1,-3,9,7,4,7,2],"shift_direction":-1,"question_num":31,"has_decoy":false},{"rt":2327.10000000149,"stimulus":"[A] option 1, [L] option 2, [G] neither","key_press":65,"name":"choice","trial_type":"html-keyboard-response","trial_index":54,"time_elapsed":130424,"internal_node_id":"0.0-54.0","subject":"S1C1210","sona":"41677","block":6,"time":"2021-09-15T17:34:53.376Z","response":"1st","certainty":"high","char":"A","transposition":-2,"order":["shifted","swapped"],"probe_pitches":[4,7,0,2,-3,2,7,4,7,-3,4,-3],"shifted_pitches":[4,7,0,2,-3,2,6,4,7,-3,4,-3],"swapped_pitches":[4,7,0,2,-3,7,2,4,7,-3,4,-3],"shift_direction":-1,"question_num":41,"has_decoy":false},{"rt":1533.1000000014901,"stimulus":"[A] option 1, [L] option 2, [G] neither","key_press":76,"name":"choice","trial_type":"html-keyboard-response","trial_index":65,"time_elapsed":157145,"internal_node_id":"0.0-65.0","subject":"S1C1210","sona":"41677","block":6,"time":"2021-09-15T17:34:53.376Z","response":"2nd","certainty":"high","char":"L","transposition":-3,"order":["swapped","shifted"],"probe_pitches":[1,6,1,9,6,-3,4,-1,4,-1,6,1],"shifted_pitches":[1,6,1,9,6,-4,4,-1,4,-1,6,1],"swapped_pitches":[1,6,1,9,6,4,-3,-1,4,-1,6,1],"shift_direction":-1,"question_num":51,"has_decoy":false},{"rt":1699.5,"stimulus":"[A] option 1, [L] option 2, [G] neither","key_press":65,"name":"choice","trial_type":"html-keyboard-response","trial_index":76,"time_elapsed":183193,"internal_node_id":"0.0-76.0","subject":"S1C1210","sona":"41677","block":6,"time":"2021-09-15T17:34:53.376Z","response":"1st","certainty":"high","char":"A","transposition":3,"order":["shifted","swapped"],"probe_pitches":[4,9,2,0,2,0,7,-3,9,-3,4,7],"shifted_pitches":[4,9,2,0,2,0,6,-3,9,-3,4,7],"swapped_pitches":[4,9,2,0,2,7,0,-3,9,-3,4,7],"shift_direction":-1,"question_num":61,"has_decoy":false},{"rt":3325.10000000149,"stimulus":"[A] option 1, [L] option 2, [G] neither","key_press":65,"name":"choice","trial_type":"html-keyboard-response","trial_index":87,"time_elapsed":209453,"internal_node_id":"0.0-87.0","subject":"S1C1210","sona":"41677","block":6,"time":"2021-09-15T17:34:53.376Z","response":"1st","certainty":"high","char":"A","transposition":-1,"order":["swapped","shifted"],"probe_pitches":[-1,2,-1,2,4,9,2,4,-1,4,6,9],"shifted_pitches":[-1,2,-1,2,4,9,3,4,-1,4,6,9],"swapped_pitches":[-1,2,-1,2,4,2,9,4,-1,4,6,9],"shift_direction":1,"question_num":71,"has_decoy":false},{"rt":2769.10000000149,"stimulus":"[A] option 1, [L] option 2, [G] neither","key_press":65,"name":"choice","trial_type":"html-keyboard-response","trial_index":98,"time_elapsed":234775,"internal_node_id":"0.0-98.0","subject":"S1C1210","sona":"41677","block":6,"time":"2021-09-15T17:34:53.376Z","response":"1st","certainty":"high","char":"A","transposition":2,"order":["swapped","shifted"],"probe_pitches":[11,13,11,6,12,4,14,6,9,6,2,9],"shifted_pitches":[11,13,11,6,12,5,14,6,9,6,2,9],"swapped_pitches":[11,13,11,6,12,14,4,6,9,6,2,9],"shift_direction":1,"question_num":81,"has_decoy":false},{"rt":3296.89999999851,"stimulus":"[A] option 1, [L] option 2, [G] neither","key_press":65,"name":"choice","trial_type":"html-keyboard-response","trial_index":109,"time_elapsed":259517,"internal_node_id":"0.0-109.0","subject":"S1C1210","sona":"41677","block":6,"time":"2021-09-15T17:34:53.376Z","response":"1st","certainty":"high","char":"A","transposition":-1,"order":["swapped","shifted"],"probe_pitches":[10,9,10,11,13,7,9,12,3,11,14,12],"shifted_pitches":[10,9,10,11,13,8,9,12,3,11,14,12],"swapped_pitches":[10,9,10,11,13,9,7,12,3,11,14,12],"shift_direction":1,"question_num":91,"has_decoy":false},{"rt":1463.8999999985099,"stimulus":"[A] option 1, [L] option 2, [G] neither","key_press":76,"name":"choice","trial_type":"html-keyboard-response","trial_index":120,"time_elapsed":288579,"internal_node_id":"0.0-120.0","subject":"S1C1210","sona":"41677","block":6,"time":"2021-09-15T17:34:53.376Z","response":"2nd","certainty":"high","char":"L","transposition":1,"order":["shifted","swapped"],"probe_pitches":[13,8,14,9,5,13,9,7,14,4,5,6],"shifted_pitches":[13,8,14,9,5,12,9,7,14,4,5,6],"swapped_pitches":[13,8,14,9,5,9,13,7,14,4,5,6],"shift_direction":-1,"question_num":101,"has_decoy":false},{"rt":2533.9000000059605,"stimulus":"[A] option 1, [L] option 2, [G] neither","key_press":71,"name":"choice","trial_type":"html-keyboard-response","trial_index":131,"time_elapsed":313520,"internal_node_id":"0.0-131.0","subject":"S1C1210","sona":"41677","block":6,"time":"2021-09-15T17:34:53.376Z","response":"neither","certainty":"high","char":"G","transposition":-1,"order":["shifted","swapped"],"probe_pitches":[10,14,11,10,14,5,8,3,9,14,2,9],"shifted_pitches":[10,14,11,10,14,5,7,3,9,14,2,9],"swapped_pitches":[10,14,11,10,14,8,5,3,9,14,2,9],"shift_direction":-1,"question_num":111,"has_decoy":false},{"rt":3323.39999999851,"stimulus":"[A] option 1, [L] option 2, [G] neither","key_press":65,"name":"choice","trial_type":"html-keyboard-response","trial_index":142,"time_elapsed":338800,"internal_node_id":"0.0-142.0","subject":"S1C1210","sona":"41677","block":6,"time":"2021-09-15T17:34:53.376Z","response":"1st","certainty":"high","char":"A","transposition":-2,"order":["swapped","shifted"],"probe_pitches":[2,8,4,3,8,13,7,8,2,5,3,13],"shifted_pitches":[2,8,4,3,8,13,6,8,2,5,3,13],"swapped_pitches":[2,8,4,3,8,7,13,8,2,5,3,13],"shift_direction":-1,"question_num":121,"has_decoy":false},{"rt":3031.2999999970198,"stimulus":"[A] option 1, [L] option 2, [G] neither","key_press":65,"name":"choice","trial_type":"html-keyboard-response","trial_index":153,"time_elapsed":362842,"internal_node_id":"0.0-153.0","subject":"S1C1210","sona":"41677","block":6,"time":"2021-09-15T17:34:53.376Z","response":"1st","certainty":"high","char":"A","transposition":-2,"order":["swapped","shifted"],"probe_pitches":[8,14,11,6,5,6,10,3,2,7,14,5],"shifted_pitches":[8,14,11,6,5,6,9,3,2,7,14,5],"swapped_pitches":[8,14,11,6,5,10,6,3,2,7,14,5],"shift_direction":-1,"question_num":131,"has_decoy":false},{"rt":1804.8999999985099,"stimulus":"[A] option 1, [L] option 2, [G] neither","key_press":71,"name":"choice","trial_type":"html-keyboard-response","trial_index":164,"time_elapsed":384074,"internal_node_id":"0.0-164.0","subject":"S1C1210","sona":"41677","block":6,"time":"2021-09-15T17:34:53.376Z","response":"neither","certainty":"high","char":"G","transposition":2,"order":["shifted","swapped"],"probe_pitches":[6,4,-1,6,-3,-1,9,6,1,-1,4,6],"shifted_pitches":[6,4,-1,6,-3,0,9,6,1,-1,4,6],"swapped_pitches":[6,4,-1,6,-3,9,-1,6,1,-1,4,6],"shift_direction":1,"question_num":141,"has_decoy":false},{"rt":2495.2999999970198,"stimulus":"[A] option 1, [L] option 2, [G] neither","key_press":76,"name":"choice","trial_type":"html-keyboard-response","trial_index":175,"time_elapsed":407558,"internal_node_id":"0.0-175.0","subject":"S1C1210","sona":"41677","block":6,"time":"2021-09-15T17:34:53.376Z","response":"2nd","certainty":"high","char":"L","transposition":-1,"order":["swapped","shifted"],"probe_pitches":[7,4,2,9,7,-3,4,9,4,9,-3,-1],"shifted_pitches":[7,4,2,9,7,-4,4,9,4,9,-3,-1],"swapped_pitches":[7,4,2,9,7,4,-3,9,4,9,-3,-1],"shift_direction":-1,"question_num":151,"has_decoy":false},{"rt":5327.4000000059605,"stimulus":"[A] option 1, [L] option 2, [G] neither","key_press":71,"name":"choice","trial_type":"html-keyboard-response","trial_index":186,"time_elapsed":432347,"internal_node_id":"0.0-186.0","subject":"S1C1210","sona":"41677","block":6,"time":"2021-09-15T17:34:53.376Z","response":"neither","certainty":"high","char":"G","transposition":0,"order":["swapped","shifted"],"probe_pitches":[2,3,8,3,4,7,12,8,3,6,12,7],"shifted_pitches":[2,3,8,3,4,7,13,8,3,6,12,7],"swapped_pitches":[2,3,8,3,4,12,7,8,3,6,12,7],"shift_direction":1,"question_num":161,"has_decoy":false},{"rt":4076.7000000029802,"stimulus":"[A] option 1, [L] option 2, [G] neither","key_press":76,"name":"choice","trial_type":"html-keyboard-response","trial_index":197,"time_elapsed":456355,"internal_node_id":"0.0-197.0","subject":"S1C1210","sona":"41677","block":6,"time":"2021-09-15T17:34:53.376Z","response":"2nd","certainty":"high","char":"L","transposition":-3,"order":["shifted","swapped"],"probe_pitches":[10,7,3,2,8,10,5,12,4,14,4,3],"shifted_pitches":[10,7,3,2,8,11,5,12,4,14,4,3],"swapped_pitches":[10,7,3,2,8,5,10,12,4,14,4,3],"shift_direction":1,"question_num":171,"has_decoy":false},{"rt":3101.7000000029802,"stimulus":"[A] option 1, [L] option 2, [G] neither","key_press":76,"name":"choice","trial_type":"html-keyboard-response","trial_index":208,"time_elapsed":486414,"internal_node_id":"0.0-208.0","subject":"S1C1210","sona":"41677","block":6,"time":"2021-09-15T17:34:53.376Z","response":"2nd","certainty":"high","char":"L","transposition":0,"order":["swapped","shifted"],"probe_pitches":[2,7,5,0,7,0,-3,7,-3,2,-3,7],"shifted_pitches":[2,7,5,0,7,0,-2,7,-3,2,-3,7],"swapped_pitches":[2,7,5,0,7,-3,0,7,-3,2,-3,7],"shift_direction":1,"question_num":181,"has_decoy":false},{"rt":12069.39999999851,"stimulus":"[A] option 1, [L] option 2, [G] neither","key_press":71,"name":"choice","trial_type":"html-keyboard-response","trial_index":219,"time_elapsed":521408,"internal_node_id":"0.0-219.0","subject":"S1C1210","sona":"41677","block":6,"time":"2021-09-15T17:34:53.376Z","response":"neither","certainty":"high","char":"G","transposition":-2,"order":["shifted","swapped"],"probe_pitches":[4,-1,4,2,-1,-3,2,4,9,6,-3,-1],"shifted_pitches":[4,-1,4,2,-1,-3,3,4,9,6,-3,-1],"swapped_pitches":[4,-1,4,2,-1,2,-3,4,9,6,-3,-1],"shift_direction":1,"question_num":191,"has_decoy":false}]