[{"rt":9352.60000000149,"stimulus":"[A] option 1, [L] option 2, [G] neither","key_press":76,"name":"choice","trial_type":"html-keyboard-response","trial_index":10,"time_elapsed":30057,"internal_node_id":"0.0-10.0","subject":"S1C1210","sona":"41677","block":4,"time":"2021-09-15T17:16:30.854Z","response":"2nd","certainty":"high","char":"L","transposition":1,"order":["swapped","shifted"],"probe_pitches":[3,-2,1,-1,4,1,6,8,2,9,0,2],"shifted_pitches":[3,-2,1,-1,4,1,5,8,2,9,0,2],"swapped_pitches":[3,-2,1,-1,4,6,1,8,2,9,0,2],"shift_direction":-1,"question_num":1,"has_decoy":false},{"rt":1226.3999999985099,"stimulus":"[A] option 1, [L] option 2, [G] neither","key_press":65,"name":"choice","trial_type":"html-keyboard-response","trial_index":21,"time_elapsed":52485,"internal_node_id":"0.0-21.0","subject":"S1C1210","sona":"41677","block":4,"time":"2021-09-15T17:16:30.854Z","response":"1st","certainty":"high","char":"A","transposition":-3,"order":["swapped","shifted"],"probe_pitches":[0,5,12,5,10,12,8,5,8,3,10,0],"shifted_pitches":[0,5,12,5,10,13,8,5,8,3,10,0],"swapped_pitches":[0,5,12,5,10,8,12,5,8,3,10,0],"shift_direction":1,"question_num":11,"has_decoy":false},{"rt":2208.60000000149,"stimulus":"[A] option 1, [L] option 2, [G] neither","key_press":76,"name":"choice","trial_type":"html-keyboard-response","trial_index":32,"time_elapsed":77387,"internal_node_id":"0.0-32.0","subject":"S1C1210","sona":"41677","block":4,"time":"2021-09-15T17:16:30.854Z","response":"2nd","certainty":"high","char":"L","transposition":2,"order":["shifted","swapped"],"probe_pitches":[7,8,3,-1,-2,7,5,-1,4,2,9,-2],"shifted_pitches":[7,8,3,-1,-2,6,5,-1,4,2,9,-2],"swapped_pitches":[7,8,3,-1,-2,5,7,-1,4,2,9,-2],"shift_direction":-1,"question_num":21,"has_decoy":false},{"rt":3675.1999999955297,"stimulus":"[A] option 1, [L] option 2, [G] neither","key_press":65,"name":"choice","trial_type":"html-keyboard-response","trial_index":43,"time_elapsed":102459,"internal_node_id":"0.0-43.0","subject":"S1C1210","sona":"41677","block":4,"time":"2021-09-15T17:16:30.854Z","response":"1st","certainty":"high","char":"A","transposition":-3,"order":["swapped","shifted"],"probe_pitches":[4,5,10,8,3,10,-1,0,4,6,5,10],"shifted_pitches":[4,5,10,8,3,9,-1,0,4,6,5,10],"swapped_pitches":[4,5,10,8,3,-1,10,0,4,6,5,10],"shift_direction":-1,"question_num":31,"has_decoy":false},{"rt":450,"stimulus":"[A] option 1, [L] option 2, [G] neither","key_press":76,"name":"choice","trial_type":"html-keyboard-response","trial_index":54,"time_elapsed":124172,"internal_node_id":"0.0-54.0","subject":"S1C1210","sona":"41677","block":4,"time":"2021-09-15T17:16:30.854Z","response":"2nd","certainty":"high","char":"L","transposition":-1,"order":["shifted","swapped"],"probe_pitches":[0,2,9,12,9,12,5,2,5,7,2,7],"shifted_pitches":[0,2,9,12,9,12,6,2,5,7,2,7],"swapped_pitches":[0,2,9,12,9,5,12,2,5,7,2,7],"shift_direction":1,"question_num":41,"has_decoy":false},{"rt":997.5999999940395,"stimulus":"[A] option 1, [L] option 2, [G] neither","key_press":71,"name":"choice","trial_type":"html-keyboard-response","trial_index":65,"time_elapsed":144874,"internal_node_id":"0.0-65.0","subject":"S1C1210","sona":"41677","block":4,"time":"2021-09-15T17:16:30.854Z","response":"neither","certainty":"high","char":"G","transposition":0,"order":["shifted","swapped"],"probe_pitches":[4,2,0,7,4,9,0,2,4,0,4,12],"shifted_pitches":[4,2,0,7,4,9,-1,2,4,0,4,12],"swapped_pitches":[4,2,0,7,4,0,9,2,4,0,4,12],"shift_direction":-1,"question_num":51,"has_decoy":false},{"rt":386.1000000014901,"stimulus":"[A] option 1, [L] option 2, [G] neither","key_press":76,"name":"choice","trial_type":"html-keyboard-response","trial_index":76,"time_elapsed":165510,"internal_node_id":"0.0-76.0","subject":"S1C1210","sona":"41677","block":4,"time":"2021-09-15T17:16:30.854Z","response":"2nd","certainty":"high","char":"L","transposition":-3,"order":["shifted","swapped"],"probe_pitches":[-2,3,4,9,10,1,-2,8,1,10,7,9],"shifted_pitches":[-2,3,4,9,10,2,-2,8,1,10,7,9],"swapped_pitches":[-2,3,4,9,10,-2,1,8,1,10,7,9],"shift_direction":1,"question_num":61,"has_decoy":false},{"rt":843.6000000014901,"stimulus":"[A] option 1, [L] option 2, [G] neither","key_press":65,"name":"choice","trial_type":"html-keyboard-response","trial_index":87,"time_elapsed":191983,"internal_node_id":"0.0-87.0","subject":"S1C1210","sona":"41677","block":4,"time":"2021-09-15T17:16:30.854Z","response":"1st","certainty":"high","char":"A","transposition":-2,"order":["shifted","swapped"],"probe_pitches":[3,7,6,2,1,9,5,-1,9,6,4,6],"shifted_pitches":[3,7,6,2,1,8,5,-1,9,6,4,6],"swapped_pitches":[3,7,6,2,1,5,9,-1,9,6,4,6],"shift_direction":-1,"question_num":71,"has_decoy":false},{"rt":2258.2000000029802,"stimulus":"[A] option 1, [L] option 2, [G] neither","key_press":76,"name":"choice","trial_type":"html-keyboard-response","trial_index":98,"time_elapsed":226326,"internal_node_id":"0.0-98.0","subject":"S1C1210","sona":"41677","block":4,"time":"2021-09-15T17:16:30.854Z","response":"2nd","certainty":"high","char":"L","transposition":-2,"order":["shifted","swapped"],"probe_pitches":[0,3,0,8,10,0,5,8,5,12,0,8],"shifted_pitches":[0,3,0,8,10,0,6,8,5,12,0,8],"swapped_pitches":[0,3,0,8,10,5,0,8,5,12,0,8],"shift_direction":1,"question_num":81,"has_decoy":false},{"rt":5212.70000000298,"stimulus":"[A] option 1, [L] option 2, [G] neither","key_press":65,"name":"choice","trial_type":"html-keyboard-response","trial_index":109,"time_elapsed":254214,"internal_node_id":"0.0-109.0","subject":"S1C1210","sona":"41677","block":4,"time":"2021-09-15T17:16:30.854Z","response":"1st","certainty":"high","char":"A","transposition":3,"order":["shifted","swapped"],"probe_pitches":[7,12,7,5,2,5,0,12,5,0,10,12],"shifted_pitches":[7,12,7,5,2,5,-1,12,5,0,10,12],"swapped_pitches":[7,12,7,5,2,0,5,12,5,0,10,12],"shift_direction":-1,"question_num":91,"has_decoy":false},{"rt":2763,"stimulus":"[A] option 1, [L] option 2, [G] neither","key_press":76,"name":"choice","trial_type":"html-keyboard-response","trial_index":120,"time_elapsed":278611,"internal_node_id":"0.0-120.0","subject":"S1C1210","sona":"41677","block":4,"time":"2021-09-15T17:16:30.854Z","response":"2nd","certainty":"high","char":"L","transposition":3,"order":["swapped","shifted"],"probe_pitches":[10,8,3,9,7,-2,3,0,9,1,8,6],"shifted_pitches":[10,8,3,9,7,-2,4,0,9,1,8,6],"swapped_pitches":[10,8,3,9,7,3,-2,0,9,1,8,6],"shift_direction":1,"question_num":101,"has_decoy":false},{"rt":2567.10000000149,"stimulus":"[A] option 1, [L] option 2, [G] neither","key_press":65,"name":"choice","trial_type":"html-keyboard-response","trial_index":131,"time_elapsed":304586,"internal_node_id":"0.0-131.0","subject":"S1C1210","sona":"41677","block":4,"time":"2021-09-15T17:16:30.854Z","response":"1st","certainty":"high","char":"A","transposition":0,"order":["swapped","shifted"],"probe_pitches":[8,9,10,9,2,8,5,9,8,-2,4,6],"shifted_pitches":[8,9,10,9,2,7,5,9,8,-2,4,6],"swapped_pitches":[8,9,10,9,2,5,8,9,8,-2,4,6],"shift_direction":-1,"question_num":111,"has_decoy":false},{"rt":6114.0999999940395,"stimulus":"[A] option 1, [L] option 2, [G] neither","key_press":71,"name":"choice","trial_type":"html-keyboard-response","trial_index":142,"time_elapsed":338906,"internal_node_id":"0.0-142.0","subject":"S1C1210","sona":"41677","block":4,"time":"2021-09-15T17:16:30.854Z","response":"neither","certainty":"high","char":"G","transposition":-1,"order":["shifted","swapped"],"probe_pitches":[9,6,1,7,5,2,-1,6,-2,8,2,-1],"shifted_pitches":[9,6,1,7,5,2,0,6,-2,8,2,-1],"swapped_pitches":[9,6,1,7,5,-1,2,6,-2,8,2,-1],"shift_direction":1,"question_num":121,"has_decoy":false},{"rt":1011.8999999985099,"stimulus":"[A] option 1, [L] option 2, [G] neither","key_press":65,"name":"choice","trial_type":"html-keyboard-response","trial_index":153,"time_elapsed":359617,"internal_node_id":"0.0-153.0","subject":"S1C1210","sona":"41677","block":4,"time":"2021-09-15T17:16:30.854Z","response":"1st","certainty":"high","char":"A","transposition":-2,"order":["swapped","shifted"],"probe_pitches":[5,3,10,7,0,10,3,5,3,7,3,7],"shifted_pitches":[5,3,10,7,0,11,3,5,3,7,3,7],"swapped_pitches":[5,3,10,7,0,3,10,5,3,7,3,7],"shift_direction":1,"question_num":131,"has_decoy":false},{"rt":2854,"stimulus":"[A] option 1, [L] option 2, [G] neither","key_press":76,"name":"choice","trial_type":"html-keyboard-response","trial_index":164,"time_elapsed":384056,"internal_node_id":"0.0-164.0","subject":"S1C1210","sona":"41677","block":4,"time":"2021-09-15T17:16:30.854Z","response":"2nd","certainty":"high","char":"L","transposition":1,"order":["shifted","swapped"],"probe_pitches":[7,9,7,4,0,9,12,7,9,7,2,9],"shifted_pitches":[7,9,7,4,0,9,13,7,9,7,2,9],"swapped_pitches":[7,9,7,4,0,12,9,7,9,7,2,9],"shift_direction":1,"question_num":141,"has_decoy":false},{"rt":3355,"stimulus":"[A] option 1, [L] option 2, [G] neither","key_press":76,"name":"choice","trial_type":"html-keyboard-response","trial_index":175,"time_elapsed":409052,"internal_node_id":"0.0-175.0","subject":"S1C1210","sona":"41677","block":4,"time":"2021-09-15T17:16:30.854Z","response":"2nd","certainty":"high","char":"L","transposition":-3,"order":["swapped","shifted"],"probe_pitches":[9,7,12,5,0,5,2,12,2,7,5,12],"shifted_pitches":[9,7,12,5,0,4,2,12,2,7,5,12],"swapped_pitches":[9,7,12,5,0,2,5,12,2,7,5,12],"shift_direction":-1,"question_num":151,"has_decoy":false},{"rt":713.6999999955297,"stimulus":"[A] option 1, [L] option 2, [G] neither","key_press":65,"name":"choice","trial_type":"html-keyboard-response","trial_index":186,"time_elapsed":430241,"internal_node_id":"0.0-186.0","subject":"S1C1210","sona":"41677","block":4,"time":"2021-09-15T17:16:30.854Z","response":"1st","certainty":"high","char":"A","transposition":-1,"order":["swapped","shifted"],"probe_pitches":[0,2,7,2,10,12,2,5,2,10,5,10],"shifted_pitches":[0,2,7,2,10,11,2,5,2,10,5,10],"swapped_pitches":[0,2,7,2,10,2,12,5,2,10,5,10],"shift_direction":-1,"question_num":161,"has_decoy":false},{"rt":444.80000000447035,"stimulus":"[A] option 1, [L] option 2, [G] neither","key_press":76,"name":"choice","trial_type":"html-keyboard-response","trial_index":197,"time_elapsed":452382,"internal_node_id":"0.0-197.0","subject":"S1C1210","sona":"41677","block":4,"time":"2021-09-15T17:16:30.854Z","response":"2nd","certainty":"high","char":"L","transposition":-2,"order":["shifted","swapped"],"probe_pitches":[4,10,6,2,9,1,2,9,-2,10,7,10],"shifted_pitches":[4,10,6,2,9,1,3,9,-2,10,7,10],"swapped_pitches":[4,10,6,2,9,2,1,9,-2,10,7,10],"shift_direction":1,"question_num":171,"has_decoy":false},{"rt":2220.0999999940395,"stimulus":"[A] option 1, [L] option 2, [G] neither","key_press":65,"name":"choice","trial_type":"html-keyboard-response","trial_index":208,"time_elapsed":474131,"internal_node_id":"0.0-208.0","subject":"S1C1210","sona":"41677","block":4,"time":"2021-09-15T17:16:30.854Z","response":"1st","certainty":"high","char":"A","transposition":-1,"order":["swapped","shifted"],"probe_pitches":[8,3,8,2,9,3,0,-2,4,8,7,6],"shifted_pitches":[8,3,8,2,9,3,1,-2,4,8,7,6],"swapped_pitches":[8,3,8,2,9,0,3,-2,4,8,7,6],"shift_direction":1,"question_num":181,"has_decoy":false},{"rt":1195.5,"stimulus":"[A] option 1, [L] option 2, [G] neither","key_press":65,"name":"choice","trial_type":"html-keyboard-response","trial_index":219,"time_elapsed":494466,"internal_node_id":"0.0-219.0","subject":"S1C1210","sona":"41677","block":4,"time":"2021-09-15T17:16:30.854Z","response":"1st","certainty":"high","char":"A","transposition":2,"order":["swapped","shifted"],"probe_pitches":[5,7,12,5,12,7,10,12,7,5,3,7],"shifted_pitches":[5,7,12,5,12,6,10,12,7,5,3,7],"swapped_pitches":[5,7,12,5,12,10,7,12,7,5,3,7],"shift_direction":-1,"question_num":191,"has_decoy":false}]