[{"rt":13261.60000000149,"stimulus":"[A] option 1, [L] option 2, [G] neither","key_press":76,"name":"choice","trial_type":"html-keyboard-response","trial_index":15,"time_elapsed":81202,"internal_node_id":"0.0-15.0","response":"2nd","certainty":"high","char":"L","transposition":0,"order":["shifted","swapped"],"probe_pitches":[14,13,12,9,8,2,10,8,14,10,4,10],"shifted_pitches":[14,13,12,9,8,2,11,8,14,10,4,10],"swapped_pitches":[14,13,12,9,8,10,2,8,14,10,4,10],"shift_direction":1,"question_num":1,"has_decoy":false,"subject":"S1C1210","sona":"41677","block":1,"time":"2021-09-15T16:42:20.033Z"},{"rt":5426.9000000059605,"stimulus":"[A] option 1, [L] option 2, [G] neither","key_press":65,"name":"choice","trial_type":"html-keyboard-response","trial_index":26,"time_elapsed":109298,"internal_node_id":"0.0-26.0","response":"1st","certainty":"high","char":"A","transposition":0,"order":["shifted","swapped"],"probe_pitches":[-3,2,-3,2,4,0,7,9,4,0,7,0],"shifted_pitches":[-3,2,-3,2,4,0,8,9,4,0,7,0],"swapped_pitches":[-3,2,-3,2,4,7,0,9,4,0,7,0],"shift_direction":1,"question_num":11,"has_decoy":false,"subject":"S1C1210","sona":"41677","block":1,"time":"2021-09-15T16:42:20.033Z"},{"rt":5317.5,"stimulus":"[A] option 1, [L] option 2, [G] neither","key_press":76,"name":"choice","trial_type":"html-keyboard-response","trial_index":37,"time_elapsed":133865,"internal_node_id":"0.0-37.0","response":"2nd","certainty":"high","char":"L","transposition":2,"order":["swapped","shifted"],"probe_pitches":[2,7,4,10,12,10,13,14,11,13,14,13],"shifted_pitches":[2,7,4,10,12,9,13,14,11,13,14,13],"swapped_pitches":[2,7,4,10,12,13,10,14,11,13,14,13],"shift_direction":-1,"question_num":21,"has_decoy":false,"subject":"S1C1210","sona":"41677","block":1,"time":"2021-09-15T16:42:20.033Z"},{"rt":1084.5,"stimulus":"[A] option 1, [L] option 2, [G] neither","key_press":76,"name":"choice","trial_type":"html-keyboard-response","trial_index":48,"time_elapsed":154906,"internal_node_id":"0.0-48.0","response":"2nd","certainty":"high","char":"L","transposition":-2,"order":["shifted","swapped"],"probe_pitches":[2,6,4,2,-3,4,6,-3,-1,2,6,9],"shifted_pitches":[2,6,4,2,-3,5,6,-3,-1,2,6,9],"swapped_pitches":[2,6,4,2,-3,6,4,-3,-1,2,6,9],"shift_direction":1,"question_num":31,"has_decoy":false,"subject":"S1C1210","sona":"41677","block":1,"time":"2021-09-15T16:42:20.033Z"},{"rt":2743.39999999851,"stimulus":"[A] option 1, [L] option 2, [G] neither","key_press":65,"name":"choice","trial_type":"html-keyboard-response","trial_index":59,"time_elapsed":177296,"internal_node_id":"0.0-59.0","response":"1st","certainty":"high","char":"A","transposition":-1,"order":["shifted","swapped"],"probe_pitches":[9,11,8,6,14,10,5,2,11,6,8,3],"shifted_pitches":[9,11,8,6,14,10,4,2,11,6,8,3],"swapped_pitches":[9,11,8,6,14,5,10,2,11,6,8,3],"shift_direction":-1,"question_num":41,"has_decoy":false,"subject":"S1C1210","sona":"41677","block":1,"time":"2021-09-15T16:42:20.033Z"},{"rt":1051,"stimulus":"[A] option 1, [L] option 2, [G] neither","key_press":65,"name":"choice","trial_type":"html-keyboard-response","trial_index":70,"time_elapsed":199413,"internal_node_id":"0.0-70.0","response":"1st","certainty":"high","char":"A","transposition":3,"order":["swapped","shifted"],"probe_pitches":[4,-1,4,9,7,2,-1,7,4,-1,9,-1],"shifted_pitches":[4,-1,4,9,7,3,-1,7,4,-1,9,-1],"swapped_pitches":[4,-1,4,9,7,-1,2,7,4,-1,9,-1],"shift_direction":1,"question_num":51,"has_decoy":false,"subject":"S1C1210","sona":"41677","block":1,"time":"2021-09-15T16:42:20.033Z"},{"rt":2428.39999999851,"stimulus":"[A] option 1, [L] option 2, [G] neither","key_press":65,"name":"choice","trial_type":"html-keyboard-response","trial_index":81,"time_elapsed":223455,"internal_node_id":"0.0-81.0","response":"1st","certainty":"high","char":"A","transposition":1,"order":["swapped","shifted"],"probe_pitches":[8,12,7,9,2,12,4,14,11,7,9,8],"shifted_pitches":[8,12,7,9,2,12,5,14,11,7,9,8],"swapped_pitches":[8,12,7,9,2,4,12,14,11,7,9,8],"shift_direction":1,"question_num":61,"has_decoy":false,"subject":"S1C1210","sona":"41677","block":1,"time":"2021-09-15T16:42:20.033Z"},{"rt":4737.39999999851,"stimulus":"[A] option 1, [L] option 2, [G] neither","key_press":71,"name":"choice","trial_type":"html-keyboard-response","trial_index":92,"time_elapsed":249763,"internal_node_id":"0.0-92.0","response":"neither","certainty":"high","char":"G","transposition":-2,"order":["swapped","shifted"],"probe_pitches":[3,8,13,10,5,2,7,14,8,12,3,14],"shifted_pitches":[3,8,13,10,5,2,6,14,8,12,3,14],"swapped_pitches":[3,8,13,10,5,7,2,14,8,12,3,14],"shift_direction":-1,"question_num":71,"has_decoy":false,"subject":"S1C1210","sona":"41677","block":1,"time":"2021-09-15T16:42:20.033Z"},{"rt":1385,"stimulus":"[A] option 1, [L] option 2, [G] neither","key_press":65,"name":"choice","trial_type":"html-keyboard-response","trial_index":103,"time_elapsed":270816,"internal_node_id":"0.0-103.0","response":"1st","certainty":"high","char":"A","transposition":-1,"order":["swapped","shifted"],"probe_pitches":[9,4,9,7,4,-3,7,-1,2,7,-1,4],"shifted_pitches":[9,4,9,7,4,-3,8,-1,2,7,-1,4],"swapped_pitches":[9,4,9,7,4,7,-3,-1,2,7,-1,4],"shift_direction":1,"question_num":81,"has_decoy":false,"subject":"S1C1210","sona":"41677","block":1,"time":"2021-09-15T16:42:20.033Z"},{"rt":2352.10000000149,"stimulus":"[A] option 1, [L] option 2, [G] neither","key_press":76,"name":"choice","trial_type":"html-keyboard-response","trial_index":114,"time_elapsed":292951,"internal_node_id":"0.0-114.0","response":"2nd","certainty":"high","char":"L","transposition":2,"order":["shifted","swapped"],"probe_pitches":[6,1,-1,1,9,1,4,9,4,-1,6,9],"shifted_pitches":[6,1,-1,1,9,1,3,9,4,-1,6,9],"swapped_pitches":[6,1,-1,1,9,4,1,9,4,-1,6,9],"shift_direction":-1,"question_num":91,"has_decoy":false,"subject":"S1C1210","sona":"41677","block":1,"time":"2021-09-15T16:42:20.033Z"},{"rt":2307.5,"stimulus":"[A] option 1, [L] option 2, [G] neither","key_press":76,"name":"choice","trial_type":"html-keyboard-response","trial_index":125,"time_elapsed":314762,"internal_node_id":"0.0-125.0","response":"2nd","certainty":"high","char":"L","transposition":-3,"order":["swapped","shifted"],"probe_pitches":[7,2,-3,2,0,-3,7,9,7,-3,4,7],"shifted_pitches":[7,2,-3,2,0,-4,7,9,7,-3,4,7],"swapped_pitches":[7,2,-3,2,0,7,-3,9,7,-3,4,7],"shift_direction":-1,"question_num":101,"has_decoy":false,"subject":"S1C1210","sona":"41677","block":1,"time":"2021-09-15T16:42:20.033Z"},{"rt":1661.7999999970198,"stimulus":"[A] option 1, [L] option 2, [G] neither","key_press":65,"name":"choice","trial_type":"html-keyboard-response","trial_index":136,"time_elapsed":335753,"internal_node_id":"0.0-136.0","response":"1st","certainty":"high","char":"A","transposition":-1,"order":["swapped","shifted"],"probe_pitches":[9,4,-3,2,-1,-3,6,2,6,4,2,-1],"shifted_pitches":[9,4,-3,2,-1,-3,7,2,6,4,2,-1],"swapped_pitches":[9,4,-3,2,-1,6,-3,2,6,4,2,-1],"shift_direction":1,"question_num":111,"has_decoy":false,"subject":"S1C1210","sona":"41677","block":1,"time":"2021-09-15T16:42:20.033Z"},{"rt":1059.1000000014901,"stimulus":"[A] option 1, [L] option 2, [G] neither","key_press":76,"name":"choice","trial_type":"html-keyboard-response","trial_index":147,"time_elapsed":355219,"internal_node_id":"0.0-147.0","response":"2nd","certainty":"high","char":"L","transposition":-1,"order":["swapped","shifted"],"probe_pitches":[6,3,9,4,3,11,7,9,7,3,2,4],"shifted_pitches":[6,3,9,4,3,12,7,9,7,3,2,4],"swapped_pitches":[6,3,9,4,3,7,11,9,7,3,2,4],"shift_direction":1,"question_num":121,"has_decoy":false,"subject":"S1C1210","sona":"41677","block":1,"time":"2021-09-15T16:42:20.033Z"},{"rt":2485.7000000029802,"stimulus":"[A] option 1, [L] option 2, [G] neither","key_press":76,"name":"choice","trial_type":"html-keyboard-response","trial_index":158,"time_elapsed":376875,"internal_node_id":"0.0-158.0","response":"2nd","certainty":"high","char":"L","transposition":-2,"order":["shifted","swapped"],"probe_pitches":[12,14,7,14,5,10,9,14,4,5,13,3],"shifted_pitches":[12,14,7,14,5,10,8,14,4,5,13,3],"swapped_pitches":[12,14,7,14,5,9,10,14,4,5,13,3],"shift_direction":-1,"question_num":131,"has_decoy":false,"subject":"S1C1210","sona":"41677","block":1,"time":"2021-09-15T16:42:20.033Z"},{"rt":925.1000000014901,"stimulus":"[A] option 1, [L] option 2, [G] neither","key_press":71,"name":"choice","trial_type":"html-keyboard-response","trial_index":169,"time_elapsed":398888,"internal_node_id":"0.0-169.0","response":"neither","certainty":"high","char":"G","transposition":1,"order":["swapped","shifted"],"probe_pitches":[2,-3,0,-3,5,7,0,5,0,2,7,9],"shifted_pitches":[2,-3,0,-3,5,6,0,5,0,2,7,9],"swapped_pitches":[2,-3,0,-3,5,0,7,5,0,2,7,9],"shift_direction":-1,"question_num":141,"has_decoy":false,"subject":"S1C1210","sona":"41677","block":1,"time":"2021-09-15T16:42:20.033Z"},{"rt":6096.29999999702,"stimulus":"[A] option 1, [L] option 2, [G] neither","key_press":65,"name":"choice","trial_type":"html-keyboard-response","trial_index":180,"time_elapsed":423082,"internal_node_id":"0.0-180.0","response":"1st","certainty":"high","char":"A","transposition":-3,"order":["shifted","swapped"],"probe_pitches":[4,1,-3,1,9,4,-1,9,4,6,-1,1],"shifted_pitches":[4,1,-3,1,9,4,-2,9,4,6,-1,1],"swapped_pitches":[4,1,-3,1,9,-1,4,9,4,6,-1,1],"shift_direction":-1,"question_num":151,"has_decoy":false,"subject":"S1C1210","sona":"41677","block":1,"time":"2021-09-15T16:42:20.033Z"},{"rt":912.4000000059605,"stimulus":"[A] option 1, [L] option 2, [G] neither","key_press":65,"name":"choice","trial_type":"html-keyboard-response","trial_index":191,"time_elapsed":446442,"internal_node_id":"0.0-191.0","response":"1st","certainty":"high","char":"A","transposition":3,"order":["swapped","shifted"],"probe_pitches":[11,7,14,6,7,12,5,3,12,3,12,3],"shifted_pitches":[11,7,14,6,7,13,5,3,12,3,12,3],"swapped_pitches":[11,7,14,6,7,5,12,3,12,3,12,3],"shift_direction":1,"question_num":161,"has_decoy":false,"subject":"S1C1210","sona":"41677","block":1,"time":"2021-09-15T16:42:20.033Z"},{"rt":7336,"stimulus":"[A] option 1, [L] option 2, [G] neither","key_press":76,"name":"choice","trial_type":"html-keyboard-response","trial_index":202,"time_elapsed":476113,"internal_node_id":"0.0-202.0","response":"2nd","certainty":"high","char":"L","transposition":-2,"order":["shifted","swapped"],"probe_pitches":[-3,0,7,9,5,2,-3,7,9,7,-3,9],"shifted_pitches":[-3,0,7,9,5,1,-3,7,9,7,-3,9],"swapped_pitches":[-3,0,7,9,5,-3,2,7,9,7,-3,9],"shift_direction":-1,"question_num":171,"has_decoy":false,"subject":"S1C1210","sona":"41677","block":1,"time":"2021-09-15T16:42:20.033Z"},{"rt":2827.89999999851,"stimulus":"[A] option 1, [L] option 2, [G] neither","key_press":71,"name":"choice","trial_type":"html-keyboard-response","trial_index":213,"time_elapsed":498789,"internal_node_id":"0.0-213.0","response":"neither","certainty":"high","char":"G","transposition":-3,"order":["shifted","swapped"],"probe_pitches":[6,7,11,4,6,9,12,3,5,14,4,7],"shifted_pitches":[6,7,11,4,6,10,12,3,5,14,4,7],"swapped_pitches":[6,7,11,4,6,12,9,3,5,14,4,7],"shift_direction":1,"question_num":181,"has_decoy":false,"subject":"S1C1210","sona":"41677","block":1,"time":"2021-09-15T16:42:20.033Z"},{"rt":4556.30000000447,"stimulus":"[A] option 1, [L] option 2, [G] neither","key_press":76,"name":"choice","trial_type":"html-keyboard-response","trial_index":224,"time_elapsed":522543,"internal_node_id":"0.0-224.0","response":"2nd","certainty":"high","char":"L","transposition":-3,"order":["shifted","swapped"],"probe_pitches":[6,9,2,3,5,8,13,9,5,12,8,6],"shifted_pitches":[6,9,2,3,5,7,13,9,5,12,8,6],"swapped_pitches":[6,9,2,3,5,13,8,9,5,12,8,6],"shift_direction":-1,"question_num":191,"has_decoy":false,"subject":"S1C1210","sona":"41677","block":1,"time":"2021-09-15T16:42:20.033Z"}]