[{"rt":1106.1000000089407,"stimulus":"[A] option 1, [L] option 2, [G] neither","key_press":76,"name":"choice","trial_type":"html-keyboard-response","trial_index":10,"time_elapsed":26127,"internal_node_id":"0.0-10.0","subject":"S1C1670","sona":"41627","block":5,"time":"2021-09-27T02:27:24.060Z","response":"2nd","certainty":"high","char":"L","transposition":1,"order":["swapped","shifted"],"probe_pitches":[9,7,0,5,7,2,9,2,-3,7,9,-3,2,0,5,2],"shifted_pitches":[9,7,0,5,7,2,9,1,-3,7,9,-3,2,0,5,2],"swapped_pitches":[9,7,0,5,7,2,9,-3,2,7,9,-3,2,0,5,2],"shift_direction":-1,"question_num":1,"has_decoy":false},{"rt":6644.5999999940395,"stimulus":"[A] option 1, [L] option 2, [G] neither","key_press":71,"name":"choice","trial_type":"html-keyboard-response","trial_index":21,"time_elapsed":56754,"internal_node_id":"0.0-21.0","subject":"S1C1670","sona":"41627","block":5,"time":"2021-09-27T02:27:24.060Z","response":"neither","certainty":"high","char":"G","transposition":-1,"order":["swapped","shifted"],"probe_pitches":[2,7,8,6,2,4,5,10,2,7,6,8,4,13,4,10],"shifted_pitches":[2,7,8,6,2,4,5,10,3,7,6,8,4,13,4,10],"swapped_pitches":[2,7,8,6,2,4,5,2,10,7,6,8,4,13,4,10],"shift_direction":1,"question_num":11,"has_decoy":false},{"rt":3431.199999988079,"stimulus":"[A] option 1, [L] option 2, [G] neither","key_press":65,"name":"choice","trial_type":"html-keyboard-response","trial_index":32,"time_elapsed":83291,"internal_node_id":"0.0-32.0","subject":"S1C1670","sona":"41627","block":5,"time":"2021-09-27T02:27:24.060Z","response":"1st","certainty":"high","char":"A","transposition":-3,"order":["shifted","swapped"],"probe_pitches":[5,10,12,9,8,3,1,10,3,4,5,1,5,4,6,3],"shifted_pitches":[5,10,12,9,8,3,1,11,3,4,5,1,5,4,6,3],"swapped_pitches":[5,10,12,9,8,3,1,3,10,4,5,1,5,4,6,3],"shift_direction":1,"question_num":21,"has_decoy":false},{"rt":1384.800000011921,"stimulus":"[A] option 1, [L] option 2, [G] neither","key_press":76,"name":"choice","trial_type":"html-keyboard-response","trial_index":43,"time_elapsed":107528,"internal_node_id":"0.0-43.0","subject":"S1C1670","sona":"41627","block":5,"time":"2021-09-27T02:27:24.060Z","response":"2nd","certainty":"high","char":"L","transposition":-1,"order":["shifted","swapped"],"probe_pitches":[13,7,3,4,11,1,5,8,2,7,12,7,6,5,11,4],"shifted_pitches":[13,7,3,4,11,1,5,9,2,7,12,7,6,5,11,4],"swapped_pitches":[13,7,3,4,11,1,5,2,8,7,12,7,6,5,11,4],"shift_direction":1,"question_num":31,"has_decoy":false},{"rt":4758,"stimulus":"[A] option 1, [L] option 2, [G] neither","key_press":76,"name":"choice","trial_type":"html-keyboard-response","trial_index":54,"time_elapsed":137963,"internal_node_id":"0.0-54.0","subject":"S1C1670","sona":"41627","block":5,"time":"2021-09-27T02:27:24.060Z","response":"2nd","certainty":"high","char":"L","transposition":-2,"order":["shifted","swapped"],"probe_pitches":[7,9,2,9,2,4,7,0,2,9,2,4,-3,9,0,4],"shifted_pitches":[7,9,2,9,2,4,7,0,3,9,2,4,-3,9,0,4],"swapped_pitches":[7,9,2,9,2,4,7,2,0,9,2,4,-3,9,0,4],"shift_direction":1,"question_num":41,"has_decoy":false},{"rt":1145,"stimulus":"[A] option 1, [L] option 2, [G] neither","key_press":76,"name":"choice","trial_type":"html-keyboard-response","trial_index":65,"time_elapsed":161961,"internal_node_id":"0.0-65.0","subject":"S1C1670","sona":"41627","block":5,"time":"2021-09-27T02:27:24.060Z","response":"2nd","certainty":"high","char":"L","transposition":3,"order":["shifted","swapped"],"probe_pitches":[13,8,6,1,7,5,8,1,7,8,1,7,1,7,4,11],"shifted_pitches":[13,8,6,1,7,5,8,0,7,8,1,7,1,7,4,11],"swapped_pitches":[13,8,6,1,7,5,8,7,1,8,1,7,1,7,4,11],"shift_direction":-1,"question_num":51,"has_decoy":false},{"rt":996.7000000029802,"stimulus":"[A] option 1, [L] option 2, [G] neither","key_press":65,"name":"choice","trial_type":"html-keyboard-response","trial_index":76,"time_elapsed":185333,"internal_node_id":"0.0-76.0","subject":"S1C1670","sona":"41627","block":5,"time":"2021-09-27T02:27:24.060Z","response":"1st","certainty":"high","char":"A","transposition":-1,"order":["shifted","swapped"],"probe_pitches":[2,-3,0,2,4,7,9,4,-3,7,9,-3,0,-3,0,2],"shifted_pitches":[2,-3,0,2,4,7,9,4,-2,7,9,-3,0,-3,0,2],"swapped_pitches":[2,-3,0,2,4,7,9,-3,4,7,9,-3,0,-3,0,2],"shift_direction":1,"question_num":61,"has_decoy":false},{"rt":1976.2999999970198,"stimulus":"[A] option 1, [L] option 2, [G] neither","key_press":65,"name":"choice","trial_type":"html-keyboard-response","trial_index":87,"time_elapsed":209780,"internal_node_id":"0.0-87.0","subject":"S1C1670","sona":"41627","block":5,"time":"2021-09-27T02:27:24.060Z","response":"1st","certainty":"high","char":"A","transposition":2,"order":["swapped","shifted"],"probe_pitches":[5,7,0,5,9,5,7,9,-3,2,9,2,5,7,-3,9],"shifted_pitches":[5,7,0,5,9,5,7,8,-3,2,9,2,5,7,-3,9],"swapped_pitches":[5,7,0,5,9,5,7,-3,9,2,9,2,5,7,-3,9],"shift_direction":-1,"question_num":71,"has_decoy":false},{"rt":4184.79999999702,"stimulus":"[A] option 1, [L] option 2, [G] neither","key_press":65,"name":"choice","trial_type":"html-keyboard-response","trial_index":98,"time_elapsed":236384,"internal_node_id":"0.0-98.0","subject":"S1C1670","sona":"41627","block":5,"time":"2021-09-27T02:27:24.060Z","response":"1st","certainty":"high","char":"A","transposition":-3,"order":["shifted","swapped"],"probe_pitches":[6,9,2,-3,4,9,2,6,9,4,9,6,-3,4,-1,2],"shifted_pitches":[6,9,2,-3,4,9,2,5,9,4,9,6,-3,4,-1,2],"swapped_pitches":[6,9,2,-3,4,9,2,9,6,4,9,6,-3,4,-1,2],"shift_direction":-1,"question_num":81,"has_decoy":false},{"rt":5539.20000000298,"stimulus":"[A] option 1, [L] option 2, [G] neither","key_press":76,"name":"choice","trial_type":"html-keyboard-response","trial_index":109,"time_elapsed":264939,"internal_node_id":"0.0-109.0","subject":"S1C1670","sona":"41627","block":5,"time":"2021-09-27T02:27:24.060Z","response":"2nd","certainty":"high","char":"L","transposition":0,"order":["swapped","shifted"],"probe_pitches":[3,5,12,11,7,3,2,5,9,11,4,8,11,8,7,3],"shifted_pitches":[3,5,12,11,7,3,2,5,10,11,4,8,11,8,7,3],"swapped_pitches":[3,5,12,11,7,3,2,9,5,11,4,8,11,8,7,3],"shift_direction":1,"question_num":91,"has_decoy":false},{"rt":1416.2000000029802,"stimulus":"[A] option 1, [L] option 2, [G] neither","key_press":65,"name":"choice","trial_type":"html-keyboard-response","trial_index":120,"time_elapsed":290021,"internal_node_id":"0.0-120.0","subject":"S1C1670","sona":"41627","block":5,"time":"2021-09-27T02:27:24.060Z","response":"1st","certainty":"high","char":"A","transposition":-1,"order":["swapped","shifted"],"probe_pitches":[7,2,-1,-3,-1,9,2,9,-1,7,4,7,9,-3,-1,-3],"shifted_pitches":[7,2,-1,-3,-1,9,2,10,-1,7,4,7,9,-3,-1,-3],"swapped_pitches":[7,2,-1,-3,-1,9,2,-1,9,7,4,7,9,-3,-1,-3],"shift_direction":1,"question_num":101,"has_decoy":false},{"rt":2780.7000000029802,"stimulus":"[A] option 1, [L] option 2, [G] neither","key_press":76,"name":"choice","trial_type":"html-keyboard-response","trial_index":131,"time_elapsed":315877,"internal_node_id":"0.0-131.0","subject":"S1C1670","sona":"41627","block":5,"time":"2021-09-27T02:27:24.060Z","response":"2nd","certainty":"high","char":"L","transposition":3,"order":["shifted","swapped"],"probe_pitches":[2,4,7,-1,7,-1,9,7,2,-3,-1,2,-3,-1,7,-3],"shifted_pitches":[2,4,7,-1,7,-1,9,7,1,-3,-1,2,-3,-1,7,-3],"swapped_pitches":[2,4,7,-1,7,-1,9,2,7,-3,-1,2,-3,-1,7,-3],"shift_direction":-1,"question_num":111,"has_decoy":false},{"rt":4032.5,"stimulus":"[A] option 1, [L] option 2, [G] neither","key_press":76,"name":"choice","trial_type":"html-keyboard-response","trial_index":142,"time_elapsed":344207,"internal_node_id":"0.0-142.0","subject":"S1C1670","sona":"41627","block":5,"time":"2021-09-27T02:27:24.060Z","response":"2nd","certainty":"high","char":"L","transposition":-2,"order":["swapped","shifted"],"probe_pitches":[4,-1,1,9,6,4,-3,-1,9,1,-3,6,1,-3,6,-3],"shifted_pitches":[4,-1,1,9,6,4,-3,0,9,1,-3,6,1,-3,6,-3],"swapped_pitches":[4,-1,1,9,6,4,-3,9,-1,1,-3,6,1,-3,6,-3],"shift_direction":1,"question_num":121,"has_decoy":false},{"rt":2006,"stimulus":"[A] option 1, [L] option 2, [G] neither","key_press":76,"name":"choice","trial_type":"html-keyboard-response","trial_index":153,"time_elapsed":369439,"internal_node_id":"0.0-153.0","subject":"S1C1670","sona":"41627","block":5,"time":"2021-09-27T02:27:24.060Z","response":"2nd","certainty":"high","char":"L","transposition":-2,"order":["shifted","swapped"],"probe_pitches":[11,5,1,8,12,9,8,6,5,10,13,12,2,8,9,8],"shifted_pitches":[11,5,1,8,12,9,8,6,4,10,13,12,2,8,9,8],"swapped_pitches":[11,5,1,8,12,9,8,5,6,10,13,12,2,8,9,8],"shift_direction":-1,"question_num":131,"has_decoy":false},{"rt":931.9000000059605,"stimulus":"[A] option 1, [L] option 2, [G] neither","key_press":76,"name":"choice","trial_type":"html-keyboard-response","trial_index":164,"time_elapsed":394328,"internal_node_id":"0.0-164.0","subject":"S1C1670","sona":"41627","block":5,"time":"2021-09-27T02:27:24.060Z","response":"2nd","certainty":"high","char":"L","transposition":0,"order":["swapped","shifted"],"probe_pitches":[9,6,-1,2,-1,9,-1,2,-3,9,4,-3,9,-1,4,6],"shifted_pitches":[9,6,-1,2,-1,9,-1,2,-4,9,4,-3,9,-1,4,6],"swapped_pitches":[9,6,-1,2,-1,9,-1,-3,2,9,4,-3,9,-1,4,6],"shift_direction":-1,"question_num":141,"has_decoy":false},{"rt":2530.1000000089407,"stimulus":"[A] option 1, [L] option 2, [G] neither","key_press":76,"name":"choice","trial_type":"html-keyboard-response","trial_index":175,"time_elapsed":420076,"internal_node_id":"0.0-175.0","subject":"S1C1670","sona":"41627","block":5,"time":"2021-09-27T02:27:24.060Z","response":"2nd","certainty":"high","char":"L","transposition":-3,"order":["shifted","swapped"],"probe_pitches":[13,11,8,10,4,12,13,6,1,11,13,1,4,9,1,10],"shifted_pitches":[13,11,8,10,4,12,13,5,1,11,13,1,4,9,1,10],"swapped_pitches":[13,11,8,10,4,12,13,1,6,11,13,1,4,9,1,10],"shift_direction":-1,"question_num":151,"has_decoy":false},{"rt":1634.7999999970198,"stimulus":"[A] option 1, [L] option 2, [G] neither","key_press":65,"name":"choice","trial_type":"html-keyboard-response","trial_index":186,"time_elapsed":444809,"internal_node_id":"0.0-186.0","subject":"S1C1670","sona":"41627","block":5,"time":"2021-09-27T02:27:24.060Z","response":"1st","certainty":"high","char":"A","transposition":-3,"order":["shifted","swapped"],"probe_pitches":[9,4,6,9,4,9,6,-3,1,-1,9,6,-3,-1,6,9],"shifted_pitches":[9,4,6,9,4,9,6,-3,2,-1,9,6,-3,-1,6,9],"swapped_pitches":[9,4,6,9,4,9,6,1,-3,-1,9,6,-3,-1,6,9],"shift_direction":1,"question_num":161,"has_decoy":false},{"rt":1220.2000000029802,"stimulus":"[A] option 1, [L] option 2, [G] neither","key_press":76,"name":"choice","trial_type":"html-keyboard-response","trial_index":197,"time_elapsed":468474,"internal_node_id":"0.0-197.0","subject":"S1C1670","sona":"41627","block":5,"time":"2021-09-27T02:27:24.060Z","response":"2nd","certainty":"high","char":"L","transposition":1,"order":["swapped","shifted"],"probe_pitches":[2,5,6,4,3,7,1,6,9,10,5,11,10,7,10,2],"shifted_pitches":[2,5,6,4,3,7,1,6,8,10,5,11,10,7,10,2],"swapped_pitches":[2,5,6,4,3,7,1,9,6,10,5,11,10,7,10,2],"shift_direction":-1,"question_num":171,"has_decoy":false},{"rt":1059.800000011921,"stimulus":"[A] option 1, [L] option 2, [G] neither","key_press":76,"name":"choice","trial_type":"html-keyboard-response","trial_index":208,"time_elapsed":491920,"internal_node_id":"0.0-208.0","subject":"S1C1670","sona":"41627","block":5,"time":"2021-09-27T02:27:24.060Z","response":"2nd","certainty":"high","char":"L","transposition":-2,"order":["swapped","shifted"],"probe_pitches":[11,10,13,9,2,10,9,7,11,8,4,3,12,5,2,10],"shifted_pitches":[11,10,13,9,2,10,9,6,11,8,4,3,12,5,2,10],"swapped_pitches":[11,10,13,9,2,10,9,11,7,8,4,3,12,5,2,10],"shift_direction":-1,"question_num":181,"has_decoy":false},{"rt":2707.7999999970198,"stimulus":"[A] option 1, [L] option 2, [G] neither","key_press":76,"name":"choice","trial_type":"html-keyboard-response","trial_index":219,"time_elapsed":517649,"internal_node_id":"0.0-219.0","subject":"S1C1670","sona":"41627","block":5,"time":"2021-09-27T02:27:24.060Z","response":"2nd","certainty":"high","char":"L","transposition":2,"order":["swapped","shifted"],"probe_pitches":[9,5,4,2,9,13,8,4,6,10,2,11,4,2,11,8],"shifted_pitches":[9,5,4,2,9,13,8,4,7,10,2,11,4,2,11,8],"swapped_pitches":[9,5,4,2,9,13,8,6,4,10,2,11,4,2,11,8],"shift_direction":1,"question_num":191,"has_decoy":false}]