[{"rt":967.4000000059605,"stimulus":"[A] option 1, [L] option 2, [G] neither","key_press":76,"name":"choice","trial_type":"html-keyboard-response","trial_index":10,"time_elapsed":27472,"internal_node_id":"0.0-10.0","subject":"S1C1670","sona":"41627","block":4,"time":"2021-09-27T02:17:33.094Z","response":"2nd","certainty":"high","char":"L","transposition":-1,"order":["swapped","shifted"],"probe_pitches":[15,12,15,12,5,12,15,3,8,15,8,3,10,15,12,5],"shifted_pitches":[15,12,15,12,5,12,15,2,8,15,8,3,10,15,12,5],"swapped_pitches":[15,12,15,12,5,12,15,8,3,15,8,3,10,15,12,5],"shift_direction":-1,"question_num":1,"has_decoy":false},{"rt":1303.7000000029802,"stimulus":"[A] option 1, [L] option 2, [G] neither","key_press":65,"name":"choice","trial_type":"html-keyboard-response","trial_index":21,"time_elapsed":52502,"internal_node_id":"0.0-21.0","subject":"S1C1670","sona":"41627","block":4,"time":"2021-09-27T02:17:33.094Z","response":"1st","certainty":"high","char":"A","transposition":2,"order":["shifted","swapped"],"probe_pitches":[12,10,15,10,8,3,8,5,12,3,5,3,5,15,3,12],"shifted_pitches":[12,10,15,10,8,3,8,5,13,3,5,3,5,15,3,12],"swapped_pitches":[12,10,15,10,8,3,8,12,5,3,5,3,5,15,3,12],"shift_direction":1,"question_num":11,"has_decoy":false},{"rt":1460.2999999970198,"stimulus":"[A] option 1, [L] option 2, [G] neither","key_press":76,"name":"choice","trial_type":"html-keyboard-response","trial_index":32,"time_elapsed":77284,"internal_node_id":"0.0-32.0","subject":"S1C1670","sona":"41627","block":4,"time":"2021-09-27T02:17:33.094Z","response":"2nd","certainty":"high","char":"L","transposition":1,"order":["shifted","swapped"],"probe_pitches":[3,-2,1,2,-2,1,5,8,1,10,5,4,5,6,2,-2],"shifted_pitches":[3,-2,1,2,-2,1,5,9,1,10,5,4,5,6,2,-2],"swapped_pitches":[3,-2,1,2,-2,1,5,1,8,10,5,4,5,6,2,-2],"shift_direction":1,"question_num":21,"has_decoy":false},{"rt":1455.3999999910593,"stimulus":"[A] option 1, [L] option 2, [G] neither","key_press":65,"name":"choice","trial_type":"html-keyboard-response","trial_index":43,"time_elapsed":126817,"internal_node_id":"0.0-43.0","subject":"S1C1670","sona":"41627","block":4,"time":"2021-09-27T02:17:33.094Z","response":"1st","certainty":"high","char":"A","transposition":1,"order":["shifted","swapped"],"probe_pitches":[7,12,15,12,15,10,7,5,3,7,10,3,5,15,7,5],"shifted_pitches":[7,12,15,12,15,10,7,4,3,7,10,3,5,15,7,5],"swapped_pitches":[7,12,15,12,15,10,7,3,5,7,10,3,5,15,7,5],"shift_direction":-1,"question_num":31,"has_decoy":false},{"rt":497.79999999701977,"stimulus":"[A] option 1, [L] option 2, [G] neither","key_press":65,"name":"choice","trial_type":"html-keyboard-response","trial_index":54,"time_elapsed":150361,"internal_node_id":"0.0-54.0","subject":"S1C1670","sona":"41627","block":4,"time":"2021-09-27T02:17:33.094Z","response":"1st","certainty":"high","char":"A","transposition":-2,"order":["shifted","swapped"],"probe_pitches":[5,7,3,7,12,5,7,10,12,5,12,5,12,5,10,3],"shifted_pitches":[5,7,3,7,12,5,7,10,13,5,12,5,12,5,10,3],"swapped_pitches":[5,7,3,7,12,5,7,12,10,5,12,5,12,5,10,3],"shift_direction":1,"question_num":41,"has_decoy":false},{"rt":3027.8999999910593,"stimulus":"[A] option 1, [L] option 2, [G] neither","key_press":76,"name":"choice","trial_type":"html-keyboard-response","trial_index":65,"time_elapsed":176161,"internal_node_id":"0.0-65.0","subject":"S1C1670","sona":"41627","block":4,"time":"2021-09-27T02:17:33.094Z","response":"2nd","certainty":"high","char":"L","transposition":-1,"order":["swapped","shifted"],"probe_pitches":[9,4,2,8,7,0,4,1,6,7,6,3,8,-2,2,8],"shifted_pitches":[9,4,2,8,7,0,4,1,5,7,6,3,8,-2,2,8],"swapped_pitches":[9,4,2,8,7,0,4,6,1,7,6,3,8,-2,2,8],"shift_direction":-1,"question_num":51,"has_decoy":false},{"rt":964.7000000029802,"stimulus":"[A] option 1, [L] option 2, [G] neither","key_press":76,"name":"choice","trial_type":"html-keyboard-response","trial_index":76,"time_elapsed":199896,"internal_node_id":"0.0-76.0","subject":"S1C1670","sona":"41627","block":4,"time":"2021-09-27T02:17:33.094Z","response":"2nd","certainty":"high","char":"L","transposition":-3,"order":["swapped","shifted"],"probe_pitches":[3,6,13,15,11,3,8,15,11,6,3,15,3,15,6,13],"shifted_pitches":[3,6,13,15,11,3,8,14,11,6,3,15,3,15,6,13],"swapped_pitches":[3,6,13,15,11,3,8,11,15,6,3,15,3,15,6,13],"shift_direction":-1,"question_num":61,"has_decoy":false},{"rt":4266.4000000059605,"stimulus":"[A] option 1, [L] option 2, [G] neither","key_press":71,"name":"choice","trial_type":"html-keyboard-response","trial_index":87,"time_elapsed":226867,"internal_node_id":"0.0-87.0","subject":"S1C1670","sona":"41627","block":4,"time":"2021-09-27T02:17:33.094Z","response":"neither","certainty":"high","char":"G","transposition":3,"order":["shifted","swapped"],"probe_pitches":[6,3,2,1,-2,2,4,7,1,10,5,0,9,-2,10,7],"shifted_pitches":[6,3,2,1,-2,2,4,8,1,10,5,0,9,-2,10,7],"swapped_pitches":[6,3,2,1,-2,2,4,1,7,10,5,0,9,-2,10,7],"shift_direction":1,"question_num":71,"has_decoy":false},{"rt":3573.2000000029802,"stimulus":"[A] option 1, [L] option 2, [G] neither","key_press":65,"name":"choice","trial_type":"html-keyboard-response","trial_index":98,"time_elapsed":253802,"internal_node_id":"0.0-98.0","subject":"S1C1670","sona":"41627","block":4,"time":"2021-09-27T02:17:33.094Z","response":"1st","certainty":"high","char":"A","transposition":0,"order":["swapped","shifted"],"probe_pitches":[3,6,8,3,6,3,10,13,6,15,8,15,3,13,8,15],"shifted_pitches":[3,6,8,3,6,3,10,13,5,15,8,15,3,13,8,15],"swapped_pitches":[3,6,8,3,6,3,10,6,13,15,8,15,3,13,8,15],"shift_direction":-1,"question_num":81,"has_decoy":false},{"rt":2150.5,"stimulus":"[A] option 1, [L] option 2, [G] neither","key_press":65,"name":"choice","trial_type":"html-keyboard-response","trial_index":109,"time_elapsed":278998,"internal_node_id":"0.0-109.0","subject":"S1C1670","sona":"41627","block":4,"time":"2021-09-27T02:17:33.094Z","response":"1st","certainty":"high","char":"A","transposition":-2,"order":["swapped","shifted"],"probe_pitches":[9,6,4,5,7,4,8,6,3,8,6,5,1,-1,5,3],"shifted_pitches":[9,6,4,5,7,4,8,6,2,8,6,5,1,-1,5,3],"swapped_pitches":[9,6,4,5,7,4,8,3,6,8,6,5,1,-1,5,3],"shift_direction":-1,"question_num":91,"has_decoy":false},{"rt":2112.9000000059605,"stimulus":"[A] option 1, [L] option 2, [G] neither","key_press":65,"name":"choice","trial_type":"html-keyboard-response","trial_index":120,"time_elapsed":303878,"internal_node_id":"0.0-120.0","subject":"S1C1670","sona":"41627","block":4,"time":"2021-09-27T02:17:33.094Z","response":"1st","certainty":"high","char":"A","transposition":-2,"order":["shifted","swapped"],"probe_pitches":[8,2,-2,1,0,7,4,2,10,-1,6,10,-1,10,7,6],"shifted_pitches":[8,2,-2,1,0,7,4,3,10,-1,6,10,-1,10,7,6],"swapped_pitches":[8,2,-2,1,0,7,4,10,2,-1,6,10,-1,10,7,6],"shift_direction":1,"question_num":101,"has_decoy":false},{"rt":1700,"stimulus":"[A] option 1, [L] option 2, [G] neither","key_press":76,"name":"choice","trial_type":"html-keyboard-response","trial_index":131,"time_elapsed":328842,"internal_node_id":"0.0-131.0","subject":"S1C1670","sona":"41627","block":4,"time":"2021-09-27T02:17:33.094Z","response":"2nd","certainty":"high","char":"L","transposition":-1,"order":["shifted","swapped"],"probe_pitches":[5,-1,3,0,3,7,4,7,1,9,7,9,3,2,-2,3],"shifted_pitches":[5,-1,3,0,3,7,4,6,1,9,7,9,3,2,-2,3],"swapped_pitches":[5,-1,3,0,3,7,4,1,7,9,7,9,3,2,-2,3],"shift_direction":-1,"question_num":111,"has_decoy":false},{"rt":1509.7000000029802,"stimulus":"[A] option 1, [L] option 2, [G] neither","key_press":76,"name":"choice","trial_type":"html-keyboard-response","trial_index":142,"time_elapsed":352690,"internal_node_id":"0.0-142.0","subject":"S1C1670","sona":"41627","block":4,"time":"2021-09-27T02:17:33.094Z","response":"2nd","certainty":"high","char":"L","transposition":-3,"order":["swapped","shifted"],"probe_pitches":[8,13,8,13,10,15,10,8,5,3,13,5,3,8,10,3],"shifted_pitches":[8,13,8,13,10,15,10,9,5,3,13,5,3,8,10,3],"swapped_pitches":[8,13,8,13,10,15,10,5,8,3,13,5,3,8,10,3],"shift_direction":1,"question_num":121,"has_decoy":false},{"rt":1112.4000000059605,"stimulus":"[A] option 1, [L] option 2, [G] neither","key_press":76,"name":"choice","trial_type":"html-keyboard-response","trial_index":153,"time_elapsed":379936,"internal_node_id":"0.0-153.0","subject":"S1C1670","sona":"41627","block":4,"time":"2021-09-27T02:17:33.094Z","response":"2nd","certainty":"high","char":"L","transposition":2,"order":["swapped","shifted"],"probe_pitches":[7,8,7,10,3,0,10,8,3,0,10,3,6,5,-1,10],"shifted_pitches":[7,8,7,10,3,0,10,8,4,0,10,3,6,5,-1,10],"swapped_pitches":[7,8,7,10,3,0,10,3,8,0,10,3,6,5,-1,10],"shift_direction":1,"question_num":131,"has_decoy":false},{"rt":1307.7999999970198,"stimulus":"[A] option 1, [L] option 2, [G] neither","key_press":76,"name":"choice","trial_type":"html-keyboard-response","trial_index":164,"time_elapsed":405406,"internal_node_id":"0.0-164.0","subject":"S1C1670","sona":"41627","block":4,"time":"2021-09-27T02:17:33.094Z","response":"2nd","certainty":"high","char":"L","transposition":-1,"order":["shifted","swapped"],"probe_pitches":[13,11,8,3,6,3,13,6,11,13,6,13,6,15,11,6],"shifted_pitches":[13,11,8,3,6,3,13,6,12,13,6,13,6,15,11,6],"swapped_pitches":[13,11,8,3,6,3,13,11,6,13,6,13,6,15,11,6],"shift_direction":1,"question_num":141,"has_decoy":false},{"rt":1337.2999999970198,"stimulus":"[A] option 1, [L] option 2, [G] neither","key_press":76,"name":"choice","trial_type":"html-keyboard-response","trial_index":175,"time_elapsed":429394,"internal_node_id":"0.0-175.0","subject":"S1C1670","sona":"41627","block":4,"time":"2021-09-27T02:17:33.094Z","response":"2nd","certainty":"high","char":"L","transposition":-3,"order":["shifted","swapped"],"probe_pitches":[10,8,3,6,3,0,2,8,0,4,9,4,0,-2,0,6],"shifted_pitches":[10,8,3,6,3,0,2,8,1,4,9,4,0,-2,0,6],"swapped_pitches":[10,8,3,6,3,0,2,0,8,4,9,4,0,-2,0,6],"shift_direction":1,"question_num":151,"has_decoy":false},{"rt":3071.7999999970198,"stimulus":"[A] option 1, [L] option 2, [G] neither","key_press":71,"name":"choice","trial_type":"html-keyboard-response","trial_index":186,"time_elapsed":455374,"internal_node_id":"0.0-186.0","subject":"S1C1670","sona":"41627","block":4,"time":"2021-09-27T02:17:33.094Z","response":"neither","certainty":"high","char":"G","transposition":-3,"order":["swapped","shifted"],"probe_pitches":[-2,2,7,8,7,2,8,1,9,-2,5,3,8,2,4,-1],"shifted_pitches":[-2,2,7,8,7,2,8,0,9,-2,5,3,8,2,4,-1],"swapped_pitches":[-2,2,7,8,7,2,8,9,1,-2,5,3,8,2,4,-1],"shift_direction":-1,"question_num":161,"has_decoy":false},{"rt":814.2999999970198,"stimulus":"[A] option 1, [L] option 2, [G] neither","key_press":76,"name":"choice","trial_type":"html-keyboard-response","trial_index":197,"time_elapsed":480301,"internal_node_id":"0.0-197.0","subject":"S1C1670","sona":"41627","block":4,"time":"2021-09-27T02:17:33.094Z","response":"2nd","certainty":"high","char":"L","transposition":3,"order":["swapped","shifted"],"probe_pitches":[13,10,15,13,15,8,15,6,13,3,13,6,8,15,13,10],"shifted_pitches":[13,10,15,13,15,8,15,6,12,3,13,6,8,15,13,10],"swapped_pitches":[13,10,15,13,15,8,15,13,6,3,13,6,8,15,13,10],"shift_direction":-1,"question_num":171,"has_decoy":false},{"rt":6094.20000000298,"stimulus":"[A] option 1, [L] option 2, [G] neither","key_press":76,"name":"choice","trial_type":"html-keyboard-response","trial_index":208,"time_elapsed":509017,"internal_node_id":"0.0-208.0","subject":"S1C1670","sona":"41627","block":4,"time":"2021-09-27T02:17:33.094Z","response":"2nd","certainty":"high","char":"L","transposition":-2,"order":["shifted","swapped"],"probe_pitches":[15,10,15,13,15,8,3,15,10,13,10,15,3,5,3,13],"shifted_pitches":[15,10,15,13,15,8,3,16,10,13,10,15,3,5,3,13],"swapped_pitches":[15,10,15,13,15,8,3,10,15,13,10,15,3,5,3,13],"shift_direction":1,"question_num":181,"has_decoy":false},{"rt":975,"stimulus":"[A] option 1, [L] option 2, [G] neither","key_press":76,"name":"choice","trial_type":"html-keyboard-response","trial_index":219,"time_elapsed":532751,"internal_node_id":"0.0-219.0","subject":"S1C1670","sona":"41627","block":4,"time":"2021-09-27T02:17:33.094Z","response":"2nd","certainty":"high","char":"L","transposition":0,"order":["swapped","shifted"],"probe_pitches":[4,5,2,-1,1,-1,0,5,8,-1,2,10,8,3,-1,3],"shifted_pitches":[4,5,2,-1,1,-1,0,5,7,-1,2,10,8,3,-1,3],"swapped_pitches":[4,5,2,-1,1,-1,0,8,5,-1,2,10,8,3,-1,3],"shift_direction":-1,"question_num":191,"has_decoy":false}]