[{"rt":1747.7000000029802,"stimulus":"[A] option 1, [L] option 2, [G] neither","key_press":76,"name":"choice","trial_type":"html-keyboard-response","trial_index":10,"time_elapsed":25672,"internal_node_id":"0.0-10.0","subject":"S1C1670","sona":"41627","block":6,"time":"2021-09-27T02:36:16.127Z","response":"2nd","certainty":"high","char":"L","transposition":-2,"order":["shifted","swapped"],"probe_pitches":[5,7,3,4,13,11,2,11,9,7,6,5,6,14,5,2],"shifted_pitches":[5,7,3,4,13,11,2,11,10,7,6,5,6,14,5,2],"swapped_pitches":[5,7,3,4,13,11,2,9,11,7,6,5,6,14,5,2],"shift_direction":1,"question_num":1,"has_decoy":false},{"rt":4103,"stimulus":"[A] option 1, [L] option 2, [G] neither","key_press":65,"name":"choice","trial_type":"html-keyboard-response","trial_index":21,"time_elapsed":52268,"internal_node_id":"0.0-21.0","subject":"S1C1670","sona":"41627","block":6,"time":"2021-09-27T02:36:16.127Z","response":"1st","certainty":"high","char":"A","transposition":-3,"order":["swapped","shifted"],"probe_pitches":[3,2,9,8,3,9,3,10,2,14,7,5,6,3,5,14],"shifted_pitches":[3,2,9,8,3,9,3,11,2,14,7,5,6,3,5,14],"swapped_pitches":[3,2,9,8,3,9,3,2,10,14,7,5,6,3,5,14],"shift_direction":1,"question_num":11,"has_decoy":false},{"rt":2139.7999999970198,"stimulus":"[A] option 1, [L] option 2, [G] neither","key_press":71,"name":"choice","trial_type":"html-keyboard-response","trial_index":32,"time_elapsed":77442,"internal_node_id":"0.0-32.0","subject":"S1C1670","sona":"41627","block":6,"time":"2021-09-27T02:36:16.127Z","response":"neither","certainty":"high","char":"G","transposition":-1,"order":["shifted","swapped"],"probe_pitches":[2,4,6,2,7,5,11,5,12,8,12,2,12,7,6,7],"shifted_pitches":[2,4,6,2,7,5,11,5,13,8,12,2,12,7,6,7],"swapped_pitches":[2,4,6,2,7,5,11,12,5,8,12,2,12,7,6,7],"shift_direction":1,"question_num":21,"has_decoy":false},{"rt":2736.5,"stimulus":"[A] option 1, [L] option 2, [G] neither","key_press":65,"name":"choice","trial_type":"html-keyboard-response","trial_index":43,"time_elapsed":102966,"internal_node_id":"0.0-43.0","subject":"S1C1670","sona":"41627","block":6,"time":"2021-09-27T02:36:16.127Z","response":"1st","certainty":"high","char":"A","transposition":-1,"order":["shifted","swapped"],"probe_pitches":[8,10,5,0,8,3,5,3,8,5,3,5,10,8,10,5],"shifted_pitches":[8,10,5,0,8,3,5,2,8,5,3,5,10,8,10,5],"swapped_pitches":[8,10,5,0,8,3,5,8,3,5,3,5,10,8,10,5],"shift_direction":-1,"question_num":31,"has_decoy":false},{"rt":3278,"stimulus":"[A] option 1, [L] option 2, [G] neither","key_press":76,"name":"choice","trial_type":"html-keyboard-response","trial_index":54,"time_elapsed":128816,"internal_node_id":"0.0-54.0","subject":"S1C1670","sona":"41627","block":6,"time":"2021-09-27T02:36:16.127Z","response":"2nd","certainty":"high","char":"L","transposition":-3,"order":["shifted","swapped"],"probe_pitches":[5,8,14,6,3,7,12,7,3,14,6,9,12,7,3,5],"shifted_pitches":[5,8,14,6,3,7,12,7,4,14,6,9,12,7,3,5],"swapped_pitches":[5,8,14,6,3,7,12,3,7,14,6,9,12,7,3,5],"shift_direction":1,"question_num":41,"has_decoy":false},{"rt":907.5,"stimulus":"[A] option 1, [L] option 2, [G] neither","key_press":76,"name":"choice","trial_type":"html-keyboard-response","trial_index":65,"time_elapsed":157678,"internal_node_id":"0.0-65.0","subject":"S1C1670","sona":"41627","block":6,"time":"2021-09-27T02:36:16.127Z","response":"2nd","certainty":"high","char":"L","transposition":-2,"order":["swapped","shifted"],"probe_pitches":[4,8,5,11,9,3,8,7,5,11,7,9,11,3,12,8],"shifted_pitches":[4,8,5,11,9,3,8,6,5,11,7,9,11,3,12,8],"swapped_pitches":[4,8,5,11,9,3,8,5,7,11,7,9,11,3,12,8],"shift_direction":-1,"question_num":51,"has_decoy":false},{"rt":10384.29999999702,"stimulus":"[A] option 1, [L] option 2, [G] neither","key_press":76,"name":"choice","trial_type":"html-keyboard-response","trial_index":76,"time_elapsed":190691,"internal_node_id":"0.0-76.0","subject":"S1C1670","sona":"41627","block":6,"time":"2021-09-27T02:36:16.127Z","response":"2nd","certainty":"high","char":"L","transposition":1,"order":["shifted","swapped"],"probe_pitches":[5,10,3,0,3,8,10,-2,8,3,10,0,8,0,-2,10],"shifted_pitches":[5,10,3,0,3,8,10,-2,7,3,10,0,8,0,-2,10],"swapped_pitches":[5,10,3,0,3,8,10,8,-2,3,10,0,8,0,-2,10],"shift_direction":-1,"question_num":61,"has_decoy":false},{"rt":2335.5,"stimulus":"[A] option 1, [L] option 2, [G] neither","key_press":65,"name":"choice","trial_type":"html-keyboard-response","trial_index":87,"time_elapsed":216894,"internal_node_id":"0.0-87.0","subject":"S1C1670","sona":"41627","block":6,"time":"2021-09-27T02:36:16.127Z","response":"1st","certainty":"high","char":"A","transposition":3,"order":["shifted","swapped"],"probe_pitches":[8,14,11,14,13,5,8,7,10,12,8,6,11,10,7,5],"shifted_pitches":[8,14,11,14,13,5,8,7,9,12,8,6,11,10,7,5],"swapped_pitches":[8,14,11,14,13,5,8,10,7,12,8,6,11,10,7,5],"shift_direction":-1,"question_num":71,"has_decoy":false},{"rt":9202.40000000596,"stimulus":"[A] option 1, [L] option 2, [G] neither","key_press":76,"name":"choice","trial_type":"html-keyboard-response","trial_index":98,"time_elapsed":248428,"internal_node_id":"0.0-98.0","subject":"S1C1670","sona":"41627","block":6,"time":"2021-09-27T02:36:16.127Z","response":"2nd","certainty":"high","char":"L","transposition":1,"order":["swapped","shifted"],"probe_pitches":[5,2,6,12,6,13,6,9,7,12,6,9,2,12,5,6],"shifted_pitches":[5,2,6,12,6,13,6,8,7,12,6,9,2,12,5,6],"swapped_pitches":[5,2,6,12,6,13,6,7,9,12,6,9,2,12,5,6],"shift_direction":-1,"question_num":81,"has_decoy":false},{"rt":4503.29999999702,"stimulus":"[A] option 1, [L] option 2, [G] neither","key_press":76,"name":"choice","trial_type":"html-keyboard-response","trial_index":109,"time_elapsed":275730,"internal_node_id":"0.0-109.0","subject":"S1C1670","sona":"41627","block":6,"time":"2021-09-27T02:36:16.127Z","response":"2nd","certainty":"high","char":"L","transposition":2,"order":["shifted","swapped"],"probe_pitches":[5,3,10,5,8,10,5,10,3,5,3,1,8,1,-2,5],"shifted_pitches":[5,3,10,5,8,10,5,10,4,5,3,1,8,1,-2,5],"swapped_pitches":[5,3,10,5,8,10,5,3,10,5,3,1,8,1,-2,5],"shift_direction":1,"question_num":91,"has_decoy":false},{"rt":2551.6000000089407,"stimulus":"[A] option 1, [L] option 2, [G] neither","key_press":76,"name":"choice","trial_type":"html-keyboard-response","trial_index":120,"time_elapsed":300680,"internal_node_id":"0.0-120.0","subject":"S1C1670","sona":"41627","block":6,"time":"2021-09-27T02:36:16.127Z","response":"2nd","certainty":"high","char":"L","transposition":0,"order":["swapped","shifted"],"probe_pitches":[-2,3,-2,5,1,8,10,1,3,-2,5,3,10,1,10,-2],"shifted_pitches":[-2,3,-2,5,1,8,10,2,3,-2,5,3,10,1,10,-2],"swapped_pitches":[-2,3,-2,5,1,8,10,3,1,-2,5,3,10,1,10,-2],"shift_direction":1,"question_num":101,"has_decoy":false},{"rt":8731.60000000894,"stimulus":"[A] option 1, [L] option 2, [G] neither","key_press":76,"name":"choice","trial_type":"html-keyboard-response","trial_index":131,"time_elapsed":333741,"internal_node_id":"0.0-131.0","subject":"S1C1670","sona":"41627","block":6,"time":"2021-09-27T02:36:16.127Z","response":"2nd","certainty":"high","char":"L","transposition":-2,"order":["swapped","shifted"],"probe_pitches":[10,8,3,8,10,8,6,8,3,-2,6,10,-2,3,6,1],"shifted_pitches":[10,8,3,8,10,8,6,9,3,-2,6,10,-2,3,6,1],"swapped_pitches":[10,8,3,8,10,8,6,3,8,-2,6,10,-2,3,6,1],"shift_direction":1,"question_num":111,"has_decoy":false},{"rt":2056.9000000059605,"stimulus":"[A] option 1, [L] option 2, [G] neither","key_press":65,"name":"choice","trial_type":"html-keyboard-response","trial_index":142,"time_elapsed":358160,"internal_node_id":"0.0-142.0","subject":"S1C1670","sona":"41627","block":6,"time":"2021-09-27T02:36:16.127Z","response":"1st","certainty":"high","char":"A","transposition":-3,"order":["swapped","shifted"],"probe_pitches":[3,-2,0,5,3,-2,7,0,10,7,-2,0,-2,7,5,7],"shifted_pitches":[3,-2,0,5,3,-2,7,-1,10,7,-2,0,-2,7,5,7],"swapped_pitches":[3,-2,0,5,3,-2,7,10,0,7,-2,0,-2,7,5,7],"shift_direction":-1,"question_num":121,"has_decoy":false},{"rt":1258.5999999940395,"stimulus":"[A] option 1, [L] option 2, [G] neither","key_press":76,"name":"choice","trial_type":"html-keyboard-response","trial_index":153,"time_elapsed":381869,"internal_node_id":"0.0-153.0","subject":"S1C1670","sona":"41627","block":6,"time":"2021-09-27T02:36:16.127Z","response":"2nd","certainty":"high","char":"L","transposition":2,"order":["shifted","swapped"],"probe_pitches":[8,6,8,10,11,8,2,6,11,8,10,6,2,14,3,10],"shifted_pitches":[8,6,8,10,11,8,2,7,11,8,10,6,2,14,3,10],"swapped_pitches":[8,6,8,10,11,8,2,11,6,8,10,6,2,14,3,10],"shift_direction":1,"question_num":131,"has_decoy":false},{"rt":2205.7999999970198,"stimulus":"[A] option 1, [L] option 2, [G] neither","key_press":65,"name":"choice","trial_type":"html-keyboard-response","trial_index":164,"time_elapsed":406705,"internal_node_id":"0.0-164.0","subject":"S1C1670","sona":"41627","block":6,"time":"2021-09-27T02:36:16.127Z","response":"1st","certainty":"high","char":"A","transposition":0,"order":["swapped","shifted"],"probe_pitches":[6,12,9,11,13,12,14,6,11,8,7,13,2,4,12,7],"shifted_pitches":[6,12,9,11,13,12,14,5,11,8,7,13,2,4,12,7],"swapped_pitches":[6,12,9,11,13,12,14,11,6,8,7,13,2,4,12,7],"shift_direction":-1,"question_num":141,"has_decoy":false},{"rt":1082.0999999940395,"stimulus":"[A] option 1, [L] option 2, [G] neither","key_press":65,"name":"choice","trial_type":"html-keyboard-response","trial_index":175,"time_elapsed":431747,"internal_node_id":"0.0-175.0","subject":"S1C1670","sona":"41627","block":6,"time":"2021-09-27T02:36:16.127Z","response":"1st","certainty":"high","char":"A","transposition":-2,"order":["shifted","swapped"],"probe_pitches":[10,5,0,-2,5,2,0,7,5,0,10,-2,2,-2,7,5],"shifted_pitches":[10,5,0,-2,5,2,0,7,4,0,10,-2,2,-2,7,5],"swapped_pitches":[10,5,0,-2,5,2,0,5,7,0,10,-2,2,-2,7,5],"shift_direction":-1,"question_num":151,"has_decoy":false},{"rt":3390.699999988079,"stimulus":"[A] option 1, [L] option 2, [G] neither","key_press":76,"name":"choice","trial_type":"html-keyboard-response","trial_index":186,"time_elapsed":457469,"internal_node_id":"0.0-186.0","subject":"S1C1670","sona":"41627","block":6,"time":"2021-09-27T02:36:16.127Z","response":"2nd","certainty":"high","char":"L","transposition":-1,"order":["swapped","shifted"],"probe_pitches":[7,2,0,7,0,5,2,7,-2,5,-2,5,0,7,5,10],"shifted_pitches":[7,2,0,7,0,5,2,7,-3,5,-2,5,0,7,5,10],"swapped_pitches":[7,2,0,7,0,5,2,-2,7,5,-2,5,0,7,5,10],"shift_direction":-1,"question_num":161,"has_decoy":false},{"rt":911.3999999910593,"stimulus":"[A] option 1, [L] option 2, [G] neither","key_press":76,"name":"choice","trial_type":"html-keyboard-response","trial_index":197,"time_elapsed":480921,"internal_node_id":"0.0-197.0","subject":"S1C1670","sona":"41627","block":6,"time":"2021-09-27T02:36:16.127Z","response":"2nd","certainty":"high","char":"L","transposition":-3,"order":["swapped","shifted"],"probe_pitches":[7,5,10,7,5,3,5,-2,10,5,10,0,3,0,-2,7],"shifted_pitches":[7,5,10,7,5,3,5,-2,11,5,10,0,3,0,-2,7],"swapped_pitches":[7,5,10,7,5,3,5,10,-2,5,10,0,3,0,-2,7],"shift_direction":1,"question_num":171,"has_decoy":false},{"rt":1034.7999999970198,"stimulus":"[A] option 1, [L] option 2, [G] neither","key_press":76,"name":"choice","trial_type":"html-keyboard-response","trial_index":208,"time_elapsed":504522,"internal_node_id":"0.0-208.0","subject":"S1C1670","sona":"41627","block":6,"time":"2021-09-27T02:36:16.127Z","response":"2nd","certainty":"high","char":"L","transposition":3,"order":["shifted","swapped"],"probe_pitches":[6,1,8,3,8,-2,6,8,3,-2,3,-2,10,-2,10,6],"shifted_pitches":[6,1,8,3,8,-2,6,9,3,-2,3,-2,10,-2,10,6],"swapped_pitches":[6,1,8,3,8,-2,6,3,8,-2,3,-2,10,-2,10,6],"shift_direction":1,"question_num":181,"has_decoy":false},{"rt":1069.199999988079,"stimulus":"[A] option 1, [L] option 2, [G] neither","key_press":76,"name":"choice","trial_type":"html-keyboard-response","trial_index":219,"time_elapsed":527954,"internal_node_id":"0.0-219.0","subject":"S1C1670","sona":"41627","block":6,"time":"2021-09-27T02:36:16.127Z","response":"2nd","certainty":"high","char":"L","transposition":-1,"order":["swapped","shifted"],"probe_pitches":[7,10,6,9,11,13,6,9,13,14,2,3,9,13,9,4],"shifted_pitches":[7,10,6,9,11,13,6,9,12,14,2,3,9,13,9,4],"swapped_pitches":[7,10,6,9,11,13,6,13,9,14,2,3,9,13,9,4],"shift_direction":-1,"question_num":191,"has_decoy":false}]