[{"rt":6727.79999999702,"stimulus":"[A] option 1, [L] option 2, [G] neither","key_press":76,"name":"choice","trial_type":"html-keyboard-response","trial_index":15,"time_elapsed":85249,"internal_node_id":"0.0-15.0","response":"2nd","certainty":"high","char":"L","transposition":-2,"order":["swapped","shifted"],"probe_pitches":[9,14,7,4,11,7,14,7,4,14,2,4,7,11,2,14],"shifted_pitches":[9,14,7,4,11,7,14,7,3,14,2,4,7,11,2,14],"swapped_pitches":[9,14,7,4,11,7,14,4,7,14,2,4,7,11,2,14],"shift_direction":-1,"question_num":1,"has_decoy":false,"subject":"S1C1670","sona":"41627","block":1,"time":"2021-09-27T01:47:51.957Z"},{"rt":2804.9000000059605,"stimulus":"[A] option 1, [L] option 2, [G] neither","key_press":76,"name":"choice","trial_type":"html-keyboard-response","trial_index":26,"time_elapsed":117775,"internal_node_id":"0.0-26.0","response":"2nd","certainty":"high","char":"L","transposition":2,"order":["shifted","swapped"],"probe_pitches":[3,1,0,-1,3,5,7,1,11,9,8,10,3,11,3,8],"shifted_pitches":[3,1,0,-1,3,5,7,2,11,9,8,10,3,11,3,8],"swapped_pitches":[3,1,0,-1,3,5,7,11,1,9,8,10,3,11,3,8],"shift_direction":1,"question_num":11,"has_decoy":false,"subject":"S1C1670","sona":"41627","block":1,"time":"2021-09-27T01:47:51.957Z"},{"rt":7238.5,"stimulus":"[A] option 1, [L] option 2, [G] neither","key_press":65,"name":"choice","trial_type":"html-keyboard-response","trial_index":37,"time_elapsed":151579,"internal_node_id":"0.0-37.0","response":"1st","certainty":"high","char":"A","transposition":0,"order":["swapped","shifted"],"probe_pitches":[6,4,0,6,5,7,3,7,9,11,1,-1,2,1,6,1],"shifted_pitches":[6,4,0,6,5,7,3,8,9,11,1,-1,2,1,6,1],"swapped_pitches":[6,4,0,6,5,7,3,9,7,11,1,-1,2,1,6,1],"shift_direction":1,"question_num":21,"has_decoy":false,"subject":"S1C1670","sona":"41627","block":1,"time":"2021-09-27T01:47:51.957Z"},{"rt":5340.600000008941,"stimulus":"[A] option 1, [L] option 2, [G] neither","key_press":71,"name":"choice","trial_type":"html-keyboard-response","trial_index":48,"time_elapsed":180893,"internal_node_id":"0.0-48.0","response":"neither","certainty":"high","char":"G","transposition":-1,"order":["swapped","shifted"],"probe_pitches":[5,8,2,1,2,8,-1,0,8,7,8,1,10,11,-1,10],"shifted_pitches":[5,8,2,1,2,8,-1,0,9,7,8,1,10,11,-1,10],"swapped_pitches":[5,8,2,1,2,8,-1,8,0,7,8,1,10,11,-1,10],"shift_direction":1,"question_num":31,"has_decoy":false,"subject":"S1C1670","sona":"41627","block":1,"time":"2021-09-27T01:47:51.957Z"},{"rt":1869.0999999940395,"stimulus":"[A] option 1, [L] option 2, [G] neither","key_press":71,"name":"choice","trial_type":"html-keyboard-response","trial_index":59,"time_elapsed":214206,"internal_node_id":"0.0-59.0","response":"neither","certainty":"high","char":"G","transposition":1,"order":["shifted","swapped"],"probe_pitches":[7,11,6,8,11,7,5,7,-1,6,1,0,8,0,2,8],"shifted_pitches":[7,11,6,8,11,7,5,7,-2,6,1,0,8,0,2,8],"swapped_pitches":[7,11,6,8,11,7,5,-1,7,6,1,0,8,0,2,8],"shift_direction":-1,"question_num":41,"has_decoy":false,"subject":"S1C1670","sona":"41627","block":1,"time":"2021-09-27T01:47:51.957Z"},{"rt":2444.7999999970198,"stimulus":"[A] option 1, [L] option 2, [G] neither","key_press":76,"name":"choice","trial_type":"html-keyboard-response","trial_index":70,"time_elapsed":253797,"internal_node_id":"0.0-70.0","response":"2nd","certainty":"high","char":"L","transposition":-3,"order":["shifted","swapped"],"probe_pitches":[1,2,3,6,3,4,11,4,8,6,8,3,0,11,9,10],"shifted_pitches":[1,2,3,6,3,4,11,4,7,6,8,3,0,11,9,10],"swapped_pitches":[1,2,3,6,3,4,11,8,4,6,8,3,0,11,9,10],"shift_direction":-1,"question_num":51,"has_decoy":false,"subject":"S1C1670","sona":"41627","block":1,"time":"2021-09-27T01:47:51.957Z"},{"rt":9291.90000000596,"stimulus":"[A] option 1, [L] option 2, [G] neither","key_press":71,"name":"choice","trial_type":"html-keyboard-response","trial_index":81,"time_elapsed":286878,"internal_node_id":"0.0-81.0","response":"neither","certainty":"high","char":"G","transposition":-1,"order":["swapped","shifted"],"probe_pitches":[9,14,9,14,7,2,12,9,2,12,7,14,2,9,7,4],"shifted_pitches":[9,14,9,14,7,2,12,10,2,12,7,14,2,9,7,4],"swapped_pitches":[9,14,9,14,7,2,12,2,9,12,7,14,2,9,7,4],"shift_direction":1,"question_num":61,"has_decoy":false,"subject":"S1C1670","sona":"41627","block":1,"time":"2021-09-27T01:47:51.957Z"},{"rt":6458.300000011921,"stimulus":"[A] option 1, [L] option 2, [G] neither","key_press":65,"name":"choice","trial_type":"html-keyboard-response","trial_index":92,"time_elapsed":317719,"internal_node_id":"0.0-92.0","response":"1st","certainty":"high","char":"A","transposition":-1,"order":["swapped","shifted"],"probe_pitches":[1,7,0,6,9,11,7,-1,6,0,1,8,6,4,11,3],"shifted_pitches":[1,7,0,6,9,11,7,-1,5,0,1,8,6,4,11,3],"swapped_pitches":[1,7,0,6,9,11,7,6,-1,0,1,8,6,4,11,3],"shift_direction":-1,"question_num":71,"has_decoy":false,"subject":"S1C1670","sona":"41627","block":1,"time":"2021-09-27T01:47:51.957Z"},{"rt":1471.699999988079,"stimulus":"[A] option 1, [L] option 2, [G] neither","key_press":76,"name":"choice","trial_type":"html-keyboard-response","trial_index":103,"time_elapsed":346498,"internal_node_id":"0.0-103.0","response":"2nd","certainty":"high","char":"L","transposition":-2,"order":["shifted","swapped"],"probe_pitches":[5,3,2,7,0,5,10,0,11,8,3,10,2,10,3,6],"shifted_pitches":[5,3,2,7,0,5,10,1,11,8,3,10,2,10,3,6],"swapped_pitches":[5,3,2,7,0,5,10,11,0,8,3,10,2,10,3,6],"shift_direction":1,"question_num":81,"has_decoy":false,"subject":"S1C1670","sona":"41627","block":1,"time":"2021-09-27T01:47:51.957Z"},{"rt":958.7999999970198,"stimulus":"[A] option 1, [L] option 2, [G] neither","key_press":76,"name":"choice","trial_type":"html-keyboard-response","trial_index":114,"time_elapsed":371090,"internal_node_id":"0.0-114.0","response":"2nd","certainty":"high","char":"L","transposition":-3,"order":["shifted","swapped"],"probe_pitches":[4,6,11,9,2,4,11,9,14,6,2,11,4,6,9,4],"shifted_pitches":[4,6,11,9,2,4,11,8,14,6,2,11,4,6,9,4],"swapped_pitches":[4,6,11,9,2,4,11,14,9,6,2,11,4,6,9,4],"shift_direction":-1,"question_num":91,"has_decoy":false,"subject":"S1C1670","sona":"41627","block":1,"time":"2021-09-27T01:47:51.957Z"},{"rt":2171,"stimulus":"[A] option 1, [L] option 2, [G] neither","key_press":76,"name":"choice","trial_type":"html-keyboard-response","trial_index":125,"time_elapsed":401124,"internal_node_id":"0.0-125.0","response":"2nd","certainty":"high","char":"L","transposition":2,"order":["shifted","swapped"],"probe_pitches":[12,10,14,7,2,12,14,2,5,7,10,7,2,10,7,12],"shifted_pitches":[12,10,14,7,2,12,14,2,6,7,10,7,2,10,7,12],"swapped_pitches":[12,10,14,7,2,12,14,5,2,7,10,7,2,10,7,12],"shift_direction":1,"question_num":101,"has_decoy":false,"subject":"S1C1670","sona":"41627","block":1,"time":"2021-09-27T01:47:51.957Z"},{"rt":2586.9000000059605,"stimulus":"[A] option 1, [L] option 2, [G] neither","key_press":65,"name":"choice","trial_type":"html-keyboard-response","trial_index":136,"time_elapsed":438799,"internal_node_id":"0.0-136.0","response":"1st","certainty":"high","char":"A","transposition":-2,"order":["swapped","shifted"],"probe_pitches":[1,2,3,10,5,9,5,3,6,9,2,5,3,9,8,7],"shifted_pitches":[1,2,3,10,5,9,5,4,6,9,2,5,3,9,8,7],"swapped_pitches":[1,2,3,10,5,9,5,6,3,9,2,5,3,9,8,7],"shift_direction":1,"question_num":111,"has_decoy":false,"subject":"S1C1670","sona":"41627","block":1,"time":"2021-09-27T01:47:51.957Z"},{"rt":1137.5,"stimulus":"[A] option 1, [L] option 2, [G] neither","key_press":76,"name":"choice","trial_type":"html-keyboard-response","trial_index":147,"time_elapsed":468793,"internal_node_id":"0.0-147.0","response":"2nd","certainty":"high","char":"L","transposition":1,"order":["swapped","shifted"],"probe_pitches":[4,9,14,9,11,4,2,14,9,4,11,6,9,2,11,4],"shifted_pitches":[4,9,14,9,11,4,2,14,10,4,11,6,9,2,11,4],"swapped_pitches":[4,9,14,9,11,4,2,9,14,4,11,6,9,2,11,4],"shift_direction":1,"question_num":121,"has_decoy":false,"subject":"S1C1670","sona":"41627","block":1,"time":"2021-09-27T01:47:51.957Z"},{"rt":3261.5999999940395,"stimulus":"[A] option 1, [L] option 2, [G] neither","key_press":65,"name":"choice","trial_type":"html-keyboard-response","trial_index":158,"time_elapsed":495448,"internal_node_id":"0.0-158.0","response":"1st","certainty":"high","char":"A","transposition":3,"order":["shifted","swapped"],"probe_pitches":[11,9,2,7,4,7,2,11,7,2,9,2,4,14,9,14],"shifted_pitches":[11,9,2,7,4,7,2,11,6,2,9,2,4,14,9,14],"swapped_pitches":[11,9,2,7,4,7,2,7,11,2,9,2,4,14,9,14],"shift_direction":-1,"question_num":131,"has_decoy":false,"subject":"S1C1670","sona":"41627","block":1,"time":"2021-09-27T01:47:51.957Z"},{"rt":817.7999999970198,"stimulus":"[A] option 1, [L] option 2, [G] neither","key_press":71,"name":"choice","trial_type":"html-keyboard-response","trial_index":169,"time_elapsed":521682,"internal_node_id":"0.0-169.0","response":"neither","certainty":"high","char":"G","transposition":3,"order":["shifted","swapped"],"probe_pitches":[-1,0,1,6,11,2,8,4,10,1,-1,10,5,2,1,8],"shifted_pitches":[-1,0,1,6,11,2,8,3,10,1,-1,10,5,2,1,8],"swapped_pitches":[-1,0,1,6,11,2,8,10,4,1,-1,10,5,2,1,8],"shift_direction":-1,"question_num":141,"has_decoy":false,"subject":"S1C1670","sona":"41627","block":1,"time":"2021-09-27T01:47:51.957Z"},{"rt":1841.0999999940395,"stimulus":"[A] option 1, [L] option 2, [G] neither","key_press":65,"name":"choice","trial_type":"html-keyboard-response","trial_index":180,"time_elapsed":546316,"internal_node_id":"0.0-180.0","response":"1st","certainty":"high","char":"A","transposition":0,"order":["shifted","swapped"],"probe_pitches":[2,7,5,7,14,12,14,2,5,14,10,12,14,5,14,2],"shifted_pitches":[2,7,5,7,14,12,14,2,6,14,10,12,14,5,14,2],"swapped_pitches":[2,7,5,7,14,12,14,5,2,14,10,12,14,5,14,2],"shift_direction":1,"question_num":151,"has_decoy":false,"subject":"S1C1670","sona":"41627","block":1,"time":"2021-09-27T01:47:51.957Z"},{"rt":4114,"stimulus":"[A] option 1, [L] option 2, [G] neither","key_press":76,"name":"choice","trial_type":"html-keyboard-response","trial_index":191,"time_elapsed":573555,"internal_node_id":"0.0-191.0","response":"2nd","certainty":"high","char":"L","transposition":-3,"order":["swapped","shifted"],"probe_pitches":[1,3,2,1,2,5,11,5,7,10,4,1,5,11,5,1],"shifted_pitches":[1,3,2,1,2,5,11,5,6,10,4,1,5,11,5,1],"swapped_pitches":[1,3,2,1,2,5,11,7,5,10,4,1,5,11,5,1],"shift_direction":-1,"question_num":161,"has_decoy":false,"subject":"S1C1670","sona":"41627","block":1,"time":"2021-09-27T01:47:51.957Z"},{"rt":1262.5,"stimulus":"[A] option 1, [L] option 2, [G] neither","key_press":76,"name":"choice","trial_type":"html-keyboard-response","trial_index":202,"time_elapsed":597760,"internal_node_id":"0.0-202.0","response":"2nd","certainty":"high","char":"L","transposition":-2,"order":["swapped","shifted"],"probe_pitches":[7,9,14,9,5,14,5,14,2,12,7,14,7,9,14,12],"shifted_pitches":[7,9,14,9,5,14,5,13,2,12,7,14,7,9,14,12],"swapped_pitches":[7,9,14,9,5,14,5,2,14,12,7,14,7,9,14,12],"shift_direction":-1,"question_num":171,"has_decoy":false,"subject":"S1C1670","sona":"41627","block":1,"time":"2021-09-27T01:47:51.957Z"},{"rt":1272.8999999910593,"stimulus":"[A] option 1, [L] option 2, [G] neither","key_press":76,"name":"choice","trial_type":"html-keyboard-response","trial_index":213,"time_elapsed":621888,"internal_node_id":"0.0-213.0","response":"2nd","certainty":"high","char":"L","transposition":-1,"order":["swapped","shifted"],"probe_pitches":[2,7,9,4,2,7,14,9,2,12,14,9,14,7,2,12],"shifted_pitches":[2,7,9,4,2,7,14,10,2,12,14,9,14,7,2,12],"swapped_pitches":[2,7,9,4,2,7,14,2,9,12,14,9,14,7,2,12],"shift_direction":1,"question_num":181,"has_decoy":false,"subject":"S1C1670","sona":"41627","block":1,"time":"2021-09-27T01:47:51.957Z"},{"rt":2025,"stimulus":"[A] option 1, [L] option 2, [G] neither","key_press":71,"name":"choice","trial_type":"html-keyboard-response","trial_index":224,"time_elapsed":646913,"internal_node_id":"0.0-224.0","response":"neither","certainty":"high","char":"G","transposition":-3,"order":["shifted","swapped"],"probe_pitches":[7,2,5,9,12,5,2,7,5,12,5,9,7,9,12,5],"shifted_pitches":[7,2,5,9,12,5,2,6,5,12,5,9,7,9,12,5],"swapped_pitches":[7,2,5,9,12,5,2,5,7,12,5,9,7,9,12,5],"shift_direction":-1,"question_num":191,"has_decoy":false,"subject":"S1C1670","sona":"41627","block":1,"time":"2021-09-27T01:47:51.957Z"}]