[{"rt":981.0999999940395,"stimulus":"[A] option 1, [L] option 2, [G] neither","key_press":76,"name":"choice","trial_type":"html-keyboard-response","trial_index":10,"time_elapsed":27751,"internal_node_id":"0.0-10.0","subject":"S1C1670","sona":"41627","block":2,"time":"2021-09-27T01:57:20.501Z","response":"2nd","certainty":"high","char":"L","transposition":0,"order":["swapped","shifted"],"probe_pitches":[10,6,8,6,3,6,-2,6,1,-2,6,1,10,6,8,6],"shifted_pitches":[10,6,8,6,3,6,-2,6,2,-2,6,1,10,6,8,6],"swapped_pitches":[10,6,8,6,3,6,-2,1,6,-2,6,1,10,6,8,6],"shift_direction":1,"question_num":1,"has_decoy":false},{"rt":1001.8999999910593,"stimulus":"[A] option 1, [L] option 2, [G] neither","key_press":76,"name":"choice","trial_type":"html-keyboard-response","trial_index":21,"time_elapsed":53970,"internal_node_id":"0.0-21.0","subject":"S1C1670","sona":"41627","block":2,"time":"2021-09-27T01:57:20.501Z","response":"2nd","certainty":"high","char":"L","transposition":-3,"order":["shifted","swapped"],"probe_pitches":[-2,4,1,0,6,4,-1,8,4,3,7,-1,10,3,10,7],"shifted_pitches":[-2,4,1,0,6,4,-1,9,4,3,7,-1,10,3,10,7],"swapped_pitches":[-2,4,1,0,6,4,-1,4,8,3,7,-1,10,3,10,7],"shift_direction":1,"question_num":11,"has_decoy":false},{"rt":4313.79999999702,"stimulus":"[A] option 1, [L] option 2, [G] neither","key_press":71,"name":"choice","trial_type":"html-keyboard-response","trial_index":32,"time_elapsed":82385,"internal_node_id":"0.0-32.0","subject":"S1C1670","sona":"41627","block":2,"time":"2021-09-27T01:57:20.501Z","response":"neither","certainty":"high","char":"G","transposition":2,"order":["swapped","shifted"],"probe_pitches":[0,2,5,0,9,2,0,7,9,3,10,5,3,10,7,9],"shifted_pitches":[0,2,5,0,9,2,0,7,8,3,10,5,3,10,7,9],"swapped_pitches":[0,2,5,0,9,2,0,9,7,3,10,5,3,10,7,9],"shift_direction":-1,"question_num":21,"has_decoy":false},{"rt":880.1000000089407,"stimulus":"[A] option 1, [L] option 2, [G] neither","key_press":76,"name":"choice","trial_type":"html-keyboard-response","trial_index":43,"time_elapsed":106830,"internal_node_id":"0.0-43.0","subject":"S1C1670","sona":"41627","block":2,"time":"2021-09-27T01:57:20.501Z","response":"2nd","certainty":"high","char":"L","transposition":-3,"order":["swapped","shifted"],"probe_pitches":[2,0,7,0,5,2,-2,2,0,5,7,2,0,-2,2,7],"shifted_pitches":[2,0,7,0,5,2,-2,1,0,5,7,2,0,-2,2,7],"swapped_pitches":[2,0,7,0,5,2,-2,0,2,5,7,2,0,-2,2,7],"shift_direction":-1,"question_num":31,"has_decoy":false},{"rt":4240.5999999940395,"stimulus":"[A] option 1, [L] option 2, [G] neither","key_press":76,"name":"choice","trial_type":"html-keyboard-response","trial_index":54,"time_elapsed":135380,"internal_node_id":"0.0-54.0","subject":"S1C1670","sona":"41627","block":2,"time":"2021-09-27T01:57:20.501Z","response":"2nd","certainty":"high","char":"L","transposition":-2,"order":["swapped","shifted"],"probe_pitches":[1,4,-1,7,4,6,4,10,1,9,8,1,-2,1,3,8],"shifted_pitches":[1,4,-1,7,4,6,4,10,0,9,8,1,-2,1,3,8],"swapped_pitches":[1,4,-1,7,4,6,4,1,10,9,8,1,-2,1,3,8],"shift_direction":-1,"question_num":41,"has_decoy":false},{"rt":2019.2000000029802,"stimulus":"[A] option 1, [L] option 2, [G] neither","key_press":65,"name":"choice","trial_type":"html-keyboard-response","trial_index":65,"time_elapsed":163438,"internal_node_id":"0.0-65.0","subject":"S1C1670","sona":"41627","block":2,"time":"2021-09-27T01:57:20.501Z","response":"1st","certainty":"high","char":"A","transposition":2,"order":["shifted","swapped"],"probe_pitches":[10,8,5,10,5,8,3,8,10,3,-2,5,-2,1,8,5],"shifted_pitches":[10,8,5,10,5,8,3,8,11,3,-2,5,-2,1,8,5],"swapped_pitches":[10,8,5,10,5,8,3,10,8,3,-2,5,-2,1,8,5],"shift_direction":1,"question_num":51,"has_decoy":false},{"rt":1026.4000000059605,"stimulus":"[A] option 1, [L] option 2, [G] neither","key_press":65,"name":"choice","trial_type":"html-keyboard-response","trial_index":76,"time_elapsed":187740,"internal_node_id":"0.0-76.0","subject":"S1C1670","sona":"41627","block":2,"time":"2021-09-27T01:57:20.501Z","response":"1st","certainty":"high","char":"A","transposition":-2,"order":["shifted","swapped"],"probe_pitches":[3,8,5,10,3,0,8,5,0,-2,3,8,-2,5,-2,0],"shifted_pitches":[3,8,5,10,3,0,8,4,0,-2,3,8,-2,5,-2,0],"swapped_pitches":[3,8,5,10,3,0,8,0,5,-2,3,8,-2,5,-2,0],"shift_direction":-1,"question_num":61,"has_decoy":false},{"rt":1502.5999999940395,"stimulus":"[A] option 1, [L] option 2, [G] neither","key_press":65,"name":"choice","trial_type":"html-keyboard-response","trial_index":87,"time_elapsed":212558,"internal_node_id":"0.0-87.0","subject":"S1C1670","sona":"41627","block":2,"time":"2021-09-27T01:57:20.501Z","response":"1st","certainty":"high","char":"A","transposition":1,"order":["shifted","swapped"],"probe_pitches":[10,7,10,7,5,3,10,-2,3,7,10,5,0,5,3,10],"shifted_pitches":[10,7,10,7,5,3,10,-2,2,7,10,5,0,5,3,10],"swapped_pitches":[10,7,10,7,5,3,10,3,-2,7,10,5,0,5,3,10],"shift_direction":-1,"question_num":71,"has_decoy":false},{"rt":823.2000000029802,"stimulus":"[A] option 1, [L] option 2, [G] neither","key_press":76,"name":"choice","trial_type":"html-keyboard-response","trial_index":98,"time_elapsed":236274,"internal_node_id":"0.0-98.0","subject":"S1C1670","sona":"41627","block":2,"time":"2021-09-27T01:57:20.501Z","response":"2nd","certainty":"high","char":"L","transposition":-1,"order":["shifted","swapped"],"probe_pitches":[1,5,7,4,-2,3,-1,5,-2,1,2,10,0,3,0,-2],"shifted_pitches":[1,5,7,4,-2,3,-1,6,-2,1,2,10,0,3,0,-2],"swapped_pitches":[1,5,7,4,-2,3,-1,-2,5,1,2,10,0,3,0,-2],"shift_direction":1,"question_num":81,"has_decoy":false},{"rt":2989.8999999910593,"stimulus":"[A] option 1, [L] option 2, [G] neither","key_press":71,"name":"choice","trial_type":"html-keyboard-response","trial_index":109,"time_elapsed":262078,"internal_node_id":"0.0-109.0","subject":"S1C1670","sona":"41627","block":2,"time":"2021-09-27T01:57:20.501Z","response":"neither","certainty":"high","char":"G","transposition":3,"order":["swapped","shifted"],"probe_pitches":[6,10,4,0,3,4,10,4,6,-2,2,10,-1,0,2,-1],"shifted_pitches":[6,10,4,0,3,4,10,4,5,-2,2,10,-1,0,2,-1],"swapped_pitches":[6,10,4,0,3,4,10,6,4,-2,2,10,-1,0,2,-1],"shift_direction":-1,"question_num":91,"has_decoy":false},{"rt":6876.300000011921,"stimulus":"[A] option 1, [L] option 2, [G] neither","key_press":71,"name":"choice","trial_type":"html-keyboard-response","trial_index":120,"time_elapsed":292098,"internal_node_id":"0.0-120.0","subject":"S1C1670","sona":"41627","block":2,"time":"2021-09-27T01:57:20.501Z","response":"neither","certainty":"high","char":"G","transposition":-1,"order":["shifted","swapped"],"probe_pitches":[4,9,5,0,5,4,6,2,1,7,8,5,4,7,9,1],"shifted_pitches":[4,9,5,0,5,4,6,3,1,7,8,5,4,7,9,1],"swapped_pitches":[4,9,5,0,5,4,6,1,2,7,8,5,4,7,9,1],"shift_direction":1,"question_num":101,"has_decoy":false},{"rt":1587,"stimulus":"[A] option 1, [L] option 2, [G] neither","key_press":65,"name":"choice","trial_type":"html-keyboard-response","trial_index":131,"time_elapsed":316202,"internal_node_id":"0.0-131.0","subject":"S1C1670","sona":"41627","block":2,"time":"2021-09-27T01:57:20.501Z","response":"1st","certainty":"high","char":"A","transposition":-2,"order":["swapped","shifted"],"probe_pitches":[-2,2,7,2,5,2,0,5,-2,2,5,2,0,10,0,10],"shifted_pitches":[-2,2,7,2,5,2,0,5,-1,2,5,2,0,10,0,10],"swapped_pitches":[-2,2,7,2,5,2,0,-2,5,2,5,2,0,10,0,10],"shift_direction":1,"question_num":111,"has_decoy":false},{"rt":2482.5,"stimulus":"[A] option 1, [L] option 2, [G] neither","key_press":71,"name":"choice","trial_type":"html-keyboard-response","trial_index":142,"time_elapsed":341658,"internal_node_id":"0.0-142.0","subject":"S1C1670","sona":"41627","block":2,"time":"2021-09-27T01:57:20.501Z","response":"neither","certainty":"high","char":"G","transposition":-3,"order":["shifted","swapped"],"probe_pitches":[2,5,-1,5,-2,6,7,3,2,8,2,0,-2,4,6,5],"shifted_pitches":[2,5,-1,5,-2,6,7,3,1,8,2,0,-2,4,6,5],"swapped_pitches":[2,5,-1,5,-2,6,7,2,3,8,2,0,-2,4,6,5],"shift_direction":-1,"question_num":121,"has_decoy":false},{"rt":968.5,"stimulus":"[A] option 1, [L] option 2, [G] neither","key_press":65,"name":"choice","trial_type":"html-keyboard-response","trial_index":153,"time_elapsed":365547,"internal_node_id":"0.0-153.0","subject":"S1C1670","sona":"41627","block":2,"time":"2021-09-27T01:57:20.501Z","response":"1st","certainty":"high","char":"A","transposition":3,"order":["shifted","swapped"],"probe_pitches":[3,5,1,-2,5,8,3,10,5,1,10,3,5,8,5,10],"shifted_pitches":[3,5,1,-2,5,8,3,11,5,1,10,3,5,8,5,10],"swapped_pitches":[3,5,1,-2,5,8,3,5,10,1,10,3,5,8,5,10],"shift_direction":1,"question_num":131,"has_decoy":false},{"rt":1975.5999999940395,"stimulus":"[A] option 1, [L] option 2, [G] neither","key_press":71,"name":"choice","trial_type":"html-keyboard-response","trial_index":164,"time_elapsed":390602,"internal_node_id":"0.0-164.0","subject":"S1C1670","sona":"41627","block":2,"time":"2021-09-27T01:57:20.501Z","response":"neither","certainty":"high","char":"G","transposition":-3,"order":["shifted","swapped"],"probe_pitches":[10,8,1,6,1,6,8,-2,3,10,6,-2,6,3,10,6],"shifted_pitches":[10,8,1,6,1,6,8,-1,3,10,6,-2,6,3,10,6],"swapped_pitches":[10,8,1,6,1,6,8,3,-2,10,6,-2,6,3,10,6],"shift_direction":1,"question_num":141,"has_decoy":false},{"rt":1513.8999999910593,"stimulus":"[A] option 1, [L] option 2, [G] neither","key_press":76,"name":"choice","trial_type":"html-keyboard-response","trial_index":175,"time_elapsed":415101,"internal_node_id":"0.0-175.0","subject":"S1C1670","sona":"41627","block":2,"time":"2021-09-27T01:57:20.501Z","response":"2nd","certainty":"high","char":"L","transposition":0,"order":["swapped","shifted"],"probe_pitches":[-1,5,8,9,6,1,2,5,3,0,9,0,1,-1,8,0],"shifted_pitches":[-1,5,8,9,6,1,2,5,4,0,9,0,1,-1,8,0],"swapped_pitches":[-1,5,8,9,6,1,2,3,5,0,9,0,1,-1,8,0],"shift_direction":1,"question_num":151,"has_decoy":false},{"rt":3718.7999999970198,"stimulus":"[A] option 1, [L] option 2, [G] neither","key_press":65,"name":"choice","trial_type":"html-keyboard-response","trial_index":186,"time_elapsed":441813,"internal_node_id":"0.0-186.0","subject":"S1C1670","sona":"41627","block":2,"time":"2021-09-27T01:57:20.501Z","response":"1st","certainty":"high","char":"A","transposition":-1,"order":["swapped","shifted"],"probe_pitches":[5,10,8,3,0,3,5,-2,10,0,5,8,10,0,5,10],"shifted_pitches":[5,10,8,3,0,3,5,-3,10,0,5,8,10,0,5,10],"swapped_pitches":[5,10,8,3,0,3,5,10,-2,0,5,8,10,0,5,10],"shift_direction":-1,"question_num":161,"has_decoy":false},{"rt":883,"stimulus":"[A] option 1, [L] option 2, [G] neither","key_press":76,"name":"choice","trial_type":"html-keyboard-response","trial_index":197,"time_elapsed":465607,"internal_node_id":"0.0-197.0","subject":"S1C1670","sona":"41627","block":2,"time":"2021-09-27T01:57:20.501Z","response":"2nd","certainty":"high","char":"L","transposition":-1,"order":["swapped","shifted"],"probe_pitches":[7,3,7,10,7,-2,7,10,5,7,3,0,3,0,5,7],"shifted_pitches":[7,3,7,10,7,-2,7,10,4,7,3,0,3,0,5,7],"swapped_pitches":[7,3,7,10,7,-2,7,5,10,7,3,0,3,0,5,7],"shift_direction":-1,"question_num":171,"has_decoy":false},{"rt":1085.2999999970198,"stimulus":"[A] option 1, [L] option 2, [G] neither","key_press":76,"name":"choice","trial_type":"html-keyboard-response","trial_index":208,"time_elapsed":489719,"internal_node_id":"0.0-208.0","subject":"S1C1670","sona":"41627","block":2,"time":"2021-09-27T01:57:20.501Z","response":"2nd","certainty":"high","char":"L","transposition":-2,"order":["swapped","shifted"],"probe_pitches":[4,5,7,6,8,1,9,3,1,8,9,6,4,6,-1,9],"shifted_pitches":[4,5,7,6,8,1,9,2,1,8,9,6,4,6,-1,9],"swapped_pitches":[4,5,7,6,8,1,9,1,3,8,9,6,4,6,-1,9],"shift_direction":-1,"question_num":181,"has_decoy":false},{"rt":1861.5999999940395,"stimulus":"[A] option 1, [L] option 2, [G] neither","key_press":76,"name":"choice","trial_type":"html-keyboard-response","trial_index":219,"time_elapsed":514192,"internal_node_id":"0.0-219.0","subject":"S1C1670","sona":"41627","block":2,"time":"2021-09-27T01:57:20.501Z","response":"2nd","certainty":"high","char":"L","transposition":1,"order":["shifted","swapped"],"probe_pitches":[9,5,8,6,0,5,10,6,5,10,1,3,1,0,6,9],"shifted_pitches":[9,5,8,6,0,5,10,7,5,10,1,3,1,0,6,9],"swapped_pitches":[9,5,8,6,0,5,10,5,6,10,1,3,1,0,6,9],"shift_direction":1,"question_num":191,"has_decoy":false}]