[{"rt":3679.0999999940395,"stimulus":"[A] option 1, [L] option 2, [G] neither","key_press":65,"name":"choice","trial_type":"html-keyboard-response","trial_index":10,"time_elapsed":28172,"internal_node_id":"0.0-10.0","subject":"S1C1670","sona":"41627","block":3,"time":"2021-09-27T02:08:09.667Z","response":"1st","certainty":"high","char":"A","transposition":-3,"order":["shifted","swapped"],"probe_pitches":[1,7,2,7,1,8,11,7,2,5,3,7,1,8,9,4],"shifted_pitches":[1,7,2,7,1,8,11,6,2,5,3,7,1,8,9,4],"swapped_pitches":[1,7,2,7,1,8,11,2,7,5,3,7,1,8,9,4],"shift_direction":-1,"question_num":1,"has_decoy":false},{"rt":3413.7999999970198,"stimulus":"[A] option 1, [L] option 2, [G] neither","key_press":71,"name":"choice","trial_type":"html-keyboard-response","trial_index":21,"time_elapsed":54435,"internal_node_id":"0.0-21.0","subject":"S1C1670","sona":"41627","block":3,"time":"2021-09-27T02:08:09.667Z","response":"neither","certainty":"high","char":"G","transposition":-3,"order":["swapped","shifted"],"probe_pitches":[4,9,11,4,9,2,9,2,-1,9,2,9,-1,6,2,11],"shifted_pitches":[4,9,11,4,9,2,9,2,-2,9,2,9,-1,6,2,11],"swapped_pitches":[4,9,11,4,9,2,9,-1,2,9,2,9,-1,6,2,11],"shift_direction":-1,"question_num":11,"has_decoy":false},{"rt":3058.7000000029802,"stimulus":"[A] option 1, [L] option 2, [G] neither","key_press":76,"name":"choice","trial_type":"html-keyboard-response","trial_index":32,"time_elapsed":80198,"internal_node_id":"0.0-32.0","subject":"S1C1670","sona":"41627","block":3,"time":"2021-09-27T02:08:09.667Z","response":"2nd","certainty":"high","char":"L","transposition":-2,"order":["swapped","shifted"],"probe_pitches":[12,6,8,0,8,4,8,4,2,5,10,7,12,2,0,8],"shifted_pitches":[12,6,8,0,8,4,8,3,2,5,10,7,12,2,0,8],"swapped_pitches":[12,6,8,0,8,4,8,2,4,5,10,7,12,2,0,8],"shift_direction":-1,"question_num":21,"has_decoy":false},{"rt":6231.399999991059,"stimulus":"[A] option 1, [L] option 2, [G] neither","key_press":71,"name":"choice","trial_type":"html-keyboard-response","trial_index":43,"time_elapsed":111345,"internal_node_id":"0.0-43.0","subject":"S1C1670","sona":"41627","block":3,"time":"2021-09-27T02:08:09.667Z","response":"neither","certainty":"high","char":"G","transposition":-2,"order":["shifted","swapped"],"probe_pitches":[9,6,4,6,1,-1,1,4,11,9,1,-1,11,-1,11,9],"shifted_pitches":[9,6,4,6,1,-1,1,4,12,9,1,-1,11,-1,11,9],"swapped_pitches":[9,6,4,6,1,-1,1,11,4,9,1,-1,11,-1,11,9],"shift_direction":1,"question_num":31,"has_decoy":false},{"rt":1513.7999999970198,"stimulus":"[A] option 1, [L] option 2, [G] neither","key_press":76,"name":"choice","trial_type":"html-keyboard-response","trial_index":54,"time_elapsed":139545,"internal_node_id":"0.0-54.0","subject":"S1C1670","sona":"41627","block":3,"time":"2021-09-27T02:08:09.667Z","response":"2nd","certainty":"high","char":"L","transposition":2,"order":["shifted","swapped"],"probe_pitches":[1,0,3,7,12,9,4,9,11,1,8,4,3,4,12,0],"shifted_pitches":[1,0,3,7,12,9,4,10,11,1,8,4,3,4,12,0],"swapped_pitches":[1,0,3,7,12,9,4,11,9,1,8,4,3,4,12,0],"shift_direction":1,"question_num":41,"has_decoy":false},{"rt":892.7000000029802,"stimulus":"[A] option 1, [L] option 2, [G] neither","key_press":76,"name":"choice","trial_type":"html-keyboard-response","trial_index":65,"time_elapsed":163532,"internal_node_id":"0.0-65.0","subject":"S1C1670","sona":"41627","block":3,"time":"2021-09-27T02:08:09.667Z","response":"2nd","certainty":"high","char":"L","transposition":-1,"order":["swapped","shifted"],"probe_pitches":[8,6,9,1,10,0,3,6,10,12,7,12,9,8,10,11],"shifted_pitches":[8,6,9,1,10,0,3,5,10,12,7,12,9,8,10,11],"swapped_pitches":[8,6,9,1,10,0,3,10,6,12,7,12,9,8,10,11],"shift_direction":-1,"question_num":51,"has_decoy":false},{"rt":5945.79999999702,"stimulus":"[A] option 1, [L] option 2, [G] neither","key_press":65,"name":"choice","trial_type":"html-keyboard-response","trial_index":76,"time_elapsed":192628,"internal_node_id":"0.0-76.0","subject":"S1C1670","sona":"41627","block":3,"time":"2021-09-27T02:08:09.667Z","response":"1st","certainty":"high","char":"A","transposition":3,"order":["swapped","shifted"],"probe_pitches":[7,6,5,7,8,3,2,3,10,1,9,3,1,9,12,2],"shifted_pitches":[7,6,5,7,8,3,2,4,10,1,9,3,1,9,12,2],"swapped_pitches":[7,6,5,7,8,3,2,10,3,1,9,3,1,9,12,2],"shift_direction":1,"question_num":61,"has_decoy":false},{"rt":3272.6000000089407,"stimulus":"[A] option 1, [L] option 2, [G] neither","key_press":65,"name":"choice","trial_type":"html-keyboard-response","trial_index":87,"time_elapsed":218489,"internal_node_id":"0.0-87.0","subject":"S1C1670","sona":"41627","block":3,"time":"2021-09-27T02:08:09.667Z","response":"1st","certainty":"high","char":"A","transposition":1,"order":["shifted","swapped"],"probe_pitches":[11,6,-1,1,3,-1,6,-1,11,3,1,11,1,6,8,6],"shifted_pitches":[11,6,-1,1,3,-1,6,-2,11,3,1,11,1,6,8,6],"swapped_pitches":[11,6,-1,1,3,-1,6,11,-1,3,1,11,1,6,8,6],"shift_direction":-1,"question_num":71,"has_decoy":false},{"rt":2997,"stimulus":"[A] option 1, [L] option 2, [G] neither","key_press":76,"name":"choice","trial_type":"html-keyboard-response","trial_index":98,"time_elapsed":245387,"internal_node_id":"0.0-98.0","subject":"S1C1670","sona":"41627","block":3,"time":"2021-09-27T02:08:09.667Z","response":"2nd","certainty":"high","char":"L","transposition":0,"order":["swapped","shifted"],"probe_pitches":[4,6,4,6,8,4,6,-1,4,1,-1,4,-1,1,8,1],"shifted_pitches":[4,6,4,6,8,4,6,0,4,1,-1,4,-1,1,8,1],"swapped_pitches":[4,6,4,6,8,4,6,4,-1,1,-1,4,-1,1,8,1],"shift_direction":1,"question_num":81,"has_decoy":false},{"rt":7529.0999999940395,"stimulus":"[A] option 1, [L] option 2, [G] neither","key_press":76,"name":"choice","trial_type":"html-keyboard-response","trial_index":109,"time_elapsed":276138,"internal_node_id":"0.0-109.0","subject":"S1C1670","sona":"41627","block":3,"time":"2021-09-27T02:08:09.667Z","response":"2nd","certainty":"high","char":"L","transposition":-1,"order":["shifted","swapped"],"probe_pitches":[4,7,11,4,9,2,7,9,11,4,7,4,9,11,-1,2],"shifted_pitches":[4,7,11,4,9,2,7,9,10,4,7,4,9,11,-1,2],"swapped_pitches":[4,7,11,4,9,2,7,11,9,4,7,4,9,11,-1,2],"shift_direction":-1,"question_num":91,"has_decoy":false},{"rt":5500.699999988079,"stimulus":"[A] option 1, [L] option 2, [G] neither","key_press":65,"name":"choice","trial_type":"html-keyboard-response","trial_index":120,"time_elapsed":304687,"internal_node_id":"0.0-120.0","subject":"S1C1670","sona":"41627","block":3,"time":"2021-09-27T02:08:09.667Z","response":"1st","certainty":"high","char":"A","transposition":1,"order":["shifted","swapped"],"probe_pitches":[3,6,10,3,1,10,9,7,12,10,9,5,4,0,6,7],"shifted_pitches":[3,6,10,3,1,10,9,7,11,10,9,5,4,0,6,7],"swapped_pitches":[3,6,10,3,1,10,9,12,7,10,9,5,4,0,6,7],"shift_direction":-1,"question_num":101,"has_decoy":false},{"rt":1607.6000000089407,"stimulus":"[A] option 1, [L] option 2, [G] neither","key_press":76,"name":"choice","trial_type":"html-keyboard-response","trial_index":131,"time_elapsed":330757,"internal_node_id":"0.0-131.0","subject":"S1C1670","sona":"41627","block":3,"time":"2021-09-27T02:08:09.667Z","response":"2nd","certainty":"high","char":"L","transposition":-1,"order":["shifted","swapped"],"probe_pitches":[1,2,4,3,1,7,4,9,7,1,10,4,10,11,5,4],"shifted_pitches":[1,2,4,3,1,7,4,9,8,1,10,4,10,11,5,4],"swapped_pitches":[1,2,4,3,1,7,4,7,9,1,10,4,10,11,5,4],"shift_direction":1,"question_num":111,"has_decoy":false},{"rt":7060.29999999702,"stimulus":"[A] option 1, [L] option 2, [G] neither","key_press":65,"name":"choice","trial_type":"html-keyboard-response","trial_index":142,"time_elapsed":360749,"internal_node_id":"0.0-142.0","subject":"S1C1670","sona":"41627","block":3,"time":"2021-09-27T02:08:09.667Z","response":"1st","certainty":"high","char":"A","transposition":2,"order":["swapped","shifted"],"probe_pitches":[-1,2,9,2,9,11,4,11,9,2,-1,4,7,9,7,-1],"shifted_pitches":[-1,2,9,2,9,11,4,11,10,2,-1,4,7,9,7,-1],"swapped_pitches":[-1,2,9,2,9,11,4,9,11,2,-1,4,7,9,7,-1],"shift_direction":1,"question_num":121,"has_decoy":false},{"rt":2103.1000000089407,"stimulus":"[A] option 1, [L] option 2, [G] neither","key_press":76,"name":"choice","trial_type":"html-keyboard-response","trial_index":153,"time_elapsed":385296,"internal_node_id":"0.0-153.0","subject":"S1C1670","sona":"41627","block":3,"time":"2021-09-27T02:08:09.667Z","response":"2nd","certainty":"high","char":"L","transposition":-2,"order":["shifted","swapped"],"probe_pitches":[4,3,7,11,9,10,3,5,1,8,10,7,11,4,10,4],"shifted_pitches":[4,3,7,11,9,10,3,5,2,8,10,7,11,4,10,4],"swapped_pitches":[4,3,7,11,9,10,3,1,5,8,10,7,11,4,10,4],"shift_direction":1,"question_num":131,"has_decoy":false},{"rt":9167.79999999702,"stimulus":"[A] option 1, [L] option 2, [G] neither","key_press":76,"name":"choice","trial_type":"html-keyboard-response","trial_index":164,"time_elapsed":417300,"internal_node_id":"0.0-164.0","subject":"S1C1670","sona":"41627","block":3,"time":"2021-09-27T02:08:09.667Z","response":"2nd","certainty":"high","char":"L","transposition":0,"order":["swapped","shifted"],"probe_pitches":[10,12,8,0,9,3,6,3,8,6,3,8,3,2,3,9],"shifted_pitches":[10,12,8,0,9,3,6,3,7,6,3,8,3,2,3,9],"swapped_pitches":[10,12,8,0,9,3,6,8,3,6,3,8,3,2,3,9],"shift_direction":-1,"question_num":141,"has_decoy":false},{"rt":2988.2000000029802,"stimulus":"[A] option 1, [L] option 2, [G] neither","key_press":76,"name":"choice","trial_type":"html-keyboard-response","trial_index":175,"time_elapsed":442715,"internal_node_id":"0.0-175.0","subject":"S1C1670","sona":"41627","block":3,"time":"2021-09-27T02:08:09.667Z","response":"2nd","certainty":"high","char":"L","transposition":-1,"order":["swapped","shifted"],"probe_pitches":[9,6,4,6,9,-1,4,11,9,2,11,9,4,11,4,11],"shifted_pitches":[9,6,4,6,9,-1,4,12,9,2,11,9,4,11,4,11],"swapped_pitches":[9,6,4,6,9,-1,4,9,11,2,11,9,4,11,4,11],"shift_direction":1,"question_num":151,"has_decoy":false},{"rt":863.0999999940395,"stimulus":"[A] option 1, [L] option 2, [G] neither","key_press":76,"name":"choice","trial_type":"html-keyboard-response","trial_index":186,"time_elapsed":471796,"internal_node_id":"0.0-186.0","subject":"S1C1670","sona":"41627","block":3,"time":"2021-09-27T02:08:09.667Z","response":"2nd","certainty":"high","char":"L","transposition":-2,"order":["swapped","shifted"],"probe_pitches":[-1,1,8,1,6,1,3,8,1,6,1,6,1,11,-1,6],"shifted_pitches":[-1,1,8,1,6,1,3,8,2,6,1,6,1,11,-1,6],"swapped_pitches":[-1,1,8,1,6,1,3,1,8,6,1,6,1,11,-1,6],"shift_direction":1,"question_num":161,"has_decoy":false},{"rt":1154,"stimulus":"[A] option 1, [L] option 2, [G] neither","key_press":65,"name":"choice","trial_type":"html-keyboard-response","trial_index":197,"time_elapsed":496285,"internal_node_id":"0.0-197.0","subject":"S1C1670","sona":"41627","block":3,"time":"2021-09-27T02:08:09.667Z","response":"1st","certainty":"high","char":"A","transposition":-3,"order":["swapped","shifted"],"probe_pitches":[3,8,4,3,4,6,4,12,8,0,7,8,5,6,5,4],"shifted_pitches":[3,8,4,3,4,6,4,12,9,0,7,8,5,6,5,4],"swapped_pitches":[3,8,4,3,4,6,4,8,12,0,7,8,5,6,5,4],"shift_direction":1,"question_num":171,"has_decoy":false},{"rt":1146,"stimulus":"[A] option 1, [L] option 2, [G] neither","key_press":76,"name":"choice","trial_type":"html-keyboard-response","trial_index":208,"time_elapsed":520704,"internal_node_id":"0.0-208.0","subject":"S1C1670","sona":"41627","block":3,"time":"2021-09-27T02:08:09.667Z","response":"2nd","certainty":"high","char":"L","transposition":3,"order":["shifted","swapped"],"probe_pitches":[1,4,-1,1,6,1,6,1,4,9,-1,11,1,6,11,-1],"shifted_pitches":[1,4,-1,1,6,1,6,0,4,9,-1,11,1,6,11,-1],"swapped_pitches":[1,4,-1,1,6,1,6,4,1,9,-1,11,1,6,11,-1],"shift_direction":-1,"question_num":181,"has_decoy":false},{"rt":9394.60000000894,"stimulus":"[A] option 1, [L] option 2, [G] neither","key_press":71,"name":"choice","trial_type":"html-keyboard-response","trial_index":219,"time_elapsed":553332,"internal_node_id":"0.0-219.0","subject":"S1C1670","sona":"41627","block":3,"time":"2021-09-27T02:08:09.667Z","response":"neither","certainty":"high","char":"G","transposition":-3,"order":["shifted","swapped"],"probe_pitches":[1,6,1,8,1,-1,4,6,-1,1,4,11,-1,6,4,8],"shifted_pitches":[1,6,1,8,1,-1,4,5,-1,1,4,11,-1,6,4,8],"swapped_pitches":[1,6,1,8,1,-1,4,-1,6,1,4,11,-1,6,4,8],"shift_direction":-1,"question_num":191,"has_decoy":false}]