[{"rt":5016.5999999996275,"stimulus":"[A] option 1, [L] option 2, [G] neither","key_press":65,"name":"choice","trial_type":"html-keyboard-response","trial_index":10,"time_elapsed":34938,"internal_node_id":"0.0-10.0","subject":"S1C1205","sona":"40727","block":6,"time":"2021-09-06T20:56:03.573Z","response":"1st","certainty":"high","char":"A","transposition":3,"order":["swapped","shifted"],"probe_pitches":[7,1,7,8,5,8,1,7,6,4,2,0],"shifted_pitches":[7,1,7,8,5,9,1,7,6,4,2,0],"swapped_pitches":[7,1,7,8,5,1,8,7,6,4,2,0],"shift_direction":1,"question_num":1,"has_decoy":false},{"rt":2744.2000000001863,"stimulus":"[A] option 1, [L] option 2, [G] neither","key_press":71,"name":"choice","trial_type":"html-keyboard-response","trial_index":21,"time_elapsed":56420,"internal_node_id":"0.0-21.0","subject":"S1C1205","sona":"40727","block":6,"time":"2021-09-06T20:56:03.573Z","response":"neither","certainty":"high","char":"G","transposition":1,"order":["shifted","swapped"],"probe_pitches":[10,6,8,6,-2,6,1,10,3,8,6,10],"shifted_pitches":[10,6,8,6,-2,6,2,10,3,8,6,10],"swapped_pitches":[10,6,8,6,-2,1,6,10,3,8,6,10],"shift_direction":1,"question_num":11,"has_decoy":false},{"rt":1527.5,"stimulus":"[A] option 1, [L] option 2, [G] neither","key_press":76,"name":"choice","trial_type":"html-keyboard-response","trial_index":32,"time_elapsed":76740,"internal_node_id":"0.0-32.0","subject":"S1C1205","sona":"40727","block":6,"time":"2021-09-06T20:56:03.573Z","response":"2nd","certainty":"high","char":"L","transposition":-1,"order":["swapped","shifted"],"probe_pitches":[0,2,7,0,5,2,10,5,-2,5,-2,2],"shifted_pitches":[0,2,7,0,5,2,11,5,-2,5,-2,2],"swapped_pitches":[0,2,7,0,5,10,2,5,-2,5,-2,2],"shift_direction":1,"question_num":21,"has_decoy":false},{"rt":3389.0999999996275,"stimulus":"[A] option 1, [L] option 2, [G] neither","key_press":71,"name":"choice","trial_type":"html-keyboard-response","trial_index":43,"time_elapsed":99518,"internal_node_id":"0.0-43.0","subject":"S1C1205","sona":"40727","block":6,"time":"2021-09-06T20:56:03.573Z","response":"neither","certainty":"high","char":"G","transposition":-3,"order":["shifted","swapped"],"probe_pitches":[3,8,9,11,5,8,10,2,-1,9,3,0],"shifted_pitches":[3,8,9,11,5,7,10,2,-1,9,3,0],"swapped_pitches":[3,8,9,11,5,10,8,2,-1,9,3,0],"shift_direction":-1,"question_num":31,"has_decoy":false},{"rt":3309.0999999996275,"stimulus":"[A] option 1, [L] option 2, [G] neither","key_press":65,"name":"choice","trial_type":"html-keyboard-response","trial_index":54,"time_elapsed":121460,"internal_node_id":"0.0-54.0","subject":"S1C1205","sona":"40727","block":6,"time":"2021-09-06T20:56:03.573Z","response":"1st","certainty":"high","char":"A","transposition":-2,"order":["shifted","swapped"],"probe_pitches":[3,8,10,5,1,8,10,3,1,3,5,1],"shifted_pitches":[3,8,10,5,1,8,9,3,1,3,5,1],"swapped_pitches":[3,8,10,5,1,10,8,3,1,3,5,1],"shift_direction":-1,"question_num":41,"has_decoy":false},{"rt":1031.7999999998137,"stimulus":"[A] option 1, [L] option 2, [G] neither","key_press":65,"name":"choice","trial_type":"html-keyboard-response","trial_index":65,"time_elapsed":142463,"internal_node_id":"0.0-65.0","subject":"S1C1205","sona":"40727","block":6,"time":"2021-09-06T20:56:03.573Z","response":"1st","certainty":"high","char":"A","transposition":-2,"order":["swapped","shifted"],"probe_pitches":[9,5,1,4,5,0,9,3,9,11,7,11],"shifted_pitches":[9,5,1,4,5,0,8,3,9,11,7,11],"swapped_pitches":[9,5,1,4,5,9,0,3,9,11,7,11],"shift_direction":-1,"question_num":51,"has_decoy":false},{"rt":1539.0999999996275,"stimulus":"[A] option 1, [L] option 2, [G] neither","key_press":71,"name":"choice","trial_type":"html-keyboard-response","trial_index":76,"time_elapsed":162106,"internal_node_id":"0.0-76.0","subject":"S1C1205","sona":"40727","block":6,"time":"2021-09-06T20:56:03.573Z","response":"neither","certainty":"high","char":"G","transposition":-1,"order":["shifted","swapped"],"probe_pitches":[-2,3,10,3,0,7,3,5,10,0,-2,5],"shifted_pitches":[-2,3,10,3,0,6,3,5,10,0,-2,5],"swapped_pitches":[-2,3,10,3,0,3,7,5,10,0,-2,5],"shift_direction":-1,"question_num":61,"has_decoy":false},{"rt":2074.9000000003725,"stimulus":"[A] option 1, [L] option 2, [G] neither","key_press":76,"name":"choice","trial_type":"html-keyboard-response","trial_index":87,"time_elapsed":182813,"internal_node_id":"0.0-87.0","subject":"S1C1205","sona":"40727","block":6,"time":"2021-09-06T20:56:03.573Z","response":"2nd","certainty":"high","char":"L","transposition":3,"order":["swapped","shifted"],"probe_pitches":[0,-2,3,7,0,7,5,10,0,10,3,-2],"shifted_pitches":[0,-2,3,7,0,6,5,10,0,10,3,-2],"swapped_pitches":[0,-2,3,7,0,5,7,10,0,10,3,-2],"shift_direction":-1,"question_num":71,"has_decoy":false},{"rt":1960.5999999996275,"stimulus":"[A] option 1, [L] option 2, [G] neither","key_press":65,"name":"choice","trial_type":"html-keyboard-response","trial_index":98,"time_elapsed":203205,"internal_node_id":"0.0-98.0","subject":"S1C1205","sona":"40727","block":6,"time":"2021-09-06T20:56:03.573Z","response":"1st","certainty":"high","char":"A","transposition":-3,"order":["swapped","shifted"],"probe_pitches":[10,5,-2,0,2,-2,5,7,-2,2,-2,10],"shifted_pitches":[10,5,-2,0,2,-2,4,7,-2,2,-2,10],"swapped_pitches":[10,5,-2,0,2,5,-2,7,-2,2,-2,10],"shift_direction":-1,"question_num":81,"has_decoy":false},{"rt":1342.0999999996275,"stimulus":"[A] option 1, [L] option 2, [G] neither","key_press":76,"name":"choice","trial_type":"html-keyboard-response","trial_index":109,"time_elapsed":222917,"internal_node_id":"0.0-109.0","subject":"S1C1205","sona":"40727","block":6,"time":"2021-09-06T20:56:03.573Z","response":"2nd","certainty":"high","char":"L","transposition":0,"order":["shifted","swapped"],"probe_pitches":[0,-1,6,8,2,10,4,8,3,2,8,6],"shifted_pitches":[0,-1,6,8,2,10,5,8,3,2,8,6],"swapped_pitches":[0,-1,6,8,2,4,10,8,3,2,8,6],"shift_direction":1,"question_num":91,"has_decoy":false},{"rt":4671,"stimulus":"[A] option 1, [L] option 2, [G] neither","key_press":65,"name":"choice","trial_type":"html-keyboard-response","trial_index":120,"time_elapsed":246049,"internal_node_id":"0.0-120.0","subject":"S1C1205","sona":"40727","block":6,"time":"2021-09-06T20:56:03.573Z","response":"1st","certainty":"high","char":"A","transposition":1,"order":["shifted","swapped"],"probe_pitches":[0,1,8,10,8,4,6,5,10,9,7,4],"shifted_pitches":[0,1,8,10,8,3,6,5,10,9,7,4],"swapped_pitches":[0,1,8,10,8,6,4,5,10,9,7,4],"shift_direction":-1,"question_num":101,"has_decoy":false},{"rt":563.8999999994412,"stimulus":"[A] option 1, [L] option 2, [G] neither","key_press":76,"name":"choice","trial_type":"html-keyboard-response","trial_index":131,"time_elapsed":265105,"internal_node_id":"0.0-131.0","subject":"S1C1205","sona":"40727","block":6,"time":"2021-09-06T20:56:03.573Z","response":"2nd","certainty":"high","char":"L","transposition":2,"order":["swapped","shifted"],"probe_pitches":[7,3,-1,0,8,10,0,8,11,3,9,4],"shifted_pitches":[7,3,-1,0,8,10,1,8,11,3,9,4],"swapped_pitches":[7,3,-1,0,8,0,10,8,11,3,9,4],"shift_direction":1,"question_num":111,"has_decoy":false},{"rt":2937.2000000001863,"stimulus":"[A] option 1, [L] option 2, [G] neither","key_press":65,"name":"choice","trial_type":"html-keyboard-response","trial_index":142,"time_elapsed":286459,"internal_node_id":"0.0-142.0","subject":"S1C1205","sona":"40727","block":6,"time":"2021-09-06T20:56:03.573Z","response":"1st","certainty":"high","char":"A","transposition":-1,"order":["swapped","shifted"],"probe_pitches":[8,9,5,1,2,-1,9,2,-1,3,0,5],"shifted_pitches":[8,9,5,1,2,-2,9,2,-1,3,0,5],"swapped_pitches":[8,9,5,1,2,9,-1,2,-1,3,0,5],"shift_direction":-1,"question_num":121,"has_decoy":false},{"rt":3045.2000000001863,"stimulus":"[A] option 1, [L] option 2, [G] neither","key_press":76,"name":"choice","trial_type":"html-keyboard-response","trial_index":153,"time_elapsed":307896,"internal_node_id":"0.0-153.0","subject":"S1C1205","sona":"40727","block":6,"time":"2021-09-06T20:56:03.573Z","response":"2nd","certainty":"high","char":"L","transposition":2,"order":["shifted","swapped"],"probe_pitches":[1,5,1,3,5,-2,3,1,3,8,-2,10],"shifted_pitches":[1,5,1,3,5,-1,3,1,3,8,-2,10],"swapped_pitches":[1,5,1,3,5,3,-2,1,3,8,-2,10],"shift_direction":1,"question_num":131,"has_decoy":false},{"rt":1378.9000000003725,"stimulus":"[A] option 1, [L] option 2, [G] neither","key_press":71,"name":"choice","trial_type":"html-keyboard-response","trial_index":164,"time_elapsed":332288,"internal_node_id":"0.0-164.0","subject":"S1C1205","sona":"40727","block":6,"time":"2021-09-06T20:56:03.573Z","response":"neither","certainty":"high","char":"G","transposition":-2,"order":["shifted","swapped"],"probe_pitches":[1,3,7,5,4,-1,5,8,3,-1,11,3],"shifted_pitches":[1,3,7,5,4,-1,6,8,3,-1,11,3],"swapped_pitches":[1,3,7,5,4,5,-1,8,3,-1,11,3],"shift_direction":1,"question_num":141,"has_decoy":false},{"rt":2621.2000000001863,"stimulus":"[A] option 1, [L] option 2, [G] neither","key_press":65,"name":"choice","trial_type":"html-keyboard-response","trial_index":175,"time_elapsed":353392,"internal_node_id":"0.0-175.0","subject":"S1C1205","sona":"40727","block":6,"time":"2021-09-06T20:56:03.573Z","response":"1st","certainty":"high","char":"A","transposition":-1,"order":["swapped","shifted"],"probe_pitches":[2,5,7,5,7,3,0,5,8,9,1,0],"shifted_pitches":[2,5,7,5,7,4,0,5,8,9,1,0],"swapped_pitches":[2,5,7,5,7,0,3,5,8,9,1,0],"shift_direction":1,"question_num":151,"has_decoy":false},{"rt":2258,"stimulus":"[A] option 1, [L] option 2, [G] neither","key_press":71,"name":"choice","trial_type":"html-keyboard-response","trial_index":186,"time_elapsed":374095,"internal_node_id":"0.0-186.0","subject":"S1C1205","sona":"40727","block":6,"time":"2021-09-06T20:56:03.573Z","response":"neither","certainty":"high","char":"G","transposition":-2,"order":["shifted","swapped"],"probe_pitches":[5,10,8,10,3,10,0,3,-2,10,3,10],"shifted_pitches":[5,10,8,10,3,10,1,3,-2,10,3,10],"swapped_pitches":[5,10,8,10,3,0,10,3,-2,10,3,10],"shift_direction":1,"question_num":161,"has_decoy":false},{"rt":3672.2000000001863,"stimulus":"[A] option 1, [L] option 2, [G] neither","key_press":76,"name":"choice","trial_type":"html-keyboard-response","trial_index":197,"time_elapsed":396672,"internal_node_id":"0.0-197.0","subject":"S1C1205","sona":"40727","block":6,"time":"2021-09-06T20:56:03.573Z","response":"2nd","certainty":"high","char":"L","transposition":-3,"order":["swapped","shifted"],"probe_pitches":[-2,3,1,-2,3,10,8,1,6,3,6,-2],"shifted_pitches":[-2,3,1,-2,3,9,8,1,6,3,6,-2],"swapped_pitches":[-2,3,1,-2,3,8,10,1,6,3,6,-2],"shift_direction":-1,"question_num":171,"has_decoy":false},{"rt":1262.5,"stimulus":"[A] option 1, [L] option 2, [G] neither","key_press":71,"name":"choice","trial_type":"html-keyboard-response","trial_index":208,"time_elapsed":417265,"internal_node_id":"0.0-208.0","subject":"S1C1205","sona":"40727","block":6,"time":"2021-09-06T20:56:03.573Z","response":"neither","certainty":"high","char":"G","transposition":-3,"order":["shifted","swapped"],"probe_pitches":[10,7,8,3,1,11,3,7,8,5,10,7],"shifted_pitches":[10,7,8,3,1,11,2,7,8,5,10,7],"swapped_pitches":[10,7,8,3,1,3,11,7,8,5,10,7],"shift_direction":-1,"question_num":181,"has_decoy":false},{"rt":3877,"stimulus":"[A] option 1, [L] option 2, [G] neither","key_press":71,"name":"choice","trial_type":"html-keyboard-response","trial_index":219,"time_elapsed":439949,"internal_node_id":"0.0-219.0","subject":"S1C1205","sona":"40727","block":6,"time":"2021-09-06T20:56:03.573Z","response":"neither","certainty":"high","char":"G","transposition":0,"order":["swapped","shifted"],"probe_pitches":[-2,3,0,-2,0,-2,5,8,5,0,10,8],"shifted_pitches":[-2,3,0,-2,0,-1,5,8,5,0,10,8],"swapped_pitches":[-2,3,0,-2,0,5,-2,8,5,0,10,8],"shift_direction":1,"question_num":191,"has_decoy":false}]