[{"rt":2049.5,"stimulus":"[A] option 1, [L] option 2, [G] neither","key_press":76,"name":"choice","trial_type":"html-keyboard-response","trial_index":10,"time_elapsed":35012,"internal_node_id":"0.0-10.0","subject":"S1C1205","sona":"40727","block":5,"time":"2021-09-06T20:48:38.629Z","response":"2nd","certainty":"high","char":"L","transposition":-1,"order":["swapped","shifted"],"probe_pitches":[11,13,6,3,1,8,3,6,3,11,8,6],"shifted_pitches":[11,13,6,3,1,9,3,6,3,11,8,6],"swapped_pitches":[11,13,6,3,1,3,8,6,3,11,8,6],"shift_direction":1,"question_num":1,"has_decoy":false},{"rt":8490.5,"stimulus":"[A] option 1, [L] option 2, [G] neither","key_press":76,"name":"choice","trial_type":"html-keyboard-response","trial_index":21,"time_elapsed":61554,"internal_node_id":"0.0-21.0","subject":"S1C1205","sona":"40727","block":5,"time":"2021-09-06T20:48:38.629Z","response":"2nd","certainty":"high","char":"L","transposition":-2,"order":["swapped","shifted"],"probe_pitches":[5,-1,6,1,4,5,1,10,9,10,4,0],"shifted_pitches":[5,-1,6,1,4,5,2,10,9,10,4,0],"swapped_pitches":[5,-1,6,1,4,1,5,10,9,10,4,0],"shift_direction":1,"question_num":11,"has_decoy":false},{"rt":5432.4000000003725,"stimulus":"[A] option 1, [L] option 2, [G] neither","key_press":76,"name":"choice","trial_type":"html-keyboard-response","trial_index":32,"time_elapsed":99478,"internal_node_id":"0.0-32.0","subject":"S1C1205","sona":"40727","block":5,"time":"2021-09-06T20:48:38.629Z","response":"2nd","certainty":"high","char":"L","transposition":-1,"order":["shifted","swapped"],"probe_pitches":[1,3,10,8,13,10,3,8,6,10,13,8],"shifted_pitches":[1,3,10,8,13,10,2,8,6,10,13,8],"swapped_pitches":[1,3,10,8,13,3,10,8,6,10,13,8],"shift_direction":-1,"question_num":21,"has_decoy":false},{"rt":3321.100000000559,"stimulus":"[A] option 1, [L] option 2, [G] neither","key_press":65,"name":"choice","trial_type":"html-keyboard-response","trial_index":43,"time_elapsed":120972,"internal_node_id":"0.0-43.0","subject":"S1C1205","sona":"40727","block":5,"time":"2021-09-06T20:48:38.629Z","response":"1st","certainty":"high","char":"A","transposition":3,"order":["shifted","swapped"],"probe_pitches":[-1,2,7,-1,8,-1,2,8,-1,1,10,-1],"shifted_pitches":[-1,2,7,-1,8,-1,3,8,-1,1,10,-1],"swapped_pitches":[-1,2,7,-1,8,2,-1,8,-1,1,10,-1],"shift_direction":1,"question_num":31,"has_decoy":false},{"rt":5835.700000000186,"stimulus":"[A] option 1, [L] option 2, [G] neither","key_press":65,"name":"choice","trial_type":"html-keyboard-response","trial_index":54,"time_elapsed":144980,"internal_node_id":"0.0-54.0","subject":"S1C1205","sona":"40727","block":5,"time":"2021-09-06T20:48:38.629Z","response":"1st","certainty":"high","char":"A","transposition":1,"order":["swapped","shifted"],"probe_pitches":[11,13,11,3,1,11,8,1,8,6,1,3],"shifted_pitches":[11,13,11,3,1,12,8,1,8,6,1,3],"swapped_pitches":[11,13,11,3,1,8,11,1,8,6,1,3],"shift_direction":1,"question_num":41,"has_decoy":false},{"rt":3231,"stimulus":"[A] option 1, [L] option 2, [G] neither","key_press":76,"name":"choice","trial_type":"html-keyboard-response","trial_index":65,"time_elapsed":167255,"internal_node_id":"0.0-65.0","subject":"S1C1205","sona":"40727","block":5,"time":"2021-09-06T20:48:38.629Z","response":"2nd","certainty":"high","char":"L","transposition":-3,"order":["swapped","shifted"],"probe_pitches":[10,6,7,9,0,5,-2,6,-1,8,10,7],"shifted_pitches":[10,6,7,9,0,4,-2,6,-1,8,10,7],"swapped_pitches":[10,6,7,9,0,-2,5,6,-1,8,10,7],"shift_direction":-1,"question_num":51,"has_decoy":false},{"rt":2017,"stimulus":"[A] option 1, [L] option 2, [G] neither","key_press":76,"name":"choice","trial_type":"html-keyboard-response","trial_index":76,"time_elapsed":188020,"internal_node_id":"0.0-76.0","subject":"S1C1205","sona":"40727","block":5,"time":"2021-09-06T20:48:38.629Z","response":"2nd","certainty":"high","char":"L","transposition":2,"order":["shifted","swapped"],"probe_pitches":[4,6,13,9,11,9,4,11,1,9,1,9],"shifted_pitches":[4,6,13,9,11,8,4,11,1,9,1,9],"swapped_pitches":[4,6,13,9,11,4,9,11,1,9,1,9],"shift_direction":-1,"question_num":61,"has_decoy":false},{"rt":3774.899999999441,"stimulus":"[A] option 1, [L] option 2, [G] neither","key_press":65,"name":"choice","trial_type":"html-keyboard-response","trial_index":87,"time_elapsed":210450,"internal_node_id":"0.0-87.0","subject":"S1C1205","sona":"40727","block":5,"time":"2021-09-06T20:48:38.629Z","response":"1st","certainty":"high","char":"A","transposition":-2,"order":["shifted","swapped"],"probe_pitches":[11,13,6,11,9,4,6,9,4,13,1,11],"shifted_pitches":[11,13,6,11,9,4,7,9,4,13,1,11],"swapped_pitches":[11,13,6,11,9,6,4,9,4,13,1,11],"shift_direction":1,"question_num":71,"has_decoy":false},{"rt":3651.2999999998137,"stimulus":"[A] option 1, [L] option 2, [G] neither","key_press":76,"name":"choice","trial_type":"html-keyboard-response","trial_index":98,"time_elapsed":233057,"internal_node_id":"0.0-98.0","subject":"S1C1205","sona":"40727","block":5,"time":"2021-09-06T20:48:38.629Z","response":"2nd","certainty":"high","char":"L","transposition":3,"order":["swapped","shifted"],"probe_pitches":[13,10,8,3,5,13,8,3,1,3,5,1],"shifted_pitches":[13,10,8,3,5,14,8,3,1,3,5,1],"swapped_pitches":[13,10,8,3,5,8,13,3,1,3,5,1],"shift_direction":1,"question_num":81,"has_decoy":false},{"rt":1944.9000000003725,"stimulus":"[A] option 1, [L] option 2, [G] neither","key_press":71,"name":"choice","trial_type":"html-keyboard-response","trial_index":109,"time_elapsed":254364,"internal_node_id":"0.0-109.0","subject":"S1C1205","sona":"40727","block":5,"time":"2021-09-06T20:48:38.629Z","response":"neither","certainty":"high","char":"G","transposition":-2,"order":["shifted","swapped"],"probe_pitches":[10,8,3,10,1,10,8,3,1,3,5,10],"shifted_pitches":[10,8,3,10,1,9,8,3,1,3,5,10],"swapped_pitches":[10,8,3,10,1,8,10,3,1,3,5,10],"shift_direction":-1,"question_num":91,"has_decoy":false},{"rt":3414.2999999998137,"stimulus":"[A] option 1, [L] option 2, [G] neither","key_press":76,"name":"choice","trial_type":"html-keyboard-response","trial_index":120,"time_elapsed":276191,"internal_node_id":"0.0-120.0","subject":"S1C1205","sona":"40727","block":5,"time":"2021-09-06T20:48:38.629Z","response":"2nd","certainty":"high","char":"L","transposition":0,"order":["swapped","shifted"],"probe_pitches":[6,10,13,6,3,8,13,10,8,1,10,3],"shifted_pitches":[6,10,13,6,3,8,12,10,8,1,10,3],"swapped_pitches":[6,10,13,6,3,13,8,10,8,1,10,3],"shift_direction":-1,"question_num":101,"has_decoy":false},{"rt":3316.100000000559,"stimulus":"[A] option 1, [L] option 2, [G] neither","key_press":71,"name":"choice","trial_type":"html-keyboard-response","trial_index":131,"time_elapsed":297969,"internal_node_id":"0.0-131.0","subject":"S1C1205","sona":"40727","block":5,"time":"2021-09-06T20:48:38.629Z","response":"neither","certainty":"high","char":"G","transposition":-1,"order":["shifted","swapped"],"probe_pitches":[1,-1,2,8,2,-1,10,2,9,-2,1,8],"shifted_pitches":[1,-1,2,8,2,0,10,2,9,-2,1,8],"swapped_pitches":[1,-1,2,8,2,10,-1,2,9,-2,1,8],"shift_direction":1,"question_num":111,"has_decoy":false},{"rt":2878.399999999441,"stimulus":"[A] option 1, [L] option 2, [G] neither","key_press":76,"name":"choice","trial_type":"html-keyboard-response","trial_index":142,"time_elapsed":319660,"internal_node_id":"0.0-142.0","subject":"S1C1205","sona":"40727","block":5,"time":"2021-09-06T20:48:38.629Z","response":"2nd","certainty":"high","char":"L","transposition":2,"order":["shifted","swapped"],"probe_pitches":[9,10,9,3,2,1,6,0,6,-2,8,1],"shifted_pitches":[9,10,9,3,2,1,7,0,6,-2,8,1],"swapped_pitches":[9,10,9,3,2,6,1,0,6,-2,8,1],"shift_direction":1,"question_num":121,"has_decoy":false},{"rt":3039.7000000001863,"stimulus":"[A] option 1, [L] option 2, [G] neither","key_press":76,"name":"choice","trial_type":"html-keyboard-response","trial_index":153,"time_elapsed":340850,"internal_node_id":"0.0-153.0","subject":"S1C1205","sona":"40727","block":5,"time":"2021-09-06T20:48:38.629Z","response":"2nd","certainty":"high","char":"L","transposition":-3,"order":["swapped","shifted"],"probe_pitches":[1,4,3,7,5,3,-2,2,-1,10,3,5],"shifted_pitches":[1,4,3,7,5,3,-3,2,-1,10,3,5],"swapped_pitches":[1,4,3,7,5,-2,3,2,-1,10,3,5],"shift_direction":-1,"question_num":131,"has_decoy":false},{"rt":918.8000000007451,"stimulus":"[A] option 1, [L] option 2, [G] neither","key_press":76,"name":"choice","trial_type":"html-keyboard-response","trial_index":164,"time_elapsed":361359,"internal_node_id":"0.0-164.0","subject":"S1C1205","sona":"40727","block":5,"time":"2021-09-06T20:48:38.629Z","response":"2nd","certainty":"high","char":"L","transposition":0,"order":["shifted","swapped"],"probe_pitches":[10,6,7,0,6,9,7,-2,2,4,3,1],"shifted_pitches":[10,6,7,0,6,8,7,-2,2,4,3,1],"swapped_pitches":[10,6,7,0,6,7,9,-2,2,4,3,1],"shift_direction":-1,"question_num":141,"has_decoy":false},{"rt":717.4000000003725,"stimulus":"[A] option 1, [L] option 2, [G] neither","key_press":65,"name":"choice","trial_type":"html-keyboard-response","trial_index":175,"time_elapsed":380571,"internal_node_id":"0.0-175.0","subject":"S1C1205","sona":"40727","block":5,"time":"2021-09-06T20:48:38.629Z","response":"1st","certainty":"high","char":"A","transposition":1,"order":["shifted","swapped"],"probe_pitches":[2,3,-1,3,10,7,3,-1,9,4,5,7],"shifted_pitches":[2,3,-1,3,10,6,3,-1,9,4,5,7],"swapped_pitches":[2,3,-1,3,10,3,7,-1,9,4,5,7],"shift_direction":-1,"question_num":151,"has_decoy":false},{"rt":3888.7999999998137,"stimulus":"[A] option 1, [L] option 2, [G] neither","key_press":76,"name":"choice","trial_type":"html-keyboard-response","trial_index":186,"time_elapsed":403156,"internal_node_id":"0.0-186.0","subject":"S1C1205","sona":"40727","block":5,"time":"2021-09-06T20:48:38.629Z","response":"2nd","certainty":"high","char":"L","transposition":-3,"order":["swapped","shifted"],"probe_pitches":[8,11,4,11,4,6,8,11,1,13,1,11],"shifted_pitches":[8,11,4,11,4,6,9,11,1,13,1,11],"swapped_pitches":[8,11,4,11,4,8,6,11,1,13,1,11],"shift_direction":1,"question_num":161,"has_decoy":false},{"rt":3757.800000000745,"stimulus":"[A] option 1, [L] option 2, [G] neither","key_press":71,"name":"choice","trial_type":"html-keyboard-response","trial_index":197,"time_elapsed":427969,"internal_node_id":"0.0-197.0","subject":"S1C1205","sona":"40727","block":5,"time":"2021-09-06T20:48:38.629Z","response":"neither","certainty":"high","char":"G","transposition":-3,"order":["shifted","swapped"],"probe_pitches":[4,1,8,11,4,6,8,1,4,6,1,13],"shifted_pitches":[4,1,8,11,4,6,7,1,4,6,1,13],"swapped_pitches":[4,1,8,11,4,8,6,1,4,6,1,13],"shift_direction":-1,"question_num":171,"has_decoy":false},{"rt":5468.200000000186,"stimulus":"[A] option 1, [L] option 2, [G] neither","key_press":76,"name":"choice","trial_type":"html-keyboard-response","trial_index":208,"time_elapsed":452346,"internal_node_id":"0.0-208.0","subject":"S1C1205","sona":"40727","block":5,"time":"2021-09-06T20:48:38.629Z","response":"2nd","certainty":"high","char":"L","transposition":-2,"order":["swapped","shifted"],"probe_pitches":[6,7,9,10,3,6,-1,10,3,-2,0,1],"shifted_pitches":[6,7,9,10,3,5,-1,10,3,-2,0,1],"swapped_pitches":[6,7,9,10,3,-1,6,10,3,-2,0,1],"shift_direction":-1,"question_num":181,"has_decoy":false},{"rt":2272.0999999996275,"stimulus":"[A] option 1, [L] option 2, [G] neither","key_press":71,"name":"choice","trial_type":"html-keyboard-response","trial_index":219,"time_elapsed":473923,"internal_node_id":"0.0-219.0","subject":"S1C1205","sona":"40727","block":5,"time":"2021-09-06T20:48:38.629Z","response":"neither","certainty":"high","char":"G","transposition":-1,"order":["swapped","shifted"],"probe_pitches":[2,7,9,6,3,2,0,5,-1,5,4,6],"shifted_pitches":[2,7,9,6,3,2,1,5,-1,5,4,6],"swapped_pitches":[2,7,9,6,3,0,2,5,-1,5,4,6],"shift_direction":1,"question_num":191,"has_decoy":false}]