[{"rt":5919.100000000559,"stimulus":"[A] option 1, [L] option 2, [G] neither","key_press":76,"name":"choice","trial_type":"html-keyboard-response","trial_index":10,"time_elapsed":66959,"internal_node_id":"0.0-10.0","subject":"S1C1205","sona":"40727","block":4,"time":"2021-09-06T20:40:04.207Z","response":"2nd","certainty":"high","char":"L","transposition":-1,"order":["swapped","shifted"],"probe_pitches":[5,6,7,0,4,11,1,-1,11,0,1,11],"shifted_pitches":[5,6,7,0,4,11,2,-1,11,0,1,11],"swapped_pitches":[5,6,7,0,4,1,11,-1,11,0,1,11],"shift_direction":1,"question_num":1,"has_decoy":false},{"rt":6253.0999999996275,"stimulus":"[A] option 1, [L] option 2, [G] neither","key_press":65,"name":"choice","trial_type":"html-keyboard-response","trial_index":21,"time_elapsed":95923,"internal_node_id":"0.0-21.0","subject":"S1C1205","sona":"40727","block":4,"time":"2021-09-06T20:40:04.207Z","response":"1st","certainty":"high","char":"A","transposition":0,"order":["shifted","swapped"],"probe_pitches":[5,-1,3,5,7,0,3,11,6,-1,4,-1],"shifted_pitches":[5,-1,3,5,7,1,3,11,6,-1,4,-1],"swapped_pitches":[5,-1,3,5,7,3,0,11,6,-1,4,-1],"shift_direction":1,"question_num":11,"has_decoy":false},{"rt":2785.7999999998137,"stimulus":"[A] option 1, [L] option 2, [G] neither","key_press":71,"name":"choice","trial_type":"html-keyboard-response","trial_index":32,"time_elapsed":119106,"internal_node_id":"0.0-32.0","subject":"S1C1205","sona":"40727","block":4,"time":"2021-09-06T20:40:04.207Z","response":"neither","certainty":"high","char":"G","transposition":-3,"order":["shifted","swapped"],"probe_pitches":[4,6,4,6,4,9,11,6,4,14,9,4],"shifted_pitches":[4,6,4,6,4,9,12,6,4,14,9,4],"swapped_pitches":[4,6,4,6,4,11,9,6,4,14,9,4],"shift_direction":1,"question_num":21,"has_decoy":false},{"rt":2954.7000000001863,"stimulus":"[A] option 1, [L] option 2, [G] neither","key_press":71,"name":"choice","trial_type":"html-keyboard-response","trial_index":43,"time_elapsed":142017,"internal_node_id":"0.0-43.0","subject":"S1C1205","sona":"40727","block":4,"time":"2021-09-06T20:40:04.207Z","response":"neither","certainty":"high","char":"G","transposition":1,"order":["shifted","swapped"],"probe_pitches":[14,9,12,9,12,2,9,5,7,14,9,14],"shifted_pitches":[14,9,12,9,12,2,10,5,7,14,9,14],"swapped_pitches":[14,9,12,9,12,9,2,5,7,14,9,14],"shift_direction":1,"question_num":31,"has_decoy":false},{"rt":3353.5999999996275,"stimulus":"[A] option 1, [L] option 2, [G] neither","key_press":76,"name":"choice","trial_type":"html-keyboard-response","trial_index":54,"time_elapsed":163781,"internal_node_id":"0.0-54.0","subject":"S1C1205","sona":"40727","block":4,"time":"2021-09-06T20:40:04.207Z","response":"2nd","certainty":"high","char":"L","transposition":-2,"order":["swapped","shifted"],"probe_pitches":[7,12,14,12,7,9,4,12,14,4,2,9],"shifted_pitches":[7,12,14,12,7,8,4,12,14,4,2,9],"swapped_pitches":[7,12,14,12,7,4,9,12,14,4,2,9],"shift_direction":-1,"question_num":41,"has_decoy":false},{"rt":3401.7999999998137,"stimulus":"[A] option 1, [L] option 2, [G] neither","key_press":65,"name":"choice","trial_type":"html-keyboard-response","trial_index":65,"time_elapsed":185574,"internal_node_id":"0.0-65.0","subject":"S1C1205","sona":"40727","block":4,"time":"2021-09-06T20:40:04.207Z","response":"1st","certainty":"high","char":"A","transposition":1,"order":["shifted","swapped"],"probe_pitches":[2,1,5,9,6,9,3,2,9,0,9,2],"shifted_pitches":[2,1,5,9,6,9,4,2,9,0,9,2],"swapped_pitches":[2,1,5,9,6,3,9,2,9,0,9,2],"shift_direction":1,"question_num":51,"has_decoy":false},{"rt":2424.399999999441,"stimulus":"[A] option 1, [L] option 2, [G] neither","key_press":76,"name":"choice","trial_type":"html-keyboard-response","trial_index":76,"time_elapsed":206090,"internal_node_id":"0.0-76.0","subject":"S1C1205","sona":"40727","block":4,"time":"2021-09-06T20:40:04.207Z","response":"2nd","certainty":"high","char":"L","transposition":2,"order":["swapped","shifted"],"probe_pitches":[-1,1,0,5,0,2,7,-1,4,-1,10,4],"shifted_pitches":[-1,1,0,5,0,2,6,-1,4,-1,10,4],"swapped_pitches":[-1,1,0,5,0,7,2,-1,4,-1,10,4],"shift_direction":-1,"question_num":61,"has_decoy":false},{"rt":3776.5,"stimulus":"[A] option 1, [L] option 2, [G] neither","key_press":65,"name":"choice","trial_type":"html-keyboard-response","trial_index":87,"time_elapsed":228610,"internal_node_id":"0.0-87.0","subject":"S1C1205","sona":"40727","block":4,"time":"2021-09-06T20:40:04.207Z","response":"1st","certainty":"high","char":"A","transposition":0,"order":["swapped","shifted"],"probe_pitches":[12,10,14,10,7,2,12,5,7,2,14,12],"shifted_pitches":[12,10,14,10,7,3,12,5,7,2,14,12],"swapped_pitches":[12,10,14,10,7,12,2,5,7,2,14,12],"shift_direction":1,"question_num":71,"has_decoy":false},{"rt":1699.300000000745,"stimulus":"[A] option 1, [L] option 2, [G] neither","key_press":76,"name":"choice","trial_type":"html-keyboard-response","trial_index":98,"time_elapsed":250042,"internal_node_id":"0.0-98.0","subject":"S1C1205","sona":"40727","block":4,"time":"2021-09-06T20:40:04.207Z","response":"2nd","certainty":"high","char":"L","transposition":2,"order":["shifted","swapped"],"probe_pitches":[2,7,14,11,14,4,7,14,11,9,7,11],"shifted_pitches":[2,7,14,11,14,3,7,14,11,9,7,11],"swapped_pitches":[2,7,14,11,14,7,4,14,11,9,7,11],"shift_direction":-1,"question_num":81,"has_decoy":false},{"rt":3334.399999999441,"stimulus":"[A] option 1, [L] option 2, [G] neither","key_press":76,"name":"choice","trial_type":"html-keyboard-response","trial_index":109,"time_elapsed":274046,"internal_node_id":"0.0-109.0","subject":"S1C1205","sona":"40727","block":4,"time":"2021-09-06T20:40:04.207Z","response":"2nd","certainty":"high","char":"L","transposition":-1,"order":["shifted","swapped"],"probe_pitches":[2,7,12,5,14,5,12,10,5,14,5,2],"shifted_pitches":[2,7,12,5,14,4,12,10,5,14,5,2],"swapped_pitches":[2,7,12,5,14,12,5,10,5,14,5,2],"shift_direction":-1,"question_num":91,"has_decoy":false},{"rt":4675.100000000559,"stimulus":"[A] option 1, [L] option 2, [G] neither","key_press":71,"name":"choice","trial_type":"html-keyboard-response","trial_index":120,"time_elapsed":297392,"internal_node_id":"0.0-120.0","subject":"S1C1205","sona":"40727","block":4,"time":"2021-09-06T20:40:04.207Z","response":"neither","certainty":"high","char":"G","transposition":-3,"order":["swapped","shifted"],"probe_pitches":[8,6,10,5,9,8,11,6,2,0,5,1],"shifted_pitches":[8,6,10,5,9,7,11,6,2,0,5,1],"swapped_pitches":[8,6,10,5,9,11,8,6,2,0,5,1],"shift_direction":-1,"question_num":101,"has_decoy":false},{"rt":1685.0999999996275,"stimulus":"[A] option 1, [L] option 2, [G] neither","key_press":71,"name":"choice","trial_type":"html-keyboard-response","trial_index":131,"time_elapsed":317688,"internal_node_id":"0.0-131.0","subject":"S1C1205","sona":"40727","block":4,"time":"2021-09-06T20:40:04.207Z","response":"neither","certainty":"high","char":"G","transposition":-3,"order":["shifted","swapped"],"probe_pitches":[2,6,1,3,2,9,-1,11,6,2,1,8],"shifted_pitches":[2,6,1,3,2,9,-2,11,6,2,1,8],"swapped_pitches":[2,6,1,3,2,-1,9,11,6,2,1,8],"shift_direction":-1,"question_num":111,"has_decoy":false},{"rt":1079.2000000001863,"stimulus":"[A] option 1, [L] option 2, [G] neither","key_press":65,"name":"choice","trial_type":"html-keyboard-response","trial_index":142,"time_elapsed":337215,"internal_node_id":"0.0-142.0","subject":"S1C1205","sona":"40727","block":4,"time":"2021-09-06T20:40:04.207Z","response":"1st","certainty":"high","char":"A","transposition":-2,"order":["swapped","shifted"],"probe_pitches":[2,6,9,11,4,6,2,14,2,4,2,4],"shifted_pitches":[2,6,9,11,4,6,1,14,2,4,2,4],"swapped_pitches":[2,6,9,11,4,2,6,14,2,4,2,4],"shift_direction":-1,"question_num":121,"has_decoy":false},{"rt":3019.2000000001863,"stimulus":"[A] option 1, [L] option 2, [G] neither","key_press":76,"name":"choice","trial_type":"html-keyboard-response","trial_index":153,"time_elapsed":364563,"internal_node_id":"0.0-153.0","subject":"S1C1205","sona":"40727","block":4,"time":"2021-09-06T20:40:04.207Z","response":"2nd","certainty":"high","char":"L","transposition":3,"order":["swapped","shifted"],"probe_pitches":[-1,1,6,1,8,1,4,0,9,10,9,-1],"shifted_pitches":[-1,1,6,1,8,1,5,0,9,10,9,-1],"swapped_pitches":[-1,1,6,1,8,4,1,0,9,10,9,-1],"shift_direction":1,"question_num":131,"has_decoy":false},{"rt":3698,"stimulus":"[A] option 1, [L] option 2, [G] neither","key_press":76,"name":"choice","trial_type":"html-keyboard-response","trial_index":164,"time_elapsed":386885,"internal_node_id":"0.0-164.0","subject":"S1C1205","sona":"40727","block":4,"time":"2021-09-06T20:40:04.207Z","response":"2nd","certainty":"high","char":"L","transposition":-1,"order":["swapped","shifted"],"probe_pitches":[7,5,2,7,2,9,5,12,9,14,7,12],"shifted_pitches":[7,5,2,7,2,9,4,12,9,14,7,12],"swapped_pitches":[7,5,2,7,2,5,9,12,9,14,7,12],"shift_direction":-1,"question_num":141,"has_decoy":false},{"rt":6062,"stimulus":"[A] option 1, [L] option 2, [G] neither","key_press":65,"name":"choice","trial_type":"html-keyboard-response","trial_index":175,"time_elapsed":411532,"internal_node_id":"0.0-175.0","subject":"S1C1205","sona":"40727","block":4,"time":"2021-09-06T20:40:04.207Z","response":"1st","certainty":"high","char":"A","transposition":-2,"order":["swapped","shifted"],"probe_pitches":[3,8,4,2,11,10,-1,7,8,4,1,4],"shifted_pitches":[3,8,4,2,11,9,-1,7,8,4,1,4],"swapped_pitches":[3,8,4,2,11,-1,10,7,8,4,1,4],"shift_direction":-1,"question_num":151,"has_decoy":false},{"rt":4586.699999999255,"stimulus":"[A] option 1, [L] option 2, [G] neither","key_press":76,"name":"choice","trial_type":"html-keyboard-response","trial_index":186,"time_elapsed":434542,"internal_node_id":"0.0-186.0","subject":"S1C1205","sona":"40727","block":4,"time":"2021-09-06T20:40:04.207Z","response":"2nd","certainty":"high","char":"L","transposition":-2,"order":["shifted","swapped"],"probe_pitches":[10,4,2,6,5,4,7,0,1,-1,10,1],"shifted_pitches":[10,4,2,6,5,3,7,0,1,-1,10,1],"swapped_pitches":[10,4,2,6,5,7,4,0,1,-1,10,1],"shift_direction":-1,"question_num":161,"has_decoy":false},{"rt":9306.300000000745,"stimulus":"[A] option 1, [L] option 2, [G] neither","key_press":65,"name":"choice","trial_type":"html-keyboard-response","trial_index":197,"time_elapsed":462396,"internal_node_id":"0.0-197.0","subject":"S1C1205","sona":"40727","block":4,"time":"2021-09-06T20:40:04.207Z","response":"1st","certainty":"high","char":"A","transposition":-1,"order":["shifted","swapped"],"probe_pitches":[7,10,11,5,-1,7,1,11,-1,11,1,11],"shifted_pitches":[7,10,11,5,-1,8,1,11,-1,11,1,11],"swapped_pitches":[7,10,11,5,-1,1,7,11,-1,11,1,11],"shift_direction":1,"question_num":171,"has_decoy":false},{"rt":7445.200000000186,"stimulus":"[A] option 1, [L] option 2, [G] neither","key_press":65,"name":"choice","trial_type":"html-keyboard-response","trial_index":208,"time_elapsed":488589,"internal_node_id":"0.0-208.0","subject":"S1C1205","sona":"40727","block":4,"time":"2021-09-06T20:40:04.207Z","response":"1st","certainty":"high","char":"A","transposition":-3,"order":["shifted","swapped"],"probe_pitches":[4,9,2,4,7,4,11,9,7,4,9,4],"shifted_pitches":[4,9,2,4,7,4,12,9,7,4,9,4],"swapped_pitches":[4,9,2,4,7,11,4,9,7,4,9,4],"shift_direction":1,"question_num":181,"has_decoy":false},{"rt":2876.7000000001863,"stimulus":"[A] option 1, [L] option 2, [G] neither","key_press":76,"name":"choice","trial_type":"html-keyboard-response","trial_index":219,"time_elapsed":509909,"internal_node_id":"0.0-219.0","subject":"S1C1205","sona":"40727","block":4,"time":"2021-09-06T20:40:04.207Z","response":"2nd","certainty":"high","char":"L","transposition":3,"order":["swapped","shifted"],"probe_pitches":[4,7,4,2,4,12,14,2,4,7,2,9],"shifted_pitches":[4,7,4,2,4,13,14,2,4,7,2,9],"swapped_pitches":[4,7,4,2,4,14,12,2,4,7,2,9],"shift_direction":1,"question_num":191,"has_decoy":false}]