[{"rt":4091.2000000001863,"stimulus":"[A] option 1, [L] option 2, [G] neither","key_press":76,"name":"choice","trial_type":"html-keyboard-response","trial_index":15,"time_elapsed":78156,"internal_node_id":"0.0-15.0","response":"2nd","certainty":"high","char":"L","transposition":3,"order":["shifted","swapped"],"probe_pitches":[7,9,8,1,3,-1,2,7,5,-2,6,8],"shifted_pitches":[7,9,8,1,3,0,2,7,5,-2,6,8],"swapped_pitches":[7,9,8,1,3,2,-1,7,5,-2,6,8],"shift_direction":1,"question_num":1,"has_decoy":false,"subject":"S1C1205","sona":"40727","block":1,"time":"2021-09-06T20:13:45.782Z"},{"rt":3756.2000000001863,"stimulus":"[A] option 1, [L] option 2, [G] neither","key_press":76,"name":"choice","trial_type":"html-keyboard-response","trial_index":26,"time_elapsed":102813,"internal_node_id":"0.0-26.0","response":"2nd","certainty":"high","char":"L","transposition":2,"order":["shifted","swapped"],"probe_pitches":[7,1,2,7,2,9,0,7,4,6,5,0],"shifted_pitches":[7,1,2,7,2,8,0,7,4,6,5,0],"swapped_pitches":[7,1,2,7,2,0,9,7,4,6,5,0],"shift_direction":-1,"question_num":11,"has_decoy":false,"subject":"S1C1205","sona":"40727","block":1,"time":"2021-09-06T20:13:45.782Z"},{"rt":1807.6999999997206,"stimulus":"[A] option 1, [L] option 2, [G] neither","key_press":76,"name":"choice","trial_type":"html-keyboard-response","trial_index":37,"time_elapsed":126048,"internal_node_id":"0.0-37.0","response":"2nd","certainty":"high","char":"L","transposition":-2,"order":["swapped","shifted"],"probe_pitches":[0,5,2,5,12,10,7,0,7,10,2,0],"shifted_pitches":[0,5,2,5,12,9,7,0,7,10,2,0],"swapped_pitches":[0,5,2,5,12,7,10,0,7,10,2,0],"shift_direction":-1,"question_num":21,"has_decoy":false,"subject":"S1C1205","sona":"40727","block":1,"time":"2021-09-06T20:13:45.782Z"},{"rt":5055.5,"stimulus":"[A] option 1, [L] option 2, [G] neither","key_press":71,"name":"choice","trial_type":"html-keyboard-response","trial_index":48,"time_elapsed":150512,"internal_node_id":"0.0-48.0","response":"neither","certainty":"high","char":"G","transposition":1,"order":["shifted","swapped"],"probe_pitches":[7,2,7,5,8,-2,1,7,1,-2,2,5],"shifted_pitches":[7,2,7,5,8,-1,1,7,1,-2,2,5],"swapped_pitches":[7,2,7,5,8,1,-2,7,1,-2,2,5],"shift_direction":1,"question_num":31,"has_decoy":false,"subject":"S1C1205","sona":"40727","block":1,"time":"2021-09-06T20:13:45.782Z"},{"rt":4886.800000000279,"stimulus":"[A] option 1, [L] option 2, [G] neither","key_press":65,"name":"choice","trial_type":"html-keyboard-response","trial_index":59,"time_elapsed":174802,"internal_node_id":"0.0-59.0","response":"1st","certainty":"high","char":"A","transposition":-3,"order":["shifted","swapped"],"probe_pitches":[3,7,0,5,6,2,9,-2,4,7,5,-2],"shifted_pitches":[3,7,0,5,6,1,9,-2,4,7,5,-2],"swapped_pitches":[3,7,0,5,6,9,2,-2,4,7,5,-2],"shift_direction":-1,"question_num":41,"has_decoy":false,"subject":"S1C1205","sona":"40727","block":1,"time":"2021-09-06T20:13:45.782Z"},{"rt":2141.7000000001863,"stimulus":"[A] option 1, [L] option 2, [G] neither","key_press":71,"name":"choice","trial_type":"html-keyboard-response","trial_index":70,"time_elapsed":196321,"internal_node_id":"0.0-70.0","response":"neither","certainty":"high","char":"G","transposition":-1,"order":["swapped","shifted"],"probe_pitches":[1,7,6,-1,8,4,6,1,2,9,-3,6],"shifted_pitches":[1,7,6,-1,8,4,5,1,2,9,-3,6],"swapped_pitches":[1,7,6,-1,8,6,4,1,2,9,-3,6],"shift_direction":-1,"question_num":51,"has_decoy":false,"subject":"S1C1205","sona":"40727","block":1,"time":"2021-09-06T20:13:45.782Z"},{"rt":2142.399999999907,"stimulus":"[A] option 1, [L] option 2, [G] neither","key_press":76,"name":"choice","trial_type":"html-keyboard-response","trial_index":81,"time_elapsed":216794,"internal_node_id":"0.0-81.0","response":"2nd","certainty":"high","char":"L","transposition":-1,"order":["swapped","shifted"],"probe_pitches":[7,4,7,0,7,0,2,12,9,7,12,9],"shifted_pitches":[7,4,7,0,7,-1,2,12,9,7,12,9],"swapped_pitches":[7,4,7,0,7,2,0,12,9,7,12,9],"shift_direction":-1,"question_num":61,"has_decoy":false,"subject":"S1C1205","sona":"40727","block":1,"time":"2021-09-06T20:13:45.782Z"},{"rt":5874.700000000186,"stimulus":"[A] option 1, [L] option 2, [G] neither","key_press":65,"name":"choice","trial_type":"html-keyboard-response","trial_index":92,"time_elapsed":242511,"internal_node_id":"0.0-92.0","response":"1st","certainty":"high","char":"A","transposition":-2,"order":["swapped","shifted"],"probe_pitches":[-2,3,9,5,3,0,6,4,2,-2,3,2],"shifted_pitches":[-2,3,9,5,3,0,7,4,2,-2,3,2],"swapped_pitches":[-2,3,9,5,3,6,0,4,2,-2,3,2],"shift_direction":1,"question_num":71,"has_decoy":false,"subject":"S1C1205","sona":"40727","block":1,"time":"2021-09-06T20:13:45.782Z"},{"rt":1538.1000000000931,"stimulus":"[A] option 1, [L] option 2, [G] neither","key_press":65,"name":"choice","trial_type":"html-keyboard-response","trial_index":103,"time_elapsed":263358,"internal_node_id":"0.0-103.0","response":"1st","certainty":"high","char":"A","transposition":-3,"order":["swapped","shifted"],"probe_pitches":[10,5,12,8,10,3,12,0,12,5,12,8],"shifted_pitches":[10,5,12,8,10,2,12,0,12,5,12,8],"swapped_pitches":[10,5,12,8,10,12,3,0,12,5,12,8],"shift_direction":-1,"question_num":81,"has_decoy":false,"subject":"S1C1205","sona":"40727","block":1,"time":"2021-09-06T20:13:45.782Z"},{"rt":1574.1000000000931,"stimulus":"[A] option 1, [L] option 2, [G] neither","key_press":65,"name":"choice","trial_type":"html-keyboard-response","trial_index":114,"time_elapsed":284883,"internal_node_id":"0.0-114.0","response":"1st","certainty":"high","char":"A","transposition":-2,"order":["swapped","shifted"],"probe_pitches":[12,7,2,5,12,5,2,0,5,12,9,7],"shifted_pitches":[12,7,2,5,12,6,2,0,5,12,9,7],"swapped_pitches":[12,7,2,5,12,2,5,0,5,12,9,7],"shift_direction":1,"question_num":91,"has_decoy":false,"subject":"S1C1205","sona":"40727","block":1,"time":"2021-09-06T20:13:45.782Z"},{"rt":2383.3000000002794,"stimulus":"[A] option 1, [L] option 2, [G] neither","key_press":76,"name":"choice","trial_type":"html-keyboard-response","trial_index":125,"time_elapsed":306433,"internal_node_id":"0.0-125.0","response":"2nd","certainty":"high","char":"L","transposition":-3,"order":["shifted","swapped"],"probe_pitches":[3,0,3,8,5,8,10,5,10,3,10,8],"shifted_pitches":[3,0,3,8,5,8,11,5,10,3,10,8],"swapped_pitches":[3,0,3,8,5,10,8,5,10,3,10,8],"shift_direction":1,"question_num":101,"has_decoy":false,"subject":"S1C1205","sona":"40727","block":1,"time":"2021-09-06T20:13:45.782Z"},{"rt":1641.6999999997206,"stimulus":"[A] option 1, [L] option 2, [G] neither","key_press":76,"name":"choice","trial_type":"html-keyboard-response","trial_index":136,"time_elapsed":328177,"internal_node_id":"0.0-136.0","response":"2nd","certainty":"high","char":"L","transposition":-1,"order":["shifted","swapped"],"probe_pitches":[9,5,2,9,7,12,9,0,7,0,2,5],"shifted_pitches":[9,5,2,9,7,12,10,0,7,0,2,5],"swapped_pitches":[9,5,2,9,7,9,12,0,7,0,2,5],"shift_direction":1,"question_num":111,"has_decoy":false,"subject":"S1C1205","sona":"40727","block":1,"time":"2021-09-06T20:13:45.782Z"},{"rt":1308,"stimulus":"[A] option 1, [L] option 2, [G] neither","key_press":76,"name":"choice","trial_type":"html-keyboard-response","trial_index":147,"time_elapsed":349743,"internal_node_id":"0.0-147.0","response":"2nd","certainty":"high","char":"L","transposition":-2,"order":["swapped","shifted"],"probe_pitches":[-2,3,5,1,-1,2,7,1,2,9,2,0],"shifted_pitches":[-2,3,5,1,-1,2,6,1,2,9,2,0],"swapped_pitches":[-2,3,5,1,-1,7,2,1,2,9,2,0],"shift_direction":-1,"question_num":121,"has_decoy":false,"subject":"S1C1205","sona":"40727","block":1,"time":"2021-09-06T20:13:45.782Z"},{"rt":3228.899999999907,"stimulus":"[A] option 1, [L] option 2, [G] neither","key_press":65,"name":"choice","trial_type":"html-keyboard-response","trial_index":158,"time_elapsed":372634,"internal_node_id":"0.0-158.0","response":"1st","certainty":"high","char":"A","transposition":0,"order":["shifted","swapped"],"probe_pitches":[2,5,2,5,0,7,2,10,12,10,0,12],"shifted_pitches":[2,5,2,5,0,7,1,10,12,10,0,12],"swapped_pitches":[2,5,2,5,0,2,7,10,12,10,0,12],"shift_direction":-1,"question_num":131,"has_decoy":false,"subject":"S1C1205","sona":"40727","block":1,"time":"2021-09-06T20:13:45.782Z"},{"rt":1624.6000000000931,"stimulus":"[A] option 1, [L] option 2, [G] neither","key_press":65,"name":"choice","trial_type":"html-keyboard-response","trial_index":169,"time_elapsed":394091,"internal_node_id":"0.0-169.0","response":"1st","certainty":"high","char":"A","transposition":3,"order":["shifted","swapped"],"probe_pitches":[4,7,9,7,2,7,12,9,12,7,9,12],"shifted_pitches":[4,7,9,7,2,7,13,9,12,7,9,12],"swapped_pitches":[4,7,9,7,2,12,7,9,12,7,9,12],"shift_direction":1,"question_num":141,"has_decoy":false,"subject":"S1C1205","sona":"40727","block":1,"time":"2021-09-06T20:13:45.782Z"},{"rt":516.7000000001863,"stimulus":"[A] option 1, [L] option 2, [G] neither","key_press":76,"name":"choice","trial_type":"html-keyboard-response","trial_index":180,"time_elapsed":413400,"internal_node_id":"0.0-180.0","response":"2nd","certainty":"high","char":"L","transposition":1,"order":["swapped","shifted"],"probe_pitches":[0,5,3,7,0,5,10,3,10,7,0,7],"shifted_pitches":[0,5,3,7,0,5,11,3,10,7,0,7],"swapped_pitches":[0,5,3,7,0,10,5,3,10,7,0,7],"shift_direction":1,"question_num":151,"has_decoy":false,"subject":"S1C1205","sona":"40727","block":1,"time":"2021-09-06T20:13:45.782Z"},{"rt":1780.5,"stimulus":"[A] option 1, [L] option 2, [G] neither","key_press":76,"name":"choice","trial_type":"html-keyboard-response","trial_index":191,"time_elapsed":440178,"internal_node_id":"0.0-191.0","response":"2nd","certainty":"high","char":"L","transposition":2,"order":["shifted","swapped"],"probe_pitches":[3,7,0,7,12,5,10,0,5,7,10,7],"shifted_pitches":[3,7,0,7,12,4,10,0,5,7,10,7],"swapped_pitches":[3,7,0,7,12,10,5,0,5,7,10,7],"shift_direction":-1,"question_num":161,"has_decoy":false,"subject":"S1C1205","sona":"40727","block":1,"time":"2021-09-06T20:13:45.782Z"},{"rt":3038.3000000002794,"stimulus":"[A] option 1, [L] option 2, [G] neither","key_press":76,"name":"choice","trial_type":"html-keyboard-response","trial_index":202,"time_elapsed":462631,"internal_node_id":"0.0-202.0","response":"2nd","certainty":"high","char":"L","transposition":-3,"order":["swapped","shifted"],"probe_pitches":[6,7,2,-2,-3,-2,3,0,5,8,-3,7],"shifted_pitches":[6,7,2,-2,-3,-2,4,0,5,8,-3,7],"swapped_pitches":[6,7,2,-2,-3,3,-2,0,5,8,-3,7],"shift_direction":1,"question_num":171,"has_decoy":false,"subject":"S1C1205","sona":"40727","block":1,"time":"2021-09-06T20:13:45.782Z"},{"rt":1246.5,"stimulus":"[A] option 1, [L] option 2, [G] neither","key_press":71,"name":"choice","trial_type":"html-keyboard-response","trial_index":213,"time_elapsed":482301,"internal_node_id":"0.0-213.0","response":"neither","certainty":"high","char":"G","transposition":0,"order":["swapped","shifted"],"probe_pitches":[0,6,5,0,9,1,8,6,-2,5,8,5],"shifted_pitches":[0,6,5,0,9,2,8,6,-2,5,8,5],"swapped_pitches":[0,6,5,0,9,8,1,6,-2,5,8,5],"shift_direction":1,"question_num":181,"has_decoy":false,"subject":"S1C1205","sona":"40727","block":1,"time":"2021-09-06T20:13:45.782Z"},{"rt":3218.2000000001863,"stimulus":"[A] option 1, [L] option 2, [G] neither","key_press":65,"name":"choice","trial_type":"html-keyboard-response","trial_index":224,"time_elapsed":505377,"internal_node_id":"0.0-224.0","response":"1st","certainty":"high","char":"A","transposition":-1,"order":["shifted","swapped"],"probe_pitches":[4,-1,-3,0,9,7,4,9,0,5,9,5],"shifted_pitches":[4,-1,-3,0,9,7,3,9,0,5,9,5],"swapped_pitches":[4,-1,-3,0,9,4,7,9,0,5,9,5],"shift_direction":-1,"question_num":191,"has_decoy":false,"subject":"S1C1205","sona":"40727","block":1,"time":"2021-09-06T20:13:45.782Z"}]