[{"rt":2878.699999999255,"stimulus":"[A] option 1, [L] option 2, [G] neither","key_press":76,"name":"choice","trial_type":"html-keyboard-response","trial_index":10,"time_elapsed":23947,"internal_node_id":"0.0-10.0","subject":"S1C1205","sona":"40727","block":3,"time":"2021-09-06T20:30:39.908Z","response":"2nd","certainty":"high","char":"L","transposition":-2,"order":["swapped","shifted"],"probe_pitches":[5,0,5,8,3,10,5,-2,5,10,5,3],"shifted_pitches":[5,0,5,8,3,11,5,-2,5,10,5,3],"swapped_pitches":[5,0,5,8,3,5,10,-2,5,10,5,3],"shift_direction":1,"question_num":1,"has_decoy":false},{"rt":1966.5999999996275,"stimulus":"[A] option 1, [L] option 2, [G] neither","key_press":65,"name":"choice","trial_type":"html-keyboard-response","trial_index":21,"time_elapsed":44379,"internal_node_id":"0.0-21.0","subject":"S1C1205","sona":"40727","block":3,"time":"2021-09-06T20:30:39.908Z","response":"1st","certainty":"high","char":"A","transposition":-2,"order":["shifted","swapped"],"probe_pitches":[3,5,-2,6,-1,8,2,10,5,1,0,7],"shifted_pitches":[3,5,-2,6,-1,9,2,10,5,1,0,7],"swapped_pitches":[3,5,-2,6,-1,2,8,10,5,1,0,7],"shift_direction":1,"question_num":11,"has_decoy":false},{"rt":1083.9000000003725,"stimulus":"[A] option 1, [L] option 2, [G] neither","key_press":65,"name":"choice","trial_type":"html-keyboard-response","trial_index":32,"time_elapsed":63997,"internal_node_id":"0.0-32.0","subject":"S1C1205","sona":"40727","block":3,"time":"2021-09-06T20:30:39.908Z","response":"1st","certainty":"high","char":"A","transposition":-3,"order":["shifted","swapped"],"probe_pitches":[10,5,10,2,7,5,0,2,7,2,5,0],"shifted_pitches":[10,5,10,2,7,5,1,2,7,2,5,0],"swapped_pitches":[10,5,10,2,7,0,5,2,7,2,5,0],"shift_direction":1,"question_num":21,"has_decoy":false},{"rt":2079.800000000745,"stimulus":"[A] option 1, [L] option 2, [G] neither","key_press":76,"name":"choice","trial_type":"html-keyboard-response","trial_index":43,"time_elapsed":84711,"internal_node_id":"0.0-43.0","subject":"S1C1205","sona":"40727","block":3,"time":"2021-09-06T20:30:39.908Z","response":"2nd","certainty":"high","char":"L","transposition":-1,"order":["shifted","swapped"],"probe_pitches":[7,6,10,2,3,8,1,-1,2,9,7,9],"shifted_pitches":[7,6,10,2,3,8,0,-1,2,9,7,9],"swapped_pitches":[7,6,10,2,3,1,8,-1,2,9,7,9],"shift_direction":-1,"question_num":31,"has_decoy":false},{"rt":1958.699999999255,"stimulus":"[A] option 1, [L] option 2, [G] neither","key_press":76,"name":"choice","trial_type":"html-keyboard-response","trial_index":54,"time_elapsed":105054,"internal_node_id":"0.0-54.0","subject":"S1C1205","sona":"40727","block":3,"time":"2021-09-06T20:30:39.908Z","response":"2nd","certainty":"high","char":"L","transposition":-2,"order":["swapped","shifted"],"probe_pitches":[-2,1,5,3,8,1,7,6,3,10,-1,4],"shifted_pitches":[-2,1,5,3,8,2,7,6,3,10,-1,4],"swapped_pitches":[-2,1,5,3,8,7,1,6,3,10,-1,4],"shift_direction":1,"question_num":41,"has_decoy":false},{"rt":2380,"stimulus":"[A] option 1, [L] option 2, [G] neither","key_press":71,"name":"choice","trial_type":"html-keyboard-response","trial_index":65,"time_elapsed":126766,"internal_node_id":"0.0-65.0","subject":"S1C1205","sona":"40727","block":3,"time":"2021-09-06T20:30:39.908Z","response":"neither","certainty":"high","char":"G","transposition":1,"order":["shifted","swapped"],"probe_pitches":[2,0,3,10,5,2,0,4,-1,0,6,9],"shifted_pitches":[2,0,3,10,5,1,0,4,-1,0,6,9],"swapped_pitches":[2,0,3,10,5,0,2,4,-1,0,6,9],"shift_direction":-1,"question_num":51,"has_decoy":false},{"rt":3639,"stimulus":"[A] option 1, [L] option 2, [G] neither","key_press":76,"name":"choice","trial_type":"html-keyboard-response","trial_index":76,"time_elapsed":148623,"internal_node_id":"0.0-76.0","subject":"S1C1205","sona":"40727","block":3,"time":"2021-09-06T20:30:39.908Z","response":"2nd","certainty":"high","char":"L","transposition":0,"order":["swapped","shifted"],"probe_pitches":[-1,-2,5,-2,4,-1,7,3,9,-1,5,10],"shifted_pitches":[-1,-2,5,-2,4,-1,6,3,9,-1,5,10],"swapped_pitches":[-1,-2,5,-2,4,7,-1,3,9,-1,5,10],"shift_direction":-1,"question_num":61,"has_decoy":false},{"rt":2183.5999999996275,"stimulus":"[A] option 1, [L] option 2, [G] neither","key_press":76,"name":"choice","trial_type":"html-keyboard-response","trial_index":87,"time_elapsed":168922,"internal_node_id":"0.0-87.0","subject":"S1C1205","sona":"40727","block":3,"time":"2021-09-06T20:30:39.908Z","response":"2nd","certainty":"high","char":"L","transposition":-1,"order":["swapped","shifted"],"probe_pitches":[-1,2,1,-2,4,2,6,9,5,4,1,4],"shifted_pitches":[-1,2,1,-2,4,3,6,9,5,4,1,4],"swapped_pitches":[-1,2,1,-2,4,6,2,9,5,4,1,4],"shift_direction":1,"question_num":71,"has_decoy":false},{"rt":751.7000000001863,"stimulus":"[A] option 1, [L] option 2, [G] neither","key_press":76,"name":"choice","trial_type":"html-keyboard-response","trial_index":98,"time_elapsed":187933,"internal_node_id":"0.0-98.0","subject":"S1C1205","sona":"40727","block":3,"time":"2021-09-06T20:30:39.908Z","response":"2nd","certainty":"high","char":"L","transposition":2,"order":["swapped","shifted"],"probe_pitches":[7,10,5,10,3,7,10,-2,3,-2,7,0],"shifted_pitches":[7,10,5,10,3,7,11,-2,3,-2,7,0],"swapped_pitches":[7,10,5,10,3,10,7,-2,3,-2,7,0],"shift_direction":1,"question_num":81,"has_decoy":false},{"rt":7040.0999999996275,"stimulus":"[A] option 1, [L] option 2, [G] neither","key_press":76,"name":"choice","trial_type":"html-keyboard-response","trial_index":109,"time_elapsed":215807,"internal_node_id":"0.0-109.0","subject":"S1C1205","sona":"40727","block":3,"time":"2021-09-06T20:30:39.908Z","response":"2nd","certainty":"high","char":"L","transposition":-1,"order":["shifted","swapped"],"probe_pitches":[2,5,-2,0,2,0,10,5,2,7,-2,2],"shifted_pitches":[2,5,-2,0,2,0,9,5,2,7,-2,2],"swapped_pitches":[2,5,-2,0,2,10,0,5,2,7,-2,2],"shift_direction":-1,"question_num":91,"has_decoy":false},{"rt":2155.9000000003725,"stimulus":"[A] option 1, [L] option 2, [G] neither","key_press":71,"name":"choice","trial_type":"html-keyboard-response","trial_index":120,"time_elapsed":236853,"internal_node_id":"0.0-120.0","subject":"S1C1205","sona":"40727","block":3,"time":"2021-09-06T20:30:39.908Z","response":"neither","certainty":"high","char":"G","transposition":-3,"order":["shifted","swapped"],"probe_pitches":[-2,0,3,-2,5,0,8,3,-2,3,0,3],"shifted_pitches":[-2,0,3,-2,5,1,8,3,-2,3,0,3],"swapped_pitches":[-2,0,3,-2,5,8,0,3,-2,3,0,3],"shift_direction":1,"question_num":101,"has_decoy":false},{"rt":1812,"stimulus":"[A] option 1, [L] option 2, [G] neither","key_press":76,"name":"choice","trial_type":"html-keyboard-response","trial_index":131,"time_elapsed":256706,"internal_node_id":"0.0-131.0","subject":"S1C1205","sona":"40727","block":3,"time":"2021-09-06T20:30:39.908Z","response":"2nd","certainty":"high","char":"L","transposition":2,"order":["swapped","shifted"],"probe_pitches":[2,5,9,6,3,6,7,-1,9,3,1,6],"shifted_pitches":[2,5,9,6,3,6,8,-1,9,3,1,6],"swapped_pitches":[2,5,9,6,3,7,6,-1,9,3,1,6],"shift_direction":1,"question_num":111,"has_decoy":false},{"rt":1124.4000000003725,"stimulus":"[A] option 1, [L] option 2, [G] neither","key_press":76,"name":"choice","trial_type":"html-keyboard-response","trial_index":142,"time_elapsed":276456,"internal_node_id":"0.0-142.0","subject":"S1C1205","sona":"40727","block":3,"time":"2021-09-06T20:30:39.908Z","response":"2nd","certainty":"high","char":"L","transposition":1,"order":["swapped","shifted"],"probe_pitches":[10,6,8,10,3,1,10,8,6,10,6,3],"shifted_pitches":[10,6,8,10,3,1,9,8,6,10,6,3],"swapped_pitches":[10,6,8,10,3,10,1,8,6,10,6,3],"shift_direction":-1,"question_num":121,"has_decoy":false},{"rt":2102.4000000003725,"stimulus":"[A] option 1, [L] option 2, [G] neither","key_press":76,"name":"choice","trial_type":"html-keyboard-response","trial_index":153,"time_elapsed":298149,"internal_node_id":"0.0-153.0","subject":"S1C1205","sona":"40727","block":3,"time":"2021-09-06T20:30:39.908Z","response":"2nd","certainty":"high","char":"L","transposition":-2,"order":["swapped","shifted"],"probe_pitches":[10,7,0,5,-2,5,0,3,0,10,0,5],"shifted_pitches":[10,7,0,5,-2,4,0,3,0,10,0,5],"swapped_pitches":[10,7,0,5,-2,0,5,3,0,10,0,5],"shift_direction":-1,"question_num":131,"has_decoy":false},{"rt":3974.600000000559,"stimulus":"[A] option 1, [L] option 2, [G] neither","key_press":65,"name":"choice","trial_type":"html-keyboard-response","trial_index":164,"time_elapsed":323637,"internal_node_id":"0.0-164.0","subject":"S1C1205","sona":"40727","block":3,"time":"2021-09-06T20:30:39.908Z","response":"1st","certainty":"high","char":"A","transposition":3,"order":["swapped","shifted"],"probe_pitches":[-1,-2,3,5,10,3,9,10,1,8,-2,6],"shifted_pitches":[-1,-2,3,5,10,4,9,10,1,8,-2,6],"swapped_pitches":[-1,-2,3,5,10,9,3,10,1,8,-2,6],"shift_direction":1,"question_num":141,"has_decoy":false},{"rt":2661.199999999255,"stimulus":"[A] option 1, [L] option 2, [G] neither","key_press":76,"name":"choice","trial_type":"html-keyboard-response","trial_index":175,"time_elapsed":344516,"internal_node_id":"0.0-175.0","subject":"S1C1205","sona":"40727","block":3,"time":"2021-09-06T20:30:39.908Z","response":"2nd","certainty":"high","char":"L","transposition":0,"order":["swapped","shifted"],"probe_pitches":[10,8,1,5,8,5,10,8,3,5,10,-2],"shifted_pitches":[10,8,1,5,8,4,10,8,3,5,10,-2],"swapped_pitches":[10,8,1,5,8,10,5,8,3,5,10,-2],"shift_direction":-1,"question_num":151,"has_decoy":false},{"rt":775.2000000001863,"stimulus":"[A] option 1, [L] option 2, [G] neither","key_press":76,"name":"choice","trial_type":"html-keyboard-response","trial_index":186,"time_elapsed":363889,"internal_node_id":"0.0-186.0","subject":"S1C1205","sona":"40727","block":3,"time":"2021-09-06T20:30:39.908Z","response":"2nd","certainty":"high","char":"L","transposition":3,"order":["shifted","swapped"],"probe_pitches":[8,5,10,8,1,5,3,8,10,3,-2,1],"shifted_pitches":[8,5,10,8,1,4,3,8,10,3,-2,1],"swapped_pitches":[8,5,10,8,1,3,5,8,10,3,-2,1],"shift_direction":-1,"question_num":161,"has_decoy":false},{"rt":1804.7000000001863,"stimulus":"[A] option 1, [L] option 2, [G] neither","key_press":65,"name":"choice","trial_type":"html-keyboard-response","trial_index":197,"time_elapsed":383836,"internal_node_id":"0.0-197.0","subject":"S1C1205","sona":"40727","block":3,"time":"2021-09-06T20:30:39.908Z","response":"1st","certainty":"high","char":"A","transposition":-3,"order":["shifted","swapped"],"probe_pitches":[9,10,4,1,-2,8,6,-1,8,-1,-2,9],"shifted_pitches":[9,10,4,1,-2,8,5,-1,8,-1,-2,9],"swapped_pitches":[9,10,4,1,-2,6,8,-1,8,-1,-2,9],"shift_direction":-1,"question_num":171,"has_decoy":false},{"rt":1322.2999999998137,"stimulus":"[A] option 1, [L] option 2, [G] neither","key_press":71,"name":"choice","trial_type":"html-keyboard-response","trial_index":208,"time_elapsed":405812,"internal_node_id":"0.0-208.0","subject":"S1C1205","sona":"40727","block":3,"time":"2021-09-06T20:30:39.908Z","response":"neither","certainty":"high","char":"G","transposition":-1,"order":["shifted","swapped"],"probe_pitches":[8,3,1,6,-2,3,6,10,8,3,8,6],"shifted_pitches":[8,3,1,6,-2,3,7,10,8,3,8,6],"swapped_pitches":[8,3,1,6,-2,6,3,10,8,3,8,6],"shift_direction":1,"question_num":181,"has_decoy":false},{"rt":7867.0999999996275,"stimulus":"[A] option 1, [L] option 2, [G] neither","key_press":71,"name":"choice","trial_type":"html-keyboard-response","trial_index":219,"time_elapsed":432368,"internal_node_id":"0.0-219.0","subject":"S1C1205","sona":"40727","block":3,"time":"2021-09-06T20:30:39.908Z","response":"neither","certainty":"high","char":"G","transposition":-3,"order":["shifted","swapped"],"probe_pitches":[4,1,-1,-2,6,5,8,-1,5,10,5,8],"shifted_pitches":[4,1,-1,-2,6,5,7,-1,5,10,5,8],"swapped_pitches":[4,1,-1,-2,6,8,5,-1,5,10,5,8],"shift_direction":-1,"question_num":191,"has_decoy":false}]