[{"rt":2020.1000001430511,"stimulus":"[A] option 1, [L] option 2, [G] neither","key_press":65,"name":"choice","trial_type":"html-keyboard-response","trial_index":10,"time_elapsed":17100,"internal_node_id":"0.0-10.0","subject":"S1C0810","sona":"41444","block":5,"time":"2021-09-15T15:32:33.408Z","response":"1st","certainty":"high","char":"A","transposition":-2,"order":["swapped","shifted"],"probe_pitches":[8,5,10,5,3,1,10,13],"shifted_pitches":[8,5,10,5,2,1,10,13],"swapped_pitches":[8,5,10,3,5,1,10,13],"shift_direction":-1,"question_num":1,"has_decoy":false},{"rt":2391.300000190735,"stimulus":"[A] option 1, [L] option 2, [G] neither","key_press":76,"name":"choice","trial_type":"html-keyboard-response","trial_index":21,"time_elapsed":34061,"internal_node_id":"0.0-21.0","subject":"S1C0810","sona":"41444","block":5,"time":"2021-09-15T15:32:33.408Z","response":"2nd","certainty":"high","char":"L","transposition":3,"order":["swapped","shifted"],"probe_pitches":[3,8,6,1,3,13,11,8],"shifted_pitches":[3,8,6,2,3,13,11,8],"swapped_pitches":[3,8,6,3,1,13,11,8],"shift_direction":1,"question_num":11,"has_decoy":false},{"rt":255.40000009536743,"stimulus":"[A] option 1, [L] option 2, [G] neither","key_press":76,"name":"choice","trial_type":"html-keyboard-response","trial_index":32,"time_elapsed":49905,"internal_node_id":"0.0-32.0","subject":"S1C0810","sona":"41444","block":5,"time":"2021-09-15T15:32:33.408Z","response":"2nd","certainty":"high","char":"L","transposition":2,"order":["swapped","shifted"],"probe_pitches":[5,3,10,2,5,12,10,9],"shifted_pitches":[5,3,10,1,5,12,10,9],"swapped_pitches":[5,3,10,5,2,12,10,9],"shift_direction":-1,"question_num":21,"has_decoy":false},{"rt":719,"stimulus":"[A] option 1, [L] option 2, [G] neither","key_press":65,"name":"choice","trial_type":"html-keyboard-response","trial_index":43,"time_elapsed":65659,"internal_node_id":"0.0-43.0","subject":"S1C0810","sona":"41444","block":5,"time":"2021-09-15T15:32:33.408Z","response":"1st","certainty":"high","char":"A","transposition":-1,"order":["swapped","shifted"],"probe_pitches":[5,7,14,11,9,5,2,10],"shifted_pitches":[5,7,14,11,8,5,2,10],"swapped_pitches":[5,7,14,9,11,5,2,10],"shift_direction":-1,"question_num":31,"has_decoy":false},{"rt":91.79999995231628,"stimulus":"[A] option 1, [L] option 2, [G] neither","key_press":76,"name":"choice","trial_type":"html-keyboard-response","trial_index":54,"time_elapsed":80262,"internal_node_id":"0.0-54.0","subject":"S1C0810","sona":"41444","block":5,"time":"2021-09-15T15:32:33.408Z","response":"2nd","certainty":"high","char":"L","transposition":0,"order":["shifted","swapped"],"probe_pitches":[8,4,5,4,13,6,10,8],"shifted_pitches":[8,4,5,4,12,6,10,8],"swapped_pitches":[8,4,5,13,4,6,10,8],"shift_direction":-1,"question_num":41,"has_decoy":false},{"rt":524.5,"stimulus":"[A] option 1, [L] option 2, [G] neither","key_press":76,"name":"choice","trial_type":"html-keyboard-response","trial_index":65,"time_elapsed":95194,"internal_node_id":"0.0-65.0","subject":"S1C0810","sona":"41444","block":5,"time":"2021-09-15T15:32:33.408Z","response":"2nd","certainty":"high","char":"L","transposition":-2,"order":["shifted","swapped"],"probe_pitches":[8,5,10,6,3,11,14,2],"shifted_pitches":[8,5,10,6,4,11,14,2],"swapped_pitches":[8,5,10,3,6,11,14,2],"shift_direction":1,"question_num":51,"has_decoy":false},{"rt":2607.0999999046326,"stimulus":"[A] option 1, [L] option 2, [G] neither","key_press":65,"name":"choice","trial_type":"html-keyboard-response","trial_index":76,"time_elapsed":112327,"internal_node_id":"0.0-76.0","subject":"S1C0810","sona":"41444","block":5,"time":"2021-09-15T15:32:33.408Z","response":"1st","certainty":"high","char":"A","transposition":-1,"order":["swapped","shifted"],"probe_pitches":[3,1,8,6,13,10,1,13],"shifted_pitches":[3,1,8,5,13,10,1,13],"swapped_pitches":[3,1,8,13,6,10,1,13],"shift_direction":-1,"question_num":61,"has_decoy":false},{"rt":114.40000009536743,"stimulus":"[A] option 1, [L] option 2, [G] neither","key_press":76,"name":"choice","trial_type":"html-keyboard-response","trial_index":87,"time_elapsed":126884,"internal_node_id":"0.0-87.0","subject":"S1C0810","sona":"41444","block":5,"time":"2021-09-15T15:32:33.408Z","response":"2nd","certainty":"high","char":"L","transposition":-2,"order":["shifted","swapped"],"probe_pitches":[12,9,2,4,12,11,9,7],"shifted_pitches":[12,9,2,5,12,11,9,7],"swapped_pitches":[12,9,2,12,4,11,9,7],"shift_direction":1,"question_num":71,"has_decoy":false},{"rt":15949.100000143051,"stimulus":"[A] option 1, [L] option 2, [G] neither","key_press":76,"name":"choice","trial_type":"html-keyboard-response","trial_index":98,"time_elapsed":157159,"internal_node_id":"0.0-98.0","subject":"S1C0810","sona":"41444","block":5,"time":"2021-09-15T15:32:33.408Z","response":"2nd","certainty":"high","char":"L","transposition":-1,"order":["shifted","swapped"],"probe_pitches":[8,4,6,8,1,6,4,11],"shifted_pitches":[8,4,6,8,0,6,4,11],"swapped_pitches":[8,4,6,1,8,6,4,11],"shift_direction":-1,"question_num":81,"has_decoy":false},{"rt":281.5,"stimulus":"[A] option 1, [L] option 2, [G] neither","key_press":65,"name":"choice","trial_type":"html-keyboard-response","trial_index":109,"time_elapsed":172381,"internal_node_id":"0.0-109.0","subject":"S1C0810","sona":"41444","block":5,"time":"2021-09-15T15:32:33.408Z","response":"1st","certainty":"high","char":"A","transposition":3,"order":["swapped","shifted"],"probe_pitches":[10,12,10,7,2,5,3,8],"shifted_pitches":[10,12,10,6,2,5,3,8],"swapped_pitches":[10,12,10,2,7,5,3,8],"shift_direction":-1,"question_num":91,"has_decoy":false},{"rt":1151.2000000476837,"stimulus":"[A] option 1, [L] option 2, [G] neither","key_press":65,"name":"choice","trial_type":"html-keyboard-response","trial_index":120,"time_elapsed":187942,"internal_node_id":"0.0-120.0","subject":"S1C0810","sona":"41444","block":5,"time":"2021-09-15T15:32:33.408Z","response":"1st","certainty":"high","char":"A","transposition":-3,"order":["shifted","swapped"],"probe_pitches":[11,8,6,3,1,6,11,6],"shifted_pitches":[11,8,6,3,0,6,11,6],"swapped_pitches":[11,8,6,1,3,6,11,6],"shift_direction":-1,"question_num":101,"has_decoy":false},{"rt":249.70000004768372,"stimulus":"[A] option 1, [L] option 2, [G] neither","key_press":76,"name":"choice","trial_type":"html-keyboard-response","trial_index":131,"time_elapsed":202600,"internal_node_id":"0.0-131.0","subject":"S1C0810","sona":"41444","block":5,"time":"2021-09-15T15:32:33.408Z","response":"2nd","certainty":"high","char":"L","transposition":-3,"order":["swapped","shifted"],"probe_pitches":[10,8,3,8,4,6,8,12],"shifted_pitches":[10,8,3,9,4,6,8,12],"swapped_pitches":[10,8,3,4,8,6,8,12],"shift_direction":1,"question_num":111,"has_decoy":false},{"rt":234.89999985694885,"stimulus":"[A] option 1, [L] option 2, [G] neither","key_press":65,"name":"choice","trial_type":"html-keyboard-response","trial_index":142,"time_elapsed":217495,"internal_node_id":"0.0-142.0","subject":"S1C0810","sona":"41444","block":5,"time":"2021-09-15T15:32:33.408Z","response":"1st","certainty":"high","char":"A","transposition":2,"order":["swapped","shifted"],"probe_pitches":[4,6,13,8,1,11,6,11],"shifted_pitches":[4,6,13,9,1,11,6,11],"swapped_pitches":[4,6,13,1,8,11,6,11],"shift_direction":1,"question_num":121,"has_decoy":false},{"rt":1073.2000000476837,"stimulus":"[A] option 1, [L] option 2, [G] neither","key_press":76,"name":"choice","trial_type":"html-keyboard-response","trial_index":153,"time_elapsed":232933,"internal_node_id":"0.0-153.0","subject":"S1C0810","sona":"41444","block":5,"time":"2021-09-15T15:32:33.408Z","response":"2nd","certainty":"high","char":"L","transposition":-3,"order":["shifted","swapped"],"probe_pitches":[13,11,14,8,6,4,14,6],"shifted_pitches":[13,11,14,8,7,4,14,6],"swapped_pitches":[13,11,14,6,8,4,14,6],"shift_direction":1,"question_num":131,"has_decoy":false},{"rt":423,"stimulus":"[A] option 1, [L] option 2, [G] neither","key_press":76,"name":"choice","trial_type":"html-keyboard-response","trial_index":164,"time_elapsed":247683,"internal_node_id":"0.0-164.0","subject":"S1C0810","sona":"41444","block":5,"time":"2021-09-15T15:32:33.408Z","response":"2nd","certainty":"high","char":"L","transposition":-2,"order":["shifted","swapped"],"probe_pitches":[3,5,8,13,5,3,8,10],"shifted_pitches":[3,5,8,14,5,3,8,10],"swapped_pitches":[3,5,8,5,13,3,8,10],"shift_direction":1,"question_num":141,"has_decoy":false},{"rt":924.7000000476837,"stimulus":"[A] option 1, [L] option 2, [G] neither","key_press":76,"name":"choice","trial_type":"html-keyboard-response","trial_index":175,"time_elapsed":263044,"internal_node_id":"0.0-175.0","subject":"S1C0810","sona":"41444","block":5,"time":"2021-09-15T15:32:33.408Z","response":"2nd","certainty":"high","char":"L","transposition":-3,"order":["shifted","swapped"],"probe_pitches":[8,3,10,13,6,8,10,6],"shifted_pitches":[8,3,10,13,7,8,10,6],"swapped_pitches":[8,3,10,6,13,8,10,6],"shift_direction":1,"question_num":151,"has_decoy":false},{"rt":491.2000000476837,"stimulus":"[A] option 1, [L] option 2, [G] neither","key_press":76,"name":"choice","trial_type":"html-keyboard-response","trial_index":186,"time_elapsed":278261,"internal_node_id":"0.0-186.0","subject":"S1C0810","sona":"41444","block":5,"time":"2021-09-15T15:32:33.408Z","response":"2nd","certainty":"high","char":"L","transposition":0,"order":["shifted","swapped"],"probe_pitches":[1,4,9,13,6,1,4,11],"shifted_pitches":[1,4,9,13,7,1,4,11],"swapped_pitches":[1,4,9,6,13,1,4,11],"shift_direction":1,"question_num":161,"has_decoy":false},{"rt":3373.100000143051,"stimulus":"[A] option 1, [L] option 2, [G] neither","key_press":65,"name":"choice","trial_type":"html-keyboard-response","trial_index":197,"time_elapsed":296072,"internal_node_id":"0.0-197.0","subject":"S1C0810","sona":"41444","block":5,"time":"2021-09-15T15:32:33.408Z","response":"1st","certainty":"high","char":"A","transposition":1,"order":["swapped","shifted"],"probe_pitches":[9,4,1,6,11,13,4,1],"shifted_pitches":[9,4,1,5,11,13,4,1],"swapped_pitches":[9,4,1,11,6,13,4,1],"shift_direction":-1,"question_num":171,"has_decoy":false},{"rt":611.1999998092651,"stimulus":"[A] option 1, [L] option 2, [G] neither","key_press":76,"name":"choice","trial_type":"html-keyboard-response","trial_index":208,"time_elapsed":311081,"internal_node_id":"0.0-208.0","subject":"S1C0810","sona":"41444","block":5,"time":"2021-09-15T15:32:33.408Z","response":"2nd","certainty":"high","char":"L","transposition":1,"order":["swapped","shifted"],"probe_pitches":[12,8,4,10,12,9,12,7],"shifted_pitches":[12,8,4,10,11,9,12,7],"swapped_pitches":[12,8,4,12,10,9,12,7],"shift_direction":-1,"question_num":181,"has_decoy":false},{"rt":448.40000009536743,"stimulus":"[A] option 1, [L] option 2, [G] neither","key_press":65,"name":"choice","trial_type":"html-keyboard-response","trial_index":219,"time_elapsed":326008,"internal_node_id":"0.0-219.0","subject":"S1C0810","sona":"41444","block":5,"time":"2021-09-15T15:32:33.408Z","response":"1st","certainty":"high","char":"A","transposition":-1,"order":["shifted","swapped"],"probe_pitches":[14,9,13,9,12,8,3,14],"shifted_pitches":[14,9,13,10,12,8,3,14],"swapped_pitches":[14,9,13,12,9,8,3,14],"shift_direction":1,"question_num":191,"has_decoy":false}]