[{"rt":9327.299999952316,"stimulus":"[A] option 1, [L] option 2, [G] neither","key_press":76,"name":"choice","trial_type":"html-keyboard-response","trial_index":15,"time_elapsed":62972,"internal_node_id":"0.0-15.0","response":"2nd","certainty":"high","char":"L","transposition":3,"order":["shifted","swapped"],"probe_pitches":[5,9,5,11,4,9,4,15],"shifted_pitches":[5,9,5,10,4,9,4,15],"swapped_pitches":[5,9,5,4,11,9,4,15],"shift_direction":-1,"question_num":1,"has_decoy":false,"subject":"S1C0810","sona":"41444","block":1,"time":"2021-09-15T15:08:55.887Z"},{"rt":6439.700000047684,"stimulus":"[A] option 1, [L] option 2, [G] neither","key_press":76,"name":"choice","trial_type":"html-keyboard-response","trial_index":26,"time_elapsed":85704,"internal_node_id":"0.0-26.0","response":"2nd","certainty":"high","char":"L","transposition":-2,"order":["shifted","swapped"],"probe_pitches":[7,12,11,4,9,11,4,13],"shifted_pitches":[7,12,11,5,9,11,4,13],"swapped_pitches":[7,12,11,9,4,11,4,13],"shift_direction":1,"question_num":11,"has_decoy":false,"subject":"S1C0810","sona":"41444","block":1,"time":"2021-09-15T15:08:55.887Z"},{"rt":955,"stimulus":"[A] option 1, [L] option 2, [G] neither","key_press":65,"name":"choice","trial_type":"html-keyboard-response","trial_index":37,"time_elapsed":102288,"internal_node_id":"0.0-37.0","response":"1st","certainty":"high","char":"A","transposition":-3,"order":["swapped","shifted"],"probe_pitches":[13,14,15,14,7,10,12,9],"shifted_pitches":[13,14,15,14,8,10,12,9],"swapped_pitches":[13,14,15,7,14,10,12,9],"shift_direction":1,"question_num":21,"has_decoy":false,"subject":"S1C0810","sona":"41444","block":1,"time":"2021-09-15T15:08:55.887Z"},{"rt":796.5999999046326,"stimulus":"[A] option 1, [L] option 2, [G] neither","key_press":76,"name":"choice","trial_type":"html-keyboard-response","trial_index":48,"time_elapsed":118340,"internal_node_id":"0.0-48.0","response":"2nd","certainty":"high","char":"L","transposition":-2,"order":["shifted","swapped"],"probe_pitches":[8,10,13,15,6,8,10,13],"shifted_pitches":[8,10,13,15,7,8,10,13],"swapped_pitches":[8,10,13,6,15,8,10,13],"shift_direction":1,"question_num":31,"has_decoy":false,"subject":"S1C0810","sona":"41444","block":1,"time":"2021-09-15T15:08:55.887Z"},{"rt":491.2000000476837,"stimulus":"[A] option 1, [L] option 2, [G] neither","key_press":76,"name":"choice","trial_type":"html-keyboard-response","trial_index":59,"time_elapsed":134054,"internal_node_id":"0.0-59.0","response":"2nd","certainty":"high","char":"L","transposition":-2,"order":["shifted","swapped"],"probe_pitches":[8,6,4,6,12,14,15,6],"shifted_pitches":[8,6,4,7,12,14,15,6],"swapped_pitches":[8,6,4,12,6,14,15,6],"shift_direction":1,"question_num":41,"has_decoy":false,"subject":"S1C0810","sona":"41444","block":1,"time":"2021-09-15T15:08:55.887Z"},{"rt":1966.2999999523163,"stimulus":"[A] option 1, [L] option 2, [G] neither","key_press":65,"name":"choice","trial_type":"html-keyboard-response","trial_index":70,"time_elapsed":151121,"internal_node_id":"0.0-70.0","response":"1st","certainty":"high","char":"A","transposition":-3,"order":["swapped","shifted"],"probe_pitches":[15,10,5,12,8,5,15,12],"shifted_pitches":[15,10,5,13,8,5,15,12],"swapped_pitches":[15,10,5,8,12,5,15,12],"shift_direction":1,"question_num":51,"has_decoy":false,"subject":"S1C0810","sona":"41444","block":1,"time":"2021-09-15T15:08:55.887Z"},{"rt":3361.100000143051,"stimulus":"[A] option 1, [L] option 2, [G] neither","key_press":76,"name":"choice","trial_type":"html-keyboard-response","trial_index":81,"time_elapsed":169724,"internal_node_id":"0.0-81.0","response":"2nd","certainty":"high","char":"L","transposition":1,"order":["swapped","shifted"],"probe_pitches":[3,5,9,11,12,10,15,3],"shifted_pitches":[3,5,9,11,13,10,15,3],"swapped_pitches":[3,5,9,12,11,10,15,3],"shift_direction":1,"question_num":61,"has_decoy":false,"subject":"S1C0810","sona":"41444","block":1,"time":"2021-09-15T15:08:55.887Z"},{"rt":389.60000014305115,"stimulus":"[A] option 1, [L] option 2, [G] neither","key_press":76,"name":"choice","trial_type":"html-keyboard-response","trial_index":92,"time_elapsed":185492,"internal_node_id":"0.0-92.0","response":"2nd","certainty":"high","char":"L","transposition":-1,"order":["shifted","swapped"],"probe_pitches":[15,11,6,11,3,13,8,6],"shifted_pitches":[15,11,6,11,2,13,8,6],"swapped_pitches":[15,11,6,3,11,13,8,6],"shift_direction":-1,"question_num":71,"has_decoy":false,"subject":"S1C0810","sona":"41444","block":1,"time":"2021-09-15T15:08:55.887Z"},{"rt":5766.099999904633,"stimulus":"[A] option 1, [L] option 2, [G] neither","key_press":76,"name":"choice","trial_type":"html-keyboard-response","trial_index":103,"time_elapsed":206749,"internal_node_id":"0.0-103.0","response":"2nd","certainty":"high","char":"L","transposition":3,"order":["shifted","swapped"],"probe_pitches":[13,8,15,10,13,15,5,10],"shifted_pitches":[13,8,15,11,13,15,5,10],"swapped_pitches":[13,8,15,13,10,15,5,10],"shift_direction":1,"question_num":81,"has_decoy":false,"subject":"S1C0810","sona":"41444","block":1,"time":"2021-09-15T15:08:55.887Z"},{"rt":1007.7999999523163,"stimulus":"[A] option 1, [L] option 2, [G] neither","key_press":65,"name":"choice","trial_type":"html-keyboard-response","trial_index":114,"time_elapsed":223220,"internal_node_id":"0.0-114.0","response":"1st","certainty":"high","char":"A","transposition":2,"order":["swapped","shifted"],"probe_pitches":[15,12,10,5,3,7,3,15],"shifted_pitches":[15,12,10,4,3,7,3,15],"swapped_pitches":[15,12,10,3,5,7,3,15],"shift_direction":-1,"question_num":91,"has_decoy":false,"subject":"S1C0810","sona":"41444","block":1,"time":"2021-09-15T15:08:55.887Z"},{"rt":1274,"stimulus":"[A] option 1, [L] option 2, [G] neither","key_press":65,"name":"choice","trial_type":"html-keyboard-response","trial_index":125,"time_elapsed":240007,"internal_node_id":"0.0-125.0","response":"1st","certainty":"high","char":"A","transposition":-2,"order":["swapped","shifted"],"probe_pitches":[3,6,10,6,13,8,10,15],"shifted_pitches":[3,6,10,5,13,8,10,15],"swapped_pitches":[3,6,10,13,6,8,10,15],"shift_direction":-1,"question_num":101,"has_decoy":false,"subject":"S1C0810","sona":"41444","block":1,"time":"2021-09-15T15:08:55.887Z"},{"rt":5114.899999856949,"stimulus":"[A] option 1, [L] option 2, [G] neither","key_press":71,"name":"choice","trial_type":"html-keyboard-response","trial_index":136,"time_elapsed":260378,"internal_node_id":"0.0-136.0","response":"neither","certainty":"high","char":"G","transposition":2,"order":["swapped","shifted"],"probe_pitches":[12,6,7,9,12,7,5,7],"shifted_pitches":[12,6,7,9,11,7,5,7],"swapped_pitches":[12,6,7,12,9,7,5,7],"shift_direction":-1,"question_num":111,"has_decoy":false,"subject":"S1C0810","sona":"41444","block":1,"time":"2021-09-15T15:08:55.887Z"},{"rt":519.2000000476837,"stimulus":"[A] option 1, [L] option 2, [G] neither","key_press":76,"name":"choice","trial_type":"html-keyboard-response","trial_index":147,"time_elapsed":276232,"internal_node_id":"0.0-147.0","response":"2nd","certainty":"high","char":"L","transposition":-1,"order":["swapped","shifted"],"probe_pitches":[15,11,6,3,7,4,5,3],"shifted_pitches":[15,11,6,2,7,4,5,3],"swapped_pitches":[15,11,6,7,3,4,5,3],"shift_direction":-1,"question_num":121,"has_decoy":false,"subject":"S1C0810","sona":"41444","block":1,"time":"2021-09-15T15:08:55.887Z"},{"rt":395.10000014305115,"stimulus":"[A] option 1, [L] option 2, [G] neither","key_press":76,"name":"choice","trial_type":"html-keyboard-response","trial_index":158,"time_elapsed":292228,"internal_node_id":"0.0-158.0","response":"2nd","certainty":"high","char":"L","transposition":1,"order":["swapped","shifted"],"probe_pitches":[3,5,7,10,15,7,12,7],"shifted_pitches":[3,5,7,10,14,7,12,7],"swapped_pitches":[3,5,7,15,10,7,12,7],"shift_direction":-1,"question_num":131,"has_decoy":false,"subject":"S1C0810","sona":"41444","block":1,"time":"2021-09-15T15:08:55.887Z"},{"rt":740.4000000953674,"stimulus":"[A] option 1, [L] option 2, [G] neither","key_press":65,"name":"choice","trial_type":"html-keyboard-response","trial_index":169,"time_elapsed":307703,"internal_node_id":"0.0-169.0","response":"1st","certainty":"high","char":"A","transposition":-1,"order":["swapped","shifted"],"probe_pitches":[8,12,5,10,12,15,10,5],"shifted_pitches":[8,12,5,10,13,15,10,5],"swapped_pitches":[8,12,5,12,10,15,10,5],"shift_direction":1,"question_num":141,"has_decoy":false,"subject":"S1C0810","sona":"41444","block":1,"time":"2021-09-15T15:08:55.887Z"},{"rt":3530.5,"stimulus":"[A] option 1, [L] option 2, [G] neither","key_press":76,"name":"choice","trial_type":"html-keyboard-response","trial_index":180,"time_elapsed":327302,"internal_node_id":"0.0-180.0","response":"2nd","certainty":"high","char":"L","transposition":0,"order":["shifted","swapped"],"probe_pitches":[11,15,8,13,11,3,13,6],"shifted_pitches":[11,15,8,12,11,3,13,6],"swapped_pitches":[11,15,8,11,13,3,13,6],"shift_direction":-1,"question_num":151,"has_decoy":false,"subject":"S1C0810","sona":"41444","block":1,"time":"2021-09-15T15:08:55.887Z"},{"rt":359.5,"stimulus":"[A] option 1, [L] option 2, [G] neither","key_press":76,"name":"choice","trial_type":"html-keyboard-response","trial_index":191,"time_elapsed":342892,"internal_node_id":"0.0-191.0","response":"2nd","certainty":"high","char":"L","transposition":0,"order":["shifted","swapped"],"probe_pitches":[5,10,6,8,14,10,12,3],"shifted_pitches":[5,10,6,9,14,10,12,3],"swapped_pitches":[5,10,6,14,8,10,12,3],"shift_direction":1,"question_num":161,"has_decoy":false,"subject":"S1C0810","sona":"41444","block":1,"time":"2021-09-15T15:08:55.887Z"},{"rt":985.2000000476837,"stimulus":"[A] option 1, [L] option 2, [G] neither","key_press":65,"name":"choice","trial_type":"html-keyboard-response","trial_index":202,"time_elapsed":358997,"internal_node_id":"0.0-202.0","response":"1st","certainty":"high","char":"A","transposition":-3,"order":["shifted","swapped"],"probe_pitches":[10,8,5,13,15,8,5,15],"shifted_pitches":[10,8,5,13,16,8,5,15],"swapped_pitches":[10,8,5,15,13,8,5,15],"shift_direction":1,"question_num":171,"has_decoy":false,"subject":"S1C0810","sona":"41444","block":1,"time":"2021-09-15T15:08:55.887Z"},{"rt":1155.9000000953674,"stimulus":"[A] option 1, [L] option 2, [G] neither","key_press":65,"name":"choice","trial_type":"html-keyboard-response","trial_index":213,"time_elapsed":374939,"internal_node_id":"0.0-213.0","response":"1st","certainty":"high","char":"A","transposition":-1,"order":["swapped","shifted"],"probe_pitches":[5,4,9,7,13,9,8,9],"shifted_pitches":[5,4,9,7,12,9,8,9],"swapped_pitches":[5,4,9,13,7,9,8,9],"shift_direction":-1,"question_num":181,"has_decoy":false,"subject":"S1C0810","sona":"41444","block":1,"time":"2021-09-15T15:08:55.887Z"},{"rt":417.40000009536743,"stimulus":"[A] option 1, [L] option 2, [G] neither","key_press":76,"name":"choice","trial_type":"html-keyboard-response","trial_index":224,"time_elapsed":390161,"internal_node_id":"0.0-224.0","response":"2nd","certainty":"high","char":"L","transposition":-3,"order":["shifted","swapped"],"probe_pitches":[9,12,14,9,7,10,9,3],"shifted_pitches":[9,12,14,9,6,10,9,3],"swapped_pitches":[9,12,14,7,9,10,9,3],"shift_direction":-1,"question_num":191,"has_decoy":false,"subject":"S1C0810","sona":"41444","block":1,"time":"2021-09-15T15:08:55.887Z"}]