[{"rt":721.6999998092651,"stimulus":"[A] option 1, [L] option 2, [G] neither","key_press":76,"name":"choice","trial_type":"html-keyboard-response","trial_index":10,"time_elapsed":15682,"internal_node_id":"0.0-10.0","subject":"S1C0810","sona":"41444","block":6,"time":"2021-09-15T15:37:49.448Z","response":"2nd","certainty":"high","char":"L","transposition":3,"order":["shifted","swapped"],"probe_pitches":[2,7,2,4,11,9,7,11],"shifted_pitches":[2,7,2,4,12,9,7,11],"swapped_pitches":[2,7,2,11,4,9,7,11],"shift_direction":1,"question_num":1,"has_decoy":false},{"rt":214.90000009536743,"stimulus":"[A] option 1, [L] option 2, [G] neither","key_press":76,"name":"choice","trial_type":"html-keyboard-response","trial_index":21,"time_elapsed":30466,"internal_node_id":"0.0-21.0","subject":"S1C0810","sona":"41444","block":6,"time":"2021-09-15T15:37:49.448Z","response":"2nd","certainty":"high","char":"L","transposition":0,"order":["swapped","shifted"],"probe_pitches":[2,4,7,9,11,4,7,2],"shifted_pitches":[2,4,7,8,11,4,7,2],"swapped_pitches":[2,4,7,11,9,4,7,2],"shift_direction":-1,"question_num":11,"has_decoy":false},{"rt":277.7999999523163,"stimulus":"[A] option 1, [L] option 2, [G] neither","key_press":65,"name":"choice","trial_type":"html-keyboard-response","trial_index":32,"time_elapsed":45818,"internal_node_id":"0.0-32.0","subject":"S1C0810","sona":"41444","block":6,"time":"2021-09-15T15:37:49.448Z","response":"1st","certainty":"high","char":"A","transposition":-3,"order":["shifted","swapped"],"probe_pitches":[11,6,11,14,9,4,6,9],"shifted_pitches":[11,6,11,13,9,4,6,9],"swapped_pitches":[11,6,11,9,14,4,6,9],"shift_direction":-1,"question_num":21,"has_decoy":false},{"rt":344.80000019073486,"stimulus":"[A] option 1, [L] option 2, [G] neither","key_press":65,"name":"choice","trial_type":"html-keyboard-response","trial_index":43,"time_elapsed":60805,"internal_node_id":"0.0-43.0","subject":"S1C0810","sona":"41444","block":6,"time":"2021-09-15T15:37:49.448Z","response":"1st","certainty":"high","char":"A","transposition":2,"order":["swapped","shifted"],"probe_pitches":[2,0,1,6,-1,9,1,3],"shifted_pitches":[2,0,1,6,-2,9,1,3],"swapped_pitches":[2,0,1,-1,6,9,1,3],"shift_direction":-1,"question_num":31,"has_decoy":false},{"rt":191.40000009536743,"stimulus":"[A] option 1, [L] option 2, [G] neither","key_press":76,"name":"choice","trial_type":"html-keyboard-response","trial_index":54,"time_elapsed":75382,"internal_node_id":"0.0-54.0","subject":"S1C0810","sona":"41444","block":6,"time":"2021-09-15T15:37:49.448Z","response":"2nd","certainty":"high","char":"L","transposition":-2,"order":["swapped","shifted"],"probe_pitches":[4,3,4,5,6,2,8,1],"shifted_pitches":[4,3,4,5,7,2,8,1],"swapped_pitches":[4,3,4,6,5,2,8,1],"shift_direction":1,"question_num":41,"has_decoy":false},{"rt":2510.399999856949,"stimulus":"[A] option 1, [L] option 2, [G] neither","key_press":76,"name":"choice","trial_type":"html-keyboard-response","trial_index":65,"time_elapsed":92370,"internal_node_id":"0.0-65.0","subject":"S1C0810","sona":"41444","block":6,"time":"2021-09-15T15:37:49.448Z","response":"2nd","certainty":"high","char":"L","transposition":-2,"order":["swapped","shifted"],"probe_pitches":[12,14,7,4,9,2,9,14],"shifted_pitches":[12,14,7,4,8,2,9,14],"swapped_pitches":[12,14,7,9,4,2,9,14],"shift_direction":-1,"question_num":51,"has_decoy":false},{"rt":1384.3999998569489,"stimulus":"[A] option 1, [L] option 2, [G] neither","key_press":76,"name":"choice","trial_type":"html-keyboard-response","trial_index":76,"time_elapsed":110154,"internal_node_id":"0.0-76.0","subject":"S1C0810","sona":"41444","block":6,"time":"2021-09-15T15:37:49.448Z","response":"2nd","certainty":"high","char":"L","transposition":3,"order":["shifted","swapped"],"probe_pitches":[7,9,4,2,0,10,7,9],"shifted_pitches":[7,9,4,2,1,10,7,9],"swapped_pitches":[7,9,4,0,2,10,7,9],"shift_direction":1,"question_num":61,"has_decoy":false},{"rt":208.20000004768372,"stimulus":"[A] option 1, [L] option 2, [G] neither","key_press":65,"name":"choice","trial_type":"html-keyboard-response","trial_index":87,"time_elapsed":125149,"internal_node_id":"0.0-87.0","subject":"S1C0810","sona":"41444","block":6,"time":"2021-09-15T15:37:49.448Z","response":"1st","certainty":"high","char":"A","transposition":-1,"order":["swapped","shifted"],"probe_pitches":[2,5,7,2,9,12,14,9],"shifted_pitches":[2,5,7,3,9,12,14,9],"swapped_pitches":[2,5,7,9,2,12,14,9],"shift_direction":1,"question_num":71,"has_decoy":false},{"rt":2304,"stimulus":"[A] option 1, [L] option 2, [G] neither","key_press":76,"name":"choice","trial_type":"html-keyboard-response","trial_index":98,"time_elapsed":142475,"internal_node_id":"0.0-98.0","subject":"S1C0810","sona":"41444","block":6,"time":"2021-09-15T15:37:49.448Z","response":"2nd","certainty":"high","char":"L","transposition":-3,"order":["swapped","shifted"],"probe_pitches":[1,6,7,5,9,1,-1,6],"shifted_pitches":[1,6,7,4,9,1,-1,6],"swapped_pitches":[1,6,7,9,5,1,-1,6],"shift_direction":-1,"question_num":81,"has_decoy":false},{"rt":206.19999980926514,"stimulus":"[A] option 1, [L] option 2, [G] neither","key_press":76,"name":"choice","trial_type":"html-keyboard-response","trial_index":109,"time_elapsed":157156,"internal_node_id":"0.0-109.0","subject":"S1C0810","sona":"41444","block":6,"time":"2021-09-15T15:37:49.448Z","response":"2nd","certainty":"high","char":"L","transposition":-1,"order":["shifted","swapped"],"probe_pitches":[5,8,3,1,9,11,1,11],"shifted_pitches":[5,8,3,2,9,11,1,11],"swapped_pitches":[5,8,3,9,1,11,1,11],"shift_direction":1,"question_num":91,"has_decoy":false},{"rt":133.90000009536743,"stimulus":"[A] option 1, [L] option 2, [G] neither","key_press":65,"name":"choice","trial_type":"html-keyboard-response","trial_index":120,"time_elapsed":171844,"internal_node_id":"0.0-120.0","subject":"S1C0810","sona":"41444","block":6,"time":"2021-09-15T15:37:49.448Z","response":"1st","certainty":"high","char":"A","transposition":-3,"order":["swapped","shifted"],"probe_pitches":[1,7,10,9,2,6,7,4],"shifted_pitches":[1,7,10,8,2,6,7,4],"swapped_pitches":[1,7,10,2,9,6,7,4],"shift_direction":-1,"question_num":101,"has_decoy":false},{"rt":136.30000019073486,"stimulus":"[A] option 1, [L] option 2, [G] neither","key_press":76,"name":"choice","trial_type":"html-keyboard-response","trial_index":131,"time_elapsed":186817,"internal_node_id":"0.0-131.0","subject":"S1C0810","sona":"41444","block":6,"time":"2021-09-15T15:37:49.448Z","response":"2nd","certainty":"high","char":"L","transposition":-1,"order":["shifted","swapped"],"probe_pitches":[11,8,4,8,6,0,8,0],"shifted_pitches":[11,8,4,8,5,0,8,0],"swapped_pitches":[11,8,4,6,8,0,8,0],"shift_direction":-1,"question_num":111,"has_decoy":false},{"rt":317.7999999523163,"stimulus":"[A] option 1, [L] option 2, [G] neither","key_press":65,"name":"choice","trial_type":"html-keyboard-response","trial_index":142,"time_elapsed":201658,"internal_node_id":"0.0-142.0","subject":"S1C0810","sona":"41444","block":6,"time":"2021-09-15T15:37:49.448Z","response":"1st","certainty":"high","char":"A","transposition":1,"order":["swapped","shifted"],"probe_pitches":[11,7,8,2,9,7,-1,4],"shifted_pitches":[11,7,8,3,9,7,-1,4],"swapped_pitches":[11,7,8,9,2,7,-1,4],"shift_direction":1,"question_num":121,"has_decoy":false},{"rt":965.5999999046326,"stimulus":"[A] option 1, [L] option 2, [G] neither","key_press":76,"name":"choice","trial_type":"html-keyboard-response","trial_index":153,"time_elapsed":216697,"internal_node_id":"0.0-153.0","subject":"S1C0810","sona":"41444","block":6,"time":"2021-09-15T15:37:49.448Z","response":"2nd","certainty":"high","char":"L","transposition":-3,"order":["swapped","shifted"],"probe_pitches":[5,2,7,2,10,12,5,2],"shifted_pitches":[5,2,7,3,10,12,5,2],"swapped_pitches":[5,2,7,10,2,12,5,2],"shift_direction":1,"question_num":131,"has_decoy":false},{"rt":479.69999980926514,"stimulus":"[A] option 1, [L] option 2, [G] neither","key_press":76,"name":"choice","trial_type":"html-keyboard-response","trial_index":164,"time_elapsed":231691,"internal_node_id":"0.0-164.0","subject":"S1C0810","sona":"41444","block":6,"time":"2021-09-15T15:37:49.448Z","response":"2nd","certainty":"high","char":"L","transposition":0,"order":["shifted","swapped"],"probe_pitches":[4,5,8,6,10,11,10,4],"shifted_pitches":[4,5,8,6,9,11,10,4],"swapped_pitches":[4,5,8,10,6,11,10,4],"shift_direction":-1,"question_num":141,"has_decoy":false},{"rt":276.7000000476837,"stimulus":"[A] option 1, [L] option 2, [G] neither","key_press":76,"name":"choice","trial_type":"html-keyboard-response","trial_index":175,"time_elapsed":246907,"internal_node_id":"0.0-175.0","subject":"S1C0810","sona":"41444","block":6,"time":"2021-09-15T15:37:49.448Z","response":"2nd","certainty":"high","char":"L","transposition":-2,"order":["swapped","shifted"],"probe_pitches":[2,4,9,7,12,2,12,9],"shifted_pitches":[2,4,9,7,13,2,12,9],"swapped_pitches":[2,4,9,12,7,2,12,9],"shift_direction":1,"question_num":151,"has_decoy":false},{"rt":630.7999999523163,"stimulus":"[A] option 1, [L] option 2, [G] neither","key_press":76,"name":"choice","trial_type":"html-keyboard-response","trial_index":186,"time_elapsed":261872,"internal_node_id":"0.0-186.0","subject":"S1C0810","sona":"41444","block":6,"time":"2021-09-15T15:37:49.448Z","response":"2nd","certainty":"high","char":"L","transposition":-2,"order":["shifted","swapped"],"probe_pitches":[0,4,2,5,1,2,1,11],"shifted_pitches":[0,4,2,6,1,2,1,11],"swapped_pitches":[0,4,2,1,5,2,1,11],"shift_direction":1,"question_num":161,"has_decoy":false},{"rt":5948.299999952316,"stimulus":"[A] option 1, [L] option 2, [G] neither","key_press":65,"name":"choice","trial_type":"html-keyboard-response","trial_index":197,"time_elapsed":282259,"internal_node_id":"0.0-197.0","subject":"S1C0810","sona":"41444","block":6,"time":"2021-09-15T15:37:49.448Z","response":"1st","certainty":"high","char":"A","transposition":-1,"order":["shifted","swapped"],"probe_pitches":[2,5,12,10,2,7,2,12],"shifted_pitches":[2,5,12,10,1,7,2,12],"swapped_pitches":[2,5,12,2,10,7,2,12],"shift_direction":-1,"question_num":171,"has_decoy":false},{"rt":111.40000009536743,"stimulus":"[A] option 1, [L] option 2, [G] neither","key_press":76,"name":"choice","trial_type":"html-keyboard-response","trial_index":208,"time_elapsed":296922,"internal_node_id":"0.0-208.0","subject":"S1C0810","sona":"41444","block":6,"time":"2021-09-15T15:37:49.448Z","response":"2nd","certainty":"high","char":"L","transposition":2,"order":["shifted","swapped"],"probe_pitches":[9,12,5,9,14,7,12,7],"shifted_pitches":[9,12,5,9,15,7,12,7],"swapped_pitches":[9,12,5,14,9,7,12,7],"shift_direction":1,"question_num":181,"has_decoy":false},{"rt":558,"stimulus":"[A] option 1, [L] option 2, [G] neither","key_press":76,"name":"choice","trial_type":"html-keyboard-response","trial_index":219,"time_elapsed":312049,"internal_node_id":"0.0-219.0","subject":"S1C0810","sona":"41444","block":6,"time":"2021-09-15T15:37:49.448Z","response":"2nd","certainty":"high","char":"L","transposition":1,"order":["shifted","swapped"],"probe_pitches":[14,9,14,6,11,2,11,4],"shifted_pitches":[14,9,14,5,11,2,11,4],"swapped_pitches":[14,9,14,11,6,2,11,4],"shift_direction":-1,"question_num":191,"has_decoy":false}]