[{"rt":282.40000009536743,"stimulus":"[A] option 1, [L] option 2, [G] neither","key_press":76,"name":"choice","trial_type":"html-keyboard-response","trial_index":10,"time_elapsed":17504,"internal_node_id":"0.0-10.0","subject":"S1C0810","sona":"41444","block":3,"time":"2021-09-15T15:19:31.672Z","response":"2nd","certainty":"high","char":"L","transposition":3,"order":["shifted","swapped"],"probe_pitches":[7,2,4,-1,7,4,-3,4],"shifted_pitches":[7,2,4,-1,8,4,-3,4],"swapped_pitches":[7,2,4,7,-1,4,-3,4],"shift_direction":1,"question_num":1,"has_decoy":false},{"rt":322.7000000476837,"stimulus":"[A] option 1, [L] option 2, [G] neither","key_press":65,"name":"choice","trial_type":"html-keyboard-response","trial_index":21,"time_elapsed":32524,"internal_node_id":"0.0-21.0","subject":"S1C0810","sona":"41444","block":3,"time":"2021-09-15T15:19:31.672Z","response":"1st","certainty":"high","char":"A","transposition":-1,"order":["swapped","shifted"],"probe_pitches":[10,7,11,5,10,4,0,1],"shifted_pitches":[10,7,11,6,10,4,0,1],"swapped_pitches":[10,7,11,10,5,4,0,1],"shift_direction":1,"question_num":11,"has_decoy":false},{"rt":728.0999999046326,"stimulus":"[A] option 1, [L] option 2, [G] neither","key_press":65,"name":"choice","trial_type":"html-keyboard-response","trial_index":32,"time_elapsed":47739,"internal_node_id":"0.0-32.0","subject":"S1C0810","sona":"41444","block":3,"time":"2021-09-15T15:19:31.672Z","response":"1st","certainty":"high","char":"A","transposition":-2,"order":["swapped","shifted"],"probe_pitches":[4,2,-1,6,-3,4,6,-3],"shifted_pitches":[4,2,-1,7,-3,4,6,-3],"swapped_pitches":[4,2,-1,-3,6,4,6,-3],"shift_direction":1,"question_num":21,"has_decoy":false},{"rt":489.2999999523163,"stimulus":"[A] option 1, [L] option 2, [G] neither","key_press":76,"name":"choice","trial_type":"html-keyboard-response","trial_index":43,"time_elapsed":63381,"internal_node_id":"0.0-43.0","subject":"S1C0810","sona":"41444","block":3,"time":"2021-09-15T15:19:31.672Z","response":"2nd","certainty":"high","char":"L","transposition":-3,"order":["swapped","shifted"],"probe_pitches":[6,2,7,3,8,10,5,10],"shifted_pitches":[6,2,7,3,9,10,5,10],"swapped_pitches":[6,2,7,8,3,10,5,10],"shift_direction":1,"question_num":31,"has_decoy":false},{"rt":834.0999999046326,"stimulus":"[A] option 1, [L] option 2, [G] neither","key_press":76,"name":"choice","trial_type":"html-keyboard-response","trial_index":54,"time_elapsed":78965,"internal_node_id":"0.0-54.0","subject":"S1C0810","sona":"41444","block":3,"time":"2021-09-15T15:19:31.672Z","response":"2nd","certainty":"high","char":"L","transposition":1,"order":["shifted","swapped"],"probe_pitches":[4,0,4,9,7,1,9,3],"shifted_pitches":[4,0,4,8,7,1,9,3],"swapped_pitches":[4,0,4,7,9,1,9,3],"shift_direction":-1,"question_num":41,"has_decoy":false},{"rt":844,"stimulus":"[A] option 1, [L] option 2, [G] neither","key_press":76,"name":"choice","trial_type":"html-keyboard-response","trial_index":65,"time_elapsed":94276,"internal_node_id":"0.0-65.0","subject":"S1C0810","sona":"41444","block":3,"time":"2021-09-15T15:19:31.672Z","response":"2nd","certainty":"high","char":"L","transposition":-2,"order":["shifted","swapped"],"probe_pitches":[9,6,7,1,6,11,8,10],"shifted_pitches":[9,6,7,1,5,11,8,10],"swapped_pitches":[9,6,7,6,1,11,8,10],"shift_direction":-1,"question_num":51,"has_decoy":false},{"rt":333.5,"stimulus":"[A] option 1, [L] option 2, [G] neither","key_press":76,"name":"choice","trial_type":"html-keyboard-response","trial_index":76,"time_elapsed":109025,"internal_node_id":"0.0-76.0","subject":"S1C0810","sona":"41444","block":3,"time":"2021-09-15T15:19:31.672Z","response":"2nd","certainty":"high","char":"L","transposition":-1,"order":["shifted","swapped"],"probe_pitches":[-3,1,6,4,1,-1,1,6],"shifted_pitches":[-3,1,6,4,2,-1,1,6],"swapped_pitches":[-3,1,6,1,4,-1,1,6],"shift_direction":1,"question_num":61,"has_decoy":false},{"rt":542,"stimulus":"[A] option 1, [L] option 2, [G] neither","key_press":76,"name":"choice","trial_type":"html-keyboard-response","trial_index":87,"time_elapsed":123863,"internal_node_id":"0.0-87.0","subject":"S1C0810","sona":"41444","block":3,"time":"2021-09-15T15:19:31.672Z","response":"2nd","certainty":"high","char":"L","transposition":-2,"order":["shifted","swapped"],"probe_pitches":[0,6,2,10,5,8,7,5],"shifted_pitches":[0,6,2,10,4,8,7,5],"swapped_pitches":[0,6,2,5,10,8,7,5],"shift_direction":-1,"question_num":71,"has_decoy":false},{"rt":564.4000000953674,"stimulus":"[A] option 1, [L] option 2, [G] neither","key_press":76,"name":"choice","trial_type":"html-keyboard-response","trial_index":98,"time_elapsed":138876,"internal_node_id":"0.0-98.0","subject":"S1C0810","sona":"41444","block":3,"time":"2021-09-15T15:19:31.672Z","response":"2nd","certainty":"high","char":"L","transposition":2,"order":["shifted","swapped"],"probe_pitches":[2,4,9,4,-3,-1,4,7],"shifted_pitches":[2,4,9,4,-4,-1,4,7],"swapped_pitches":[2,4,9,-3,4,-1,4,7],"shift_direction":-1,"question_num":81,"has_decoy":false},{"rt":955.5,"stimulus":"[A] option 1, [L] option 2, [G] neither","key_press":76,"name":"choice","trial_type":"html-keyboard-response","trial_index":109,"time_elapsed":154227,"internal_node_id":"0.0-109.0","subject":"S1C0810","sona":"41444","block":3,"time":"2021-09-15T15:19:31.672Z","response":"2nd","certainty":"high","char":"L","transposition":-2,"order":["shifted","swapped"],"probe_pitches":[-3,2,9,7,0,9,5,7],"shifted_pitches":[-3,2,9,7,-1,9,5,7],"swapped_pitches":[-3,2,9,0,7,9,5,7],"shift_direction":-1,"question_num":91,"has_decoy":false},{"rt":2197.0999999046326,"stimulus":"[A] option 1, [L] option 2, [G] neither","key_press":71,"name":"choice","trial_type":"html-keyboard-response","trial_index":120,"time_elapsed":170849,"internal_node_id":"0.0-120.0","subject":"S1C0810","sona":"41444","block":3,"time":"2021-09-15T15:19:31.672Z","response":"neither","certainty":"high","char":"G","transposition":3,"order":["swapped","shifted"],"probe_pitches":[0,3,4,0,-1,9,6,2],"shifted_pitches":[0,3,4,0,-2,9,6,2],"swapped_pitches":[0,3,4,-1,0,9,6,2],"shift_direction":-1,"question_num":101,"has_decoy":false},{"rt":283.7999999523163,"stimulus":"[A] option 1, [L] option 2, [G] neither","key_press":76,"name":"choice","trial_type":"html-keyboard-response","trial_index":131,"time_elapsed":186555,"internal_node_id":"0.0-131.0","subject":"S1C0810","sona":"41444","block":3,"time":"2021-09-15T15:19:31.672Z","response":"2nd","certainty":"high","char":"L","transposition":-3,"order":["swapped","shifted"],"probe_pitches":[7,9,2,-3,0,4,0,4],"shifted_pitches":[7,9,2,-2,0,4,0,4],"swapped_pitches":[7,9,2,0,-3,4,0,4],"shift_direction":1,"question_num":111,"has_decoy":false},{"rt":860.5,"stimulus":"[A] option 1, [L] option 2, [G] neither","key_press":76,"name":"choice","trial_type":"html-keyboard-response","trial_index":142,"time_elapsed":201932,"internal_node_id":"0.0-142.0","subject":"S1C0810","sona":"41444","block":3,"time":"2021-09-15T15:19:31.672Z","response":"2nd","certainty":"high","char":"L","transposition":-3,"order":["swapped","shifted"],"probe_pitches":[4,0,7,2,4,0,-3,0],"shifted_pitches":[4,0,7,1,4,0,-3,0],"swapped_pitches":[4,0,7,4,2,0,-3,0],"shift_direction":-1,"question_num":121,"has_decoy":false},{"rt":280.09999990463257,"stimulus":"[A] option 1, [L] option 2, [G] neither","key_press":65,"name":"choice","trial_type":"html-keyboard-response","trial_index":153,"time_elapsed":216551,"internal_node_id":"0.0-153.0","subject":"S1C0810","sona":"41444","block":3,"time":"2021-09-15T15:19:31.672Z","response":"1st","certainty":"high","char":"A","transposition":1,"order":["swapped","shifted"],"probe_pitches":[5,9,2,7,5,0,9,7],"shifted_pitches":[5,9,2,6,5,0,9,7],"swapped_pitches":[5,9,2,5,7,0,9,7],"shift_direction":-1,"question_num":131,"has_decoy":false},{"rt":326.39999985694885,"stimulus":"[A] option 1, [L] option 2, [G] neither","key_press":76,"name":"choice","trial_type":"html-keyboard-response","trial_index":164,"time_elapsed":231388,"internal_node_id":"0.0-164.0","subject":"S1C0810","sona":"41444","block":3,"time":"2021-09-15T15:19:31.672Z","response":"2nd","certainty":"high","char":"L","transposition":-1,"order":["shifted","swapped"],"probe_pitches":[3,0,5,0,9,4,3,-1],"shifted_pitches":[3,0,5,1,9,4,3,-1],"swapped_pitches":[3,0,5,9,0,4,3,-1],"shift_direction":1,"question_num":141,"has_decoy":false},{"rt":457.90000009536743,"stimulus":"[A] option 1, [L] option 2, [G] neither","key_press":65,"name":"choice","trial_type":"html-keyboard-response","trial_index":175,"time_elapsed":246319,"internal_node_id":"0.0-175.0","subject":"S1C0810","sona":"41444","block":3,"time":"2021-09-15T15:19:31.672Z","response":"1st","certainty":"high","char":"A","transposition":-1,"order":["swapped","shifted"],"probe_pitches":[1,-1,4,9,6,4,6,9],"shifted_pitches":[1,-1,4,9,5,4,6,9],"swapped_pitches":[1,-1,4,6,9,4,6,9],"shift_direction":-1,"question_num":151,"has_decoy":false},{"rt":536,"stimulus":"[A] option 1, [L] option 2, [G] neither","key_press":76,"name":"choice","trial_type":"html-keyboard-response","trial_index":186,"time_elapsed":261298,"internal_node_id":"0.0-186.0","subject":"S1C0810","sona":"41444","block":3,"time":"2021-09-15T15:19:31.672Z","response":"2nd","certainty":"high","char":"L","transposition":2,"order":["swapped","shifted"],"probe_pitches":[-1,2,8,2,0,9,11,-1],"shifted_pitches":[-1,2,8,3,0,9,11,-1],"swapped_pitches":[-1,2,8,0,2,9,11,-1],"shift_direction":1,"question_num":161,"has_decoy":false},{"rt":648.2999999523163,"stimulus":"[A] option 1, [L] option 2, [G] neither","key_press":76,"name":"choice","trial_type":"html-keyboard-response","trial_index":197,"time_elapsed":276290,"internal_node_id":"0.0-197.0","subject":"S1C0810","sona":"41444","block":3,"time":"2021-09-15T15:19:31.672Z","response":"2nd","certainty":"high","char":"L","transposition":0,"order":["shifted","swapped"],"probe_pitches":[-1,-3,2,4,-1,6,2,-1],"shifted_pitches":[-1,-3,2,5,-1,6,2,-1],"swapped_pitches":[-1,-3,2,-1,4,6,2,-1],"shift_direction":1,"question_num":171,"has_decoy":false},{"rt":371.60000014305115,"stimulus":"[A] option 1, [L] option 2, [G] neither","key_press":76,"name":"choice","trial_type":"html-keyboard-response","trial_index":208,"time_elapsed":291433,"internal_node_id":"0.0-208.0","subject":"S1C0810","sona":"41444","block":3,"time":"2021-09-15T15:19:31.672Z","response":"2nd","certainty":"high","char":"L","transposition":-3,"order":["shifted","swapped"],"probe_pitches":[-1,3,7,4,3,-1,10,7],"shifted_pitches":[-1,3,7,4,2,-1,10,7],"swapped_pitches":[-1,3,7,3,4,-1,10,7],"shift_direction":-1,"question_num":181,"has_decoy":false},{"rt":264.09999990463257,"stimulus":"[A] option 1, [L] option 2, [G] neither","key_press":76,"name":"choice","trial_type":"html-keyboard-response","trial_index":219,"time_elapsed":306106,"internal_node_id":"0.0-219.0","subject":"S1C0810","sona":"41444","block":3,"time":"2021-09-15T15:19:31.672Z","response":"2nd","certainty":"high","char":"L","transposition":0,"order":["swapped","shifted"],"probe_pitches":[2,3,8,6,4,11,0,8],"shifted_pitches":[2,3,8,7,4,11,0,8],"swapped_pitches":[2,3,8,4,6,11,0,8],"shift_direction":1,"question_num":191,"has_decoy":false}]