[{"rt":1591.5,"stimulus":"[A] option 1, [L] option 2, [G] neither","key_press":76,"name":"choice","trial_type":"html-keyboard-response","trial_index":10,"time_elapsed":18793,"internal_node_id":"0.0-10.0","subject":"S1C0810","sona":"41444","block":4,"time":"2021-09-15T15:27:03.238Z","response":"2nd","certainty":"high","char":"L","transposition":-2,"order":["swapped","shifted"],"probe_pitches":[-3,2,9,2,-3,7,4,-1],"shifted_pitches":[-3,2,9,3,-3,7,4,-1],"swapped_pitches":[-3,2,9,-3,2,7,4,-1],"shift_direction":1,"question_num":1,"has_decoy":false},{"rt":1087.7000000476837,"stimulus":"[A] option 1, [L] option 2, [G] neither","key_press":76,"name":"choice","trial_type":"html-keyboard-response","trial_index":21,"time_elapsed":45239,"internal_node_id":"0.0-21.0","subject":"S1C0810","sona":"41444","block":4,"time":"2021-09-15T15:27:03.238Z","response":"2nd","certainty":"high","char":"L","transposition":0,"order":["swapped","shifted"],"probe_pitches":[-3,1,-1,1,-3,4,1,6],"shifted_pitches":[-3,1,-1,0,-3,4,1,6],"swapped_pitches":[-3,1,-1,-3,1,4,1,6],"shift_direction":-1,"question_num":11,"has_decoy":false},{"rt":953.2000000476837,"stimulus":"[A] option 1, [L] option 2, [G] neither","key_press":65,"name":"choice","trial_type":"html-keyboard-response","trial_index":32,"time_elapsed":60645,"internal_node_id":"0.0-32.0","subject":"S1C0810","sona":"41444","block":4,"time":"2021-09-15T15:27:03.238Z","response":"1st","certainty":"high","char":"A","transposition":1,"order":["swapped","shifted"],"probe_pitches":[9,7,5,2,7,9,0,7],"shifted_pitches":[9,7,5,2,8,9,0,7],"swapped_pitches":[9,7,5,7,2,9,0,7],"shift_direction":1,"question_num":21,"has_decoy":false},{"rt":1044.5999999046326,"stimulus":"[A] option 1, [L] option 2, [G] neither","key_press":76,"name":"choice","trial_type":"html-keyboard-response","trial_index":43,"time_elapsed":76446,"internal_node_id":"0.0-43.0","subject":"S1C0810","sona":"41444","block":4,"time":"2021-09-15T15:27:03.238Z","response":"2nd","certainty":"high","char":"L","transposition":-2,"order":["swapped","shifted"],"probe_pitches":[8,11,5,3,6,8,5,8],"shifted_pitches":[8,11,5,4,6,8,5,8],"swapped_pitches":[8,11,5,6,3,8,5,8],"shift_direction":1,"question_num":31,"has_decoy":false},{"rt":799.5999999046326,"stimulus":"[A] option 1, [L] option 2, [G] neither","key_press":65,"name":"choice","trial_type":"html-keyboard-response","trial_index":54,"time_elapsed":91991,"internal_node_id":"0.0-54.0","subject":"S1C0810","sona":"41444","block":4,"time":"2021-09-15T15:27:03.238Z","response":"1st","certainty":"high","char":"A","transposition":0,"order":["swapped","shifted"],"probe_pitches":[2,4,9,6,4,1,10,8],"shifted_pitches":[2,4,9,7,4,1,10,8],"swapped_pitches":[2,4,9,4,6,1,10,8],"shift_direction":1,"question_num":41,"has_decoy":false},{"rt":662.2000000476837,"stimulus":"[A] option 1, [L] option 2, [G] neither","key_press":65,"name":"choice","trial_type":"html-keyboard-response","trial_index":65,"time_elapsed":107493,"internal_node_id":"0.0-65.0","subject":"S1C0810","sona":"41444","block":4,"time":"2021-09-15T15:27:03.238Z","response":"1st","certainty":"high","char":"A","transposition":3,"order":["shifted","swapped"],"probe_pitches":[4,1,6,9,4,-1,6,9],"shifted_pitches":[4,1,6,8,4,-1,6,9],"swapped_pitches":[4,1,6,4,9,-1,6,9],"shift_direction":-1,"question_num":51,"has_decoy":false},{"rt":293.7000000476837,"stimulus":"[A] option 1, [L] option 2, [G] neither","key_press":76,"name":"choice","trial_type":"html-keyboard-response","trial_index":76,"time_elapsed":122135,"internal_node_id":"0.0-76.0","subject":"S1C0810","sona":"41444","block":4,"time":"2021-09-15T15:27:03.238Z","response":"2nd","certainty":"high","char":"L","transposition":3,"order":["shifted","swapped"],"probe_pitches":[4,5,4,2,11,9,5,9],"shifted_pitches":[4,5,4,3,11,9,5,9],"swapped_pitches":[4,5,4,11,2,9,5,9],"shift_direction":1,"question_num":61,"has_decoy":false},{"rt":853.2000000476837,"stimulus":"[A] option 1, [L] option 2, [G] neither","key_press":65,"name":"choice","trial_type":"html-keyboard-response","trial_index":87,"time_elapsed":137194,"internal_node_id":"0.0-87.0","subject":"S1C0810","sona":"41444","block":4,"time":"2021-09-15T15:27:03.238Z","response":"1st","certainty":"high","char":"A","transposition":-1,"order":["swapped","shifted"],"probe_pitches":[4,10,3,4,9,10,1,2],"shifted_pitches":[4,10,3,4,8,10,1,2],"swapped_pitches":[4,10,3,9,4,10,1,2],"shift_direction":-1,"question_num":71,"has_decoy":false},{"rt":3741.0999999046326,"stimulus":"[A] option 1, [L] option 2, [G] neither","key_press":76,"name":"choice","trial_type":"html-keyboard-response","trial_index":98,"time_elapsed":156152,"internal_node_id":"0.0-98.0","subject":"S1C0810","sona":"41444","block":4,"time":"2021-09-15T15:27:03.238Z","response":"2nd","certainty":"high","char":"L","transposition":-2,"order":["shifted","swapped"],"probe_pitches":[4,9,6,2,-3,-1,-3,6],"shifted_pitches":[4,9,6,1,-3,-1,-3,6],"swapped_pitches":[4,9,6,-3,2,-1,-3,6],"shift_direction":-1,"question_num":81,"has_decoy":false},{"rt":1242,"stimulus":"[A] option 1, [L] option 2, [G] neither","key_press":76,"name":"choice","trial_type":"html-keyboard-response","trial_index":109,"time_elapsed":172353,"internal_node_id":"0.0-109.0","subject":"S1C0810","sona":"41444","block":4,"time":"2021-09-15T15:27:03.238Z","response":"2nd","certainty":"high","char":"L","transposition":-1,"order":["shifted","swapped"],"probe_pitches":[9,7,0,2,9,7,4,0],"shifted_pitches":[9,7,0,2,8,7,4,0],"swapped_pitches":[9,7,0,9,2,7,4,0],"shift_direction":-1,"question_num":91,"has_decoy":false},{"rt":945.8999998569489,"stimulus":"[A] option 1, [L] option 2, [G] neither","key_press":65,"name":"choice","trial_type":"html-keyboard-response","trial_index":120,"time_elapsed":188068,"internal_node_id":"0.0-120.0","subject":"S1C0810","sona":"41444","block":4,"time":"2021-09-15T15:27:03.238Z","response":"1st","certainty":"high","char":"A","transposition":-1,"order":["shifted","swapped"],"probe_pitches":[4,9,4,0,7,-3,7,2],"shifted_pitches":[4,9,4,1,7,-3,7,2],"swapped_pitches":[4,9,4,7,0,-3,7,2],"shift_direction":1,"question_num":101,"has_decoy":false},{"rt":303.5,"stimulus":"[A] option 1, [L] option 2, [G] neither","key_press":76,"name":"choice","trial_type":"html-keyboard-response","trial_index":131,"time_elapsed":203045,"internal_node_id":"0.0-131.0","subject":"S1C0810","sona":"41444","block":4,"time":"2021-09-15T15:27:03.238Z","response":"2nd","certainty":"high","char":"L","transposition":-2,"order":["shifted","swapped"],"probe_pitches":[-1,2,-1,2,9,7,0,9],"shifted_pitches":[-1,2,-1,1,9,7,0,9],"swapped_pitches":[-1,2,-1,9,2,7,0,9],"shift_direction":-1,"question_num":111,"has_decoy":false},{"rt":1265.2999999523163,"stimulus":"[A] option 1, [L] option 2, [G] neither","key_press":65,"name":"choice","trial_type":"html-keyboard-response","trial_index":142,"time_elapsed":219006,"internal_node_id":"0.0-142.0","subject":"S1C0810","sona":"41444","block":4,"time":"2021-09-15T15:27:03.238Z","response":"1st","certainty":"high","char":"A","transposition":-3,"order":["swapped","shifted"],"probe_pitches":[4,-1,2,9,6,2,9,-3],"shifted_pitches":[4,-1,2,9,5,2,9,-3],"swapped_pitches":[4,-1,2,6,9,2,9,-3],"shift_direction":-1,"question_num":121,"has_decoy":false},{"rt":603.3000001907349,"stimulus":"[A] option 1, [L] option 2, [G] neither","key_press":76,"name":"choice","trial_type":"html-keyboard-response","trial_index":153,"time_elapsed":234255,"internal_node_id":"0.0-153.0","subject":"S1C0810","sona":"41444","block":4,"time":"2021-09-15T15:27:03.238Z","response":"2nd","certainty":"high","char":"L","transposition":-3,"order":["swapped","shifted"],"probe_pitches":[0,5,0,5,2,7,9,2],"shifted_pitches":[0,5,0,5,3,7,9,2],"swapped_pitches":[0,5,0,2,5,7,9,2],"shift_direction":1,"question_num":131,"has_decoy":false},{"rt":2104.2000000476837,"stimulus":"[A] option 1, [L] option 2, [G] neither","key_press":65,"name":"choice","trial_type":"html-keyboard-response","trial_index":164,"time_elapsed":251345,"internal_node_id":"0.0-164.0","subject":"S1C0810","sona":"41444","block":4,"time":"2021-09-15T15:27:03.238Z","response":"1st","certainty":"high","char":"A","transposition":-3,"order":["swapped","shifted"],"probe_pitches":[5,6,11,5,8,2,3,-1],"shifted_pitches":[5,6,11,5,9,2,3,-1],"swapped_pitches":[5,6,11,8,5,2,3,-1],"shift_direction":1,"question_num":141,"has_decoy":false},{"rt":247.09999990463257,"stimulus":"[A] option 1, [L] option 2, [G] neither","key_press":76,"name":"choice","trial_type":"html-keyboard-response","trial_index":175,"time_elapsed":266917,"internal_node_id":"0.0-175.0","subject":"S1C0810","sona":"41444","block":4,"time":"2021-09-15T15:27:03.238Z","response":"2nd","certainty":"high","char":"L","transposition":2,"order":["shifted","swapped"],"probe_pitches":[-1,-3,4,-3,-1,7,-1,2],"shifted_pitches":[-1,-3,4,-3,0,7,-1,2],"swapped_pitches":[-1,-3,4,-1,-3,7,-1,2],"shift_direction":1,"question_num":151,"has_decoy":false},{"rt":263.60000014305115,"stimulus":"[A] option 1, [L] option 2, [G] neither","key_press":76,"name":"choice","trial_type":"html-keyboard-response","trial_index":186,"time_elapsed":281654,"internal_node_id":"0.0-186.0","subject":"S1C0810","sona":"41444","block":4,"time":"2021-09-15T15:27:03.238Z","response":"2nd","certainty":"high","char":"L","transposition":2,"order":["shifted","swapped"],"probe_pitches":[1,6,1,6,8,7,2,1],"shifted_pitches":[1,6,1,5,8,7,2,1],"swapped_pitches":[1,6,1,8,6,7,2,1],"shift_direction":-1,"question_num":161,"has_decoy":false},{"rt":254.79999995231628,"stimulus":"[A] option 1, [L] option 2, [G] neither","key_press":65,"name":"choice","trial_type":"html-keyboard-response","trial_index":197,"time_elapsed":296655,"internal_node_id":"0.0-197.0","subject":"S1C0810","sona":"41444","block":4,"time":"2021-09-15T15:27:03.238Z","response":"1st","certainty":"high","char":"A","transposition":-3,"order":["shifted","swapped"],"probe_pitches":[4,7,6,4,1,7,4,8],"shifted_pitches":[4,7,6,4,2,7,4,8],"swapped_pitches":[4,7,6,1,4,7,4,8],"shift_direction":1,"question_num":171,"has_decoy":false},{"rt":615.4000000953674,"stimulus":"[A] option 1, [L] option 2, [G] neither","key_press":76,"name":"choice","trial_type":"html-keyboard-response","trial_index":208,"time_elapsed":311806,"internal_node_id":"0.0-208.0","subject":"S1C0810","sona":"41444","block":4,"time":"2021-09-15T15:27:03.238Z","response":"2nd","certainty":"high","char":"L","transposition":1,"order":["shifted","swapped"],"probe_pitches":[4,8,4,2,7,9,5,-1],"shifted_pitches":[4,8,4,2,6,9,5,-1],"swapped_pitches":[4,8,4,7,2,9,5,-1],"shift_direction":-1,"question_num":181,"has_decoy":false},{"rt":330,"stimulus":"[A] option 1, [L] option 2, [G] neither","key_press":65,"name":"choice","trial_type":"html-keyboard-response","trial_index":219,"time_elapsed":326561,"internal_node_id":"0.0-219.0","subject":"S1C0810","sona":"41444","block":4,"time":"2021-09-15T15:27:03.238Z","response":"1st","certainty":"high","char":"A","transposition":-1,"order":["swapped","shifted"],"probe_pitches":[7,1,7,2,-1,4,6,2],"shifted_pitches":[7,1,7,2,-2,4,6,2],"swapped_pitches":[7,1,7,-1,2,4,6,2],"shift_direction":-1,"question_num":191,"has_decoy":false}]