[{"rt":714,"stimulus":"[A] option 1, [L] option 2, [G] neither","key_press":65,"name":"choice","trial_type":"html-keyboard-response","trial_index":10,"time_elapsed":19063,"internal_node_id":"0.0-10.0","subject":"S1C0810","sona":"41444","block":2,"time":"2021-09-15T15:14:22.571Z","response":"1st","certainty":"high","char":"A","transposition":-3,"order":["swapped","shifted"],"probe_pitches":[5,0,7,10,12,7,3,10],"shifted_pitches":[5,0,7,9,12,7,3,10],"swapped_pitches":[5,0,7,12,10,7,3,10],"shift_direction":-1,"question_num":1,"has_decoy":false},{"rt":4848.799999952316,"stimulus":"[A] option 1, [L] option 2, [G] neither","key_press":65,"name":"choice","trial_type":"html-keyboard-response","trial_index":21,"time_elapsed":38967,"internal_node_id":"0.0-21.0","subject":"S1C0810","sona":"41444","block":2,"time":"2021-09-15T15:14:22.571Z","response":"1st","certainty":"high","char":"A","transposition":0,"order":["swapped","shifted"],"probe_pitches":[12,8,5,10,3,12,5,12],"shifted_pitches":[12,8,5,10,4,12,5,12],"swapped_pitches":[12,8,5,3,10,12,5,12],"shift_direction":1,"question_num":11,"has_decoy":false},{"rt":1628,"stimulus":"[A] option 1, [L] option 2, [G] neither","key_press":76,"name":"choice","trial_type":"html-keyboard-response","trial_index":32,"time_elapsed":55196,"internal_node_id":"0.0-32.0","subject":"S1C0810","sona":"41444","block":2,"time":"2021-09-15T15:14:22.571Z","response":"2nd","certainty":"high","char":"L","transposition":2,"order":["shifted","swapped"],"probe_pitches":[6,3,7,15,12,10,12,15],"shifted_pitches":[6,3,7,15,13,10,12,15],"swapped_pitches":[6,3,7,12,15,10,12,15],"shift_direction":1,"question_num":21,"has_decoy":false},{"rt":746.1999998092651,"stimulus":"[A] option 1, [L] option 2, [G] neither","key_press":65,"name":"choice","trial_type":"html-keyboard-response","trial_index":43,"time_elapsed":70314,"internal_node_id":"0.0-43.0","subject":"S1C0810","sona":"41444","block":2,"time":"2021-09-15T15:14:22.571Z","response":"1st","certainty":"high","char":"A","transposition":1,"order":["swapped","shifted"],"probe_pitches":[12,10,5,12,7,5,2,0],"shifted_pitches":[12,10,5,11,7,5,2,0],"swapped_pitches":[12,10,5,7,12,5,2,0],"shift_direction":-1,"question_num":31,"has_decoy":false},{"rt":1394.5999999046326,"stimulus":"[A] option 1, [L] option 2, [G] neither","key_press":65,"name":"choice","trial_type":"html-keyboard-response","trial_index":54,"time_elapsed":88093,"internal_node_id":"0.0-54.0","subject":"S1C0810","sona":"41444","block":2,"time":"2021-09-15T15:14:22.571Z","response":"1st","certainty":"high","char":"A","transposition":-2,"order":["shifted","swapped"],"probe_pitches":[7,12,5,12,7,2,10,12],"shifted_pitches":[7,12,5,13,7,2,10,12],"swapped_pitches":[7,12,5,7,12,2,10,12],"shift_direction":1,"question_num":41,"has_decoy":false},{"rt":640.7999999523163,"stimulus":"[A] option 1, [L] option 2, [G] neither","key_press":65,"name":"choice","trial_type":"html-keyboard-response","trial_index":65,"time_elapsed":103460,"internal_node_id":"0.0-65.0","subject":"S1C0810","sona":"41444","block":2,"time":"2021-09-15T15:14:22.571Z","response":"1st","certainty":"high","char":"A","transposition":3,"order":["swapped","shifted"],"probe_pitches":[6,7,3,4,7,12,9,14],"shifted_pitches":[6,7,3,4,8,12,9,14],"swapped_pitches":[6,7,3,7,4,12,9,14],"shift_direction":1,"question_num":51,"has_decoy":false},{"rt":395.7999999523163,"stimulus":"[A] option 1, [L] option 2, [G] neither","key_press":76,"name":"choice","trial_type":"html-keyboard-response","trial_index":76,"time_elapsed":119374,"internal_node_id":"0.0-76.0","subject":"S1C0810","sona":"41444","block":2,"time":"2021-09-15T15:14:22.571Z","response":"2nd","certainty":"high","char":"L","transposition":-3,"order":["shifted","swapped"],"probe_pitches":[2,7,0,7,9,4,12,9],"shifted_pitches":[2,7,0,6,9,4,12,9],"swapped_pitches":[2,7,0,9,7,4,12,9],"shift_direction":-1,"question_num":61,"has_decoy":false},{"rt":1378,"stimulus":"[A] option 1, [L] option 2, [G] neither","key_press":76,"name":"choice","trial_type":"html-keyboard-response","trial_index":87,"time_elapsed":135556,"internal_node_id":"0.0-87.0","subject":"S1C0810","sona":"41444","block":2,"time":"2021-09-15T15:14:22.571Z","response":"2nd","certainty":"high","char":"L","transposition":-3,"order":["shifted","swapped"],"probe_pitches":[9,4,11,4,3,8,4,13],"shifted_pitches":[9,4,11,5,3,8,4,13],"swapped_pitches":[9,4,11,3,4,8,4,13],"shift_direction":1,"question_num":71,"has_decoy":false},{"rt":326,"stimulus":"[A] option 1, [L] option 2, [G] neither","key_press":76,"name":"choice","trial_type":"html-keyboard-response","trial_index":98,"time_elapsed":150904,"internal_node_id":"0.0-98.0","subject":"S1C0810","sona":"41444","block":2,"time":"2021-09-15T15:14:22.571Z","response":"2nd","certainty":"high","char":"L","transposition":-2,"order":["shifted","swapped"],"probe_pitches":[5,3,5,12,3,9,12,6],"shifted_pitches":[5,3,5,11,3,9,12,6],"swapped_pitches":[5,3,5,3,12,9,12,6],"shift_direction":-1,"question_num":81,"has_decoy":false},{"rt":279.59999990463257,"stimulus":"[A] option 1, [L] option 2, [G] neither","key_press":76,"name":"choice","trial_type":"html-keyboard-response","trial_index":109,"time_elapsed":165668,"internal_node_id":"0.0-109.0","subject":"S1C0810","sona":"41444","block":2,"time":"2021-09-15T15:14:22.571Z","response":"2nd","certainty":"high","char":"L","transposition":3,"order":["shifted","swapped"],"probe_pitches":[10,12,7,12,3,10,7,5],"shifted_pitches":[10,12,7,12,2,10,7,5],"swapped_pitches":[10,12,7,3,12,10,7,5],"shift_direction":-1,"question_num":91,"has_decoy":false},{"rt":6056.900000095367,"stimulus":"[A] option 1, [L] option 2, [G] neither","key_press":76,"name":"choice","trial_type":"html-keyboard-response","trial_index":120,"time_elapsed":186285,"internal_node_id":"0.0-120.0","subject":"S1C0810","sona":"41444","block":2,"time":"2021-09-15T15:14:22.571Z","response":"2nd","certainty":"high","char":"L","transposition":-1,"order":["swapped","shifted"],"probe_pitches":[0,2,9,5,0,7,0,12],"shifted_pitches":[0,2,9,6,0,7,0,12],"swapped_pitches":[0,2,9,0,5,7,0,12],"shift_direction":1,"question_num":101,"has_decoy":false},{"rt":601.2000000476837,"stimulus":"[A] option 1, [L] option 2, [G] neither","key_press":76,"name":"choice","trial_type":"html-keyboard-response","trial_index":131,"time_elapsed":201510,"internal_node_id":"0.0-131.0","subject":"S1C0810","sona":"41444","block":2,"time":"2021-09-15T15:14:22.571Z","response":"2nd","certainty":"high","char":"L","transposition":-1,"order":["swapped","shifted"],"probe_pitches":[14,12,10,8,7,12,7,10],"shifted_pitches":[14,12,10,8,6,12,7,10],"swapped_pitches":[14,12,10,7,8,12,7,10],"shift_direction":-1,"question_num":111,"has_decoy":false},{"rt":507.2999999523163,"stimulus":"[A] option 1, [L] option 2, [G] neither","key_press":76,"name":"choice","trial_type":"html-keyboard-response","trial_index":142,"time_elapsed":216426,"internal_node_id":"0.0-142.0","subject":"S1C0810","sona":"41444","block":2,"time":"2021-09-15T15:14:22.571Z","response":"2nd","certainty":"high","char":"L","transposition":-3,"order":["shifted","swapped"],"probe_pitches":[13,7,14,8,11,6,9,3],"shifted_pitches":[13,7,14,8,12,6,9,3],"swapped_pitches":[13,7,14,11,8,6,9,3],"shift_direction":1,"question_num":121,"has_decoy":false},{"rt":397.7000000476837,"stimulus":"[A] option 1, [L] option 2, [G] neither","key_press":65,"name":"choice","trial_type":"html-keyboard-response","trial_index":153,"time_elapsed":231406,"internal_node_id":"0.0-153.0","subject":"S1C0810","sona":"41444","block":2,"time":"2021-09-15T15:14:22.571Z","response":"1st","certainty":"high","char":"A","transposition":0,"order":["swapped","shifted"],"probe_pitches":[3,7,12,10,13,14,5,14],"shifted_pitches":[3,7,12,9,13,14,5,14],"swapped_pitches":[3,7,12,13,10,14,5,14],"shift_direction":-1,"question_num":131,"has_decoy":false},{"rt":324.89999985694885,"stimulus":"[A] option 1, [L] option 2, [G] neither","key_press":76,"name":"choice","trial_type":"html-keyboard-response","trial_index":164,"time_elapsed":246363,"internal_node_id":"0.0-164.0","subject":"S1C0810","sona":"41444","block":2,"time":"2021-09-15T15:14:22.571Z","response":"2nd","certainty":"high","char":"L","transposition":-1,"order":["shifted","swapped"],"probe_pitches":[0,2,7,4,12,2,9,7],"shifted_pitches":[0,2,7,4,13,2,9,7],"swapped_pitches":[0,2,7,12,4,2,9,7],"shift_direction":1,"question_num":141,"has_decoy":false},{"rt":355.7999999523163,"stimulus":"[A] option 1, [L] option 2, [G] neither","key_press":76,"name":"choice","trial_type":"html-keyboard-response","trial_index":175,"time_elapsed":261225,"internal_node_id":"0.0-175.0","subject":"S1C0810","sona":"41444","block":2,"time":"2021-09-15T15:14:22.571Z","response":"2nd","certainty":"high","char":"L","transposition":2,"order":["shifted","swapped"],"probe_pitches":[5,0,3,5,10,12,10,8],"shifted_pitches":[5,0,3,5,11,12,10,8],"swapped_pitches":[5,0,3,10,5,12,10,8],"shift_direction":1,"question_num":151,"has_decoy":false},{"rt":543.2000000476837,"stimulus":"[A] option 1, [L] option 2, [G] neither","key_press":65,"name":"choice","trial_type":"html-keyboard-response","trial_index":186,"time_elapsed":276152,"internal_node_id":"0.0-186.0","subject":"S1C0810","sona":"41444","block":2,"time":"2021-09-15T15:14:22.571Z","response":"1st","certainty":"high","char":"A","transposition":-1,"order":["swapped","shifted"],"probe_pitches":[9,15,14,11,4,12,15,12],"shifted_pitches":[9,15,14,10,4,12,15,12],"swapped_pitches":[9,15,14,4,11,12,15,12],"shift_direction":-1,"question_num":161,"has_decoy":false},{"rt":978.7999999523163,"stimulus":"[A] option 1, [L] option 2, [G] neither","key_press":65,"name":"choice","trial_type":"html-keyboard-response","trial_index":197,"time_elapsed":291617,"internal_node_id":"0.0-197.0","subject":"S1C0810","sona":"41444","block":2,"time":"2021-09-15T15:14:22.571Z","response":"1st","certainty":"high","char":"A","transposition":1,"order":["swapped","shifted"],"probe_pitches":[13,8,9,7,13,10,3,11],"shifted_pitches":[13,8,9,7,14,10,3,11],"swapped_pitches":[13,8,9,13,7,10,3,11],"shift_direction":1,"question_num":171,"has_decoy":false},{"rt":322.40000009536743,"stimulus":"[A] option 1, [L] option 2, [G] neither","key_press":76,"name":"choice","trial_type":"html-keyboard-response","trial_index":208,"time_elapsed":307001,"internal_node_id":"0.0-208.0","subject":"S1C0810","sona":"41444","block":2,"time":"2021-09-15T15:14:22.571Z","response":"2nd","certainty":"high","char":"L","transposition":-2,"order":["shifted","swapped"],"probe_pitches":[12,14,9,8,15,6,14,15],"shifted_pitches":[12,14,9,7,15,6,14,15],"swapped_pitches":[12,14,9,15,8,6,14,15],"shift_direction":-1,"question_num":181,"has_decoy":false},{"rt":731.4000000953674,"stimulus":"[A] option 1, [L] option 2, [G] neither","key_press":65,"name":"choice","trial_type":"html-keyboard-response","trial_index":219,"time_elapsed":322090,"internal_node_id":"0.0-219.0","subject":"S1C0810","sona":"41444","block":2,"time":"2021-09-15T15:14:22.571Z","response":"1st","certainty":"high","char":"A","transposition":-2,"order":["swapped","shifted"],"probe_pitches":[12,7,5,9,7,5,2,9],"shifted_pitches":[12,7,5,9,6,5,2,9],"swapped_pitches":[12,7,5,7,9,5,2,9],"shift_direction":-1,"question_num":191,"has_decoy":false}]