[{"rt":1955.699999999255,"stimulus":"[A] option 1, [L] option 2, [G] neither","key_press":71,"name":"choice","trial_type":"html-keyboard-response","trial_index":10,"time_elapsed":22894,"internal_node_id":"0.0-10.0","subject":"S1C1207","sona":"41026","block":2,"time":"2021-09-07T02:10:38.391Z","response":"neither","certainty":"high","char":"G","transposition":3,"order":["shifted","swapped"],"probe_pitches":[7,4,11,4,2,4,7,9,11,14,9,4],"shifted_pitches":[7,4,11,4,2,5,7,9,11,14,9,4],"swapped_pitches":[7,4,11,4,2,7,4,9,11,14,9,4],"shift_direction":1,"question_num":1,"has_decoy":false},{"rt":2185.199999999255,"stimulus":"[A] option 1, [L] option 2, [G] neither","key_press":65,"name":"choice","trial_type":"html-keyboard-response","trial_index":21,"time_elapsed":79245,"internal_node_id":"0.0-21.0","subject":"S1C1207","sona":"41026","block":2,"time":"2021-09-07T02:10:38.391Z","response":"1st","certainty":"high","char":"A","transposition":-2,"order":["swapped","shifted"],"probe_pitches":[11,14,9,2,11,9,6,11,2,11,4,9],"shifted_pitches":[11,14,9,2,11,9,5,11,2,11,4,9],"swapped_pitches":[11,14,9,2,11,6,9,11,2,11,4,9],"shift_direction":-1,"question_num":11,"has_decoy":false},{"rt":18608.89999999851,"stimulus":"[A] option 1, [L] option 2, [G] neither","key_press":76,"name":"choice","trial_type":"html-keyboard-response","trial_index":32,"time_elapsed":347826,"internal_node_id":"0.0-32.0","subject":"S1C1207","sona":"41026","block":2,"time":"2021-09-07T02:10:38.391Z","response":"2nd","certainty":"high","char":"L","transposition":-2,"order":["swapped","shifted"],"probe_pitches":[7,10,6,5,6,10,5,1,8,11,8,6],"shifted_pitches":[7,10,6,5,6,9,5,1,8,11,8,6],"swapped_pitches":[7,10,6,5,6,5,10,1,8,11,8,6],"shift_direction":-1,"question_num":21,"has_decoy":false},{"rt":2137.5,"stimulus":"[A] option 1, [L] option 2, [G] neither","key_press":76,"name":"choice","trial_type":"html-keyboard-response","trial_index":43,"time_elapsed":376064,"internal_node_id":"0.0-43.0","subject":"S1C1207","sona":"41026","block":2,"time":"2021-09-07T02:10:38.391Z","response":"2nd","certainty":"high","char":"L","transposition":-3,"order":["shifted","swapped"],"probe_pitches":[-1,3,4,3,10,5,0,4,11,6,10,6],"shifted_pitches":[-1,3,4,3,10,5,1,4,11,6,10,6],"swapped_pitches":[-1,3,4,3,10,0,5,4,11,6,10,6],"shift_direction":1,"question_num":31,"has_decoy":false},{"rt":536.1999999992549,"stimulus":"[A] option 1, [L] option 2, [G] neither","key_press":65,"name":"choice","trial_type":"html-keyboard-response","trial_index":54,"time_elapsed":396643,"internal_node_id":"0.0-54.0","subject":"S1C1207","sona":"41026","block":2,"time":"2021-09-07T02:10:38.391Z","response":"1st","certainty":"high","char":"A","transposition":-1,"order":["swapped","shifted"],"probe_pitches":[11,6,11,6,4,6,14,2,9,6,11,6],"shifted_pitches":[11,6,11,6,4,6,15,2,9,6,11,6],"swapped_pitches":[11,6,11,6,4,14,6,2,9,6,11,6],"shift_direction":1,"question_num":41,"has_decoy":false},{"rt":912.3000000007451,"stimulus":"[A] option 1, [L] option 2, [G] neither","key_press":71,"name":"choice","trial_type":"html-keyboard-response","trial_index":65,"time_elapsed":416081,"internal_node_id":"0.0-65.0","subject":"S1C1207","sona":"41026","block":2,"time":"2021-09-07T02:10:38.391Z","response":"neither","certainty":"high","char":"G","transposition":-2,"order":["shifted","swapped"],"probe_pitches":[0,3,10,4,10,8,4,0,8,3,0,10],"shifted_pitches":[0,3,10,4,10,7,4,0,8,3,0,10],"swapped_pitches":[0,3,10,4,10,4,8,0,8,3,0,10],"shift_direction":-1,"question_num":51,"has_decoy":false},{"rt":13243.60000000149,"stimulus":"[A] option 1, [L] option 2, [G] neither","key_press":71,"name":"choice","trial_type":"html-keyboard-response","trial_index":76,"time_elapsed":449589,"internal_node_id":"0.0-76.0","subject":"S1C1207","sona":"41026","block":2,"time":"2021-09-07T02:10:38.391Z","response":"neither","certainty":"high","char":"G","transposition":-3,"order":["shifted","swapped"],"probe_pitches":[5,7,9,12,9,2,5,14,9,12,5,12],"shifted_pitches":[5,7,9,12,9,1,5,14,9,12,5,12],"swapped_pitches":[5,7,9,12,9,5,2,14,9,12,5,12],"shift_direction":-1,"question_num":61,"has_decoy":false},{"rt":2893.599999997765,"stimulus":"[A] option 1, [L] option 2, [G] neither","key_press":71,"name":"choice","trial_type":"html-keyboard-response","trial_index":87,"time_elapsed":487051,"internal_node_id":"0.0-87.0","subject":"S1C1207","sona":"41026","block":2,"time":"2021-09-07T02:10:38.391Z","response":"neither","certainty":"high","char":"G","transposition":-2,"order":["swapped","shifted"],"probe_pitches":[9,11,7,4,11,14,4,7,14,9,14,11],"shifted_pitches":[9,11,7,4,11,14,5,7,14,9,14,11],"swapped_pitches":[9,11,7,4,11,4,14,7,14,9,14,11],"shift_direction":1,"question_num":71,"has_decoy":false},{"rt":5514.300000000745,"stimulus":"[A] option 1, [L] option 2, [G] neither","key_press":65,"name":"choice","trial_type":"html-keyboard-response","trial_index":98,"time_elapsed":512252,"internal_node_id":"0.0-98.0","subject":"S1C1207","sona":"41026","block":2,"time":"2021-09-07T02:10:38.391Z","response":"1st","certainty":"high","char":"A","transposition":0,"order":["shifted","swapped"],"probe_pitches":[7,5,7,14,12,2,7,5,10,14,10,14],"shifted_pitches":[7,5,7,14,12,3,7,5,10,14,10,14],"swapped_pitches":[7,5,7,14,12,7,2,5,10,14,10,14],"shift_direction":1,"question_num":81,"has_decoy":false},{"rt":1527.699999999255,"stimulus":"[A] option 1, [L] option 2, [G] neither","key_press":71,"name":"choice","trial_type":"html-keyboard-response","trial_index":109,"time_elapsed":534295,"internal_node_id":"0.0-109.0","subject":"S1C1207","sona":"41026","block":2,"time":"2021-09-07T02:10:38.391Z","response":"neither","certainty":"high","char":"G","transposition":-1,"order":["swapped","shifted"],"probe_pitches":[1,2,5,4,0,9,7,1,2,9,0,11],"shifted_pitches":[1,2,5,4,0,9,8,1,2,9,0,11],"swapped_pitches":[1,2,5,4,0,7,9,1,2,9,0,11],"shift_direction":1,"question_num":91,"has_decoy":false},{"rt":14079.89999999851,"stimulus":"[A] option 1, [L] option 2, [G] neither","key_press":71,"name":"choice","trial_type":"html-keyboard-response","trial_index":120,"time_elapsed":567057,"internal_node_id":"0.0-120.0","subject":"S1C1207","sona":"41026","block":2,"time":"2021-09-07T02:10:38.391Z","response":"neither","certainty":"high","char":"G","transposition":-1,"order":["swapped","shifted"],"probe_pitches":[5,10,14,7,2,7,10,2,12,2,7,10],"shifted_pitches":[5,10,14,7,2,7,9,2,12,2,7,10],"swapped_pitches":[5,10,14,7,2,10,7,2,12,2,7,10],"shift_direction":-1,"question_num":101,"has_decoy":false},{"rt":3087.699999999255,"stimulus":"[A] option 1, [L] option 2, [G] neither","key_press":71,"name":"choice","trial_type":"html-keyboard-response","trial_index":131,"time_elapsed":595655,"internal_node_id":"0.0-131.0","subject":"S1C1207","sona":"41026","block":2,"time":"2021-09-07T02:10:38.391Z","response":"neither","certainty":"high","char":"G","transposition":-3,"order":["shifted","swapped"],"probe_pitches":[9,12,9,2,7,14,12,5,9,2,14,12],"shifted_pitches":[9,12,9,2,7,13,12,5,9,2,14,12],"swapped_pitches":[9,12,9,2,7,12,14,5,9,2,14,12],"shift_direction":-1,"question_num":111,"has_decoy":false},{"rt":1334.5,"stimulus":"[A] option 1, [L] option 2, [G] neither","key_press":71,"name":"choice","trial_type":"html-keyboard-response","trial_index":142,"time_elapsed":634032,"internal_node_id":"0.0-142.0","subject":"S1C1207","sona":"41026","block":2,"time":"2021-09-07T02:10:38.391Z","response":"neither","certainty":"high","char":"G","transposition":2,"order":["shifted","swapped"],"probe_pitches":[7,4,2,9,12,2,4,14,7,4,12,2],"shifted_pitches":[7,4,2,9,12,2,5,14,7,4,12,2],"swapped_pitches":[7,4,2,9,12,4,2,14,7,4,12,2],"shift_direction":1,"question_num":121,"has_decoy":false},{"rt":379.5999999977648,"stimulus":"[A] option 1, [L] option 2, [G] neither","key_press":76,"name":"choice","trial_type":"html-keyboard-response","trial_index":153,"time_elapsed":666327,"internal_node_id":"0.0-153.0","subject":"S1C1207","sona":"41026","block":2,"time":"2021-09-07T02:10:38.391Z","response":"2nd","certainty":"high","char":"L","transposition":3,"order":["swapped","shifted"],"probe_pitches":[3,4,2,4,8,9,3,11,2,11,2,3],"shifted_pitches":[3,4,2,4,8,10,3,11,2,11,2,3],"swapped_pitches":[3,4,2,4,8,3,9,11,2,11,2,3],"shift_direction":1,"question_num":131,"has_decoy":false},{"rt":4601.89999999851,"stimulus":"[A] option 1, [L] option 2, [G] neither","key_press":71,"name":"choice","trial_type":"html-keyboard-response","trial_index":164,"time_elapsed":689219,"internal_node_id":"0.0-164.0","subject":"S1C1207","sona":"41026","block":2,"time":"2021-09-07T02:10:38.391Z","response":"neither","certainty":"high","char":"G","transposition":0,"order":["shifted","swapped"],"probe_pitches":[0,2,8,10,7,1,6,9,2,8,11,2],"shifted_pitches":[0,2,8,10,7,1,5,9,2,8,11,2],"swapped_pitches":[0,2,8,10,7,6,1,9,2,8,11,2],"shift_direction":-1,"question_num":141,"has_decoy":false},{"rt":730.8999999985099,"stimulus":"[A] option 1, [L] option 2, [G] neither","key_press":76,"name":"choice","trial_type":"html-keyboard-response","trial_index":175,"time_elapsed":714317,"internal_node_id":"0.0-175.0","subject":"S1C1207","sona":"41026","block":2,"time":"2021-09-07T02:10:38.391Z","response":"2nd","certainty":"high","char":"L","transposition":1,"order":["shifted","swapped"],"probe_pitches":[0,-1,2,-1,7,4,5,3,4,2,7,1],"shifted_pitches":[0,-1,2,-1,7,4,6,3,4,2,7,1],"swapped_pitches":[0,-1,2,-1,7,5,4,3,4,2,7,1],"shift_direction":1,"question_num":151,"has_decoy":false},{"rt":6512.10000000149,"stimulus":"[A] option 1, [L] option 2, [G] neither","key_press":71,"name":"choice","trial_type":"html-keyboard-response","trial_index":186,"time_elapsed":739359,"internal_node_id":"0.0-186.0","subject":"S1C1207","sona":"41026","block":2,"time":"2021-09-07T02:10:38.391Z","response":"neither","certainty":"high","char":"G","transposition":-3,"order":["swapped","shifted"],"probe_pitches":[0,6,5,10,11,3,1,4,10,1,0,5],"shifted_pitches":[0,6,5,10,11,2,1,4,10,1,0,5],"swapped_pitches":[0,6,5,10,11,1,3,4,10,1,0,5],"shift_direction":-1,"question_num":161,"has_decoy":false},{"rt":11764246.400000002,"stimulus":"[A] option 1, [L] option 2, [G] neither","key_press":71,"name":"choice","trial_type":"html-keyboard-response","trial_index":197,"time_elapsed":12523547,"internal_node_id":"0.0-197.0","subject":"S1C1207","sona":"41026","block":2,"time":"2021-09-07T02:10:38.391Z","response":"neither","certainty":"high","char":"G","transposition":-1,"order":["swapped","shifted"],"probe_pitches":[1,0,6,1,9,5,2,10,3,7,10,9],"shifted_pitches":[1,0,6,1,9,4,2,10,3,7,10,9],"swapped_pitches":[1,0,6,1,9,2,5,10,3,7,10,9],"shift_direction":-1,"question_num":171,"has_decoy":false},{"rt":2506.6999999955297,"stimulus":"[A] option 1, [L] option 2, [G] neither","key_press":76,"name":"choice","trial_type":"html-keyboard-response","trial_index":208,"time_elapsed":12556039,"internal_node_id":"0.0-208.0","subject":"S1C1207","sona":"41026","block":2,"time":"2021-09-07T02:10:38.391Z","response":"2nd","certainty":"high","char":"L","transposition":1,"order":["swapped","shifted"],"probe_pitches":[2,7,14,9,12,2,9,4,12,7,4,7],"shifted_pitches":[2,7,14,9,12,1,9,4,12,7,4,7],"swapped_pitches":[2,7,14,9,12,9,2,4,12,7,4,7],"shift_direction":-1,"question_num":181,"has_decoy":false},{"rt":2428,"stimulus":"[A] option 1, [L] option 2, [G] neither","key_press":71,"name":"choice","trial_type":"html-keyboard-response","trial_index":219,"time_elapsed":12578709,"internal_node_id":"0.0-219.0","subject":"S1C1207","sona":"41026","block":2,"time":"2021-09-07T02:10:38.391Z","response":"neither","certainty":"high","char":"G","transposition":2,"order":["shifted","swapped"],"probe_pitches":[7,2,0,7,11,4,2,0,6,11,2,-1],"shifted_pitches":[7,2,0,7,11,4,3,0,6,11,2,-1],"swapped_pitches":[7,2,0,7,11,2,4,0,6,11,2,-1],"shift_direction":1,"question_num":191,"has_decoy":false}]