[{"rt":899.7000000029802,"stimulus":"[A] option 1, [L] option 2, [G] neither","key_press":71,"name":"choice","trial_type":"html-keyboard-response","trial_index":10,"time_elapsed":22677,"internal_node_id":"0.0-10.0","subject":"S1C1207","sona":"41026","block":5,"time":"2021-09-07T02:34:11.175Z","response":"neither","certainty":"high","char":"G","transposition":-2,"order":["swapped","shifted"],"probe_pitches":[8,2,5,8,7,5,4,-1,10,-2,9,8],"shifted_pitches":[8,2,5,8,7,5,3,-1,10,-2,9,8],"swapped_pitches":[8,2,5,8,7,4,5,-1,10,-2,9,8],"shift_direction":-1,"question_num":1,"has_decoy":false},{"rt":744.1999999955297,"stimulus":"[A] option 1, [L] option 2, [G] neither","key_press":71,"name":"choice","trial_type":"html-keyboard-response","trial_index":21,"time_elapsed":42342,"internal_node_id":"0.0-21.0","subject":"S1C1207","sona":"41026","block":5,"time":"2021-09-07T02:34:11.175Z","response":"neither","certainty":"high","char":"G","transposition":-1,"order":["swapped","shifted"],"probe_pitches":[8,5,8,1,3,10,5,-2,10,-2,3,1],"shifted_pitches":[8,5,8,1,3,10,6,-2,10,-2,3,1],"swapped_pitches":[8,5,8,1,3,5,10,-2,10,-2,3,1],"shift_direction":1,"question_num":11,"has_decoy":false},{"rt":857.3999999985099,"stimulus":"[A] option 1, [L] option 2, [G] neither","key_press":71,"name":"choice","trial_type":"html-keyboard-response","trial_index":32,"time_elapsed":62855,"internal_node_id":"0.0-32.0","subject":"S1C1207","sona":"41026","block":5,"time":"2021-09-07T02:34:11.175Z","response":"neither","certainty":"high","char":"G","transposition":2,"order":["swapped","shifted"],"probe_pitches":[2,5,9,6,8,3,-1,9,2,3,1,0],"shifted_pitches":[2,5,9,6,8,4,-1,9,2,3,1,0],"swapped_pitches":[2,5,9,6,8,-1,3,9,2,3,1,0],"shift_direction":1,"question_num":21,"has_decoy":false},{"rt":958.5,"stimulus":"[A] option 1, [L] option 2, [G] neither","key_press":71,"name":"choice","trial_type":"html-keyboard-response","trial_index":43,"time_elapsed":84378,"internal_node_id":"0.0-43.0","subject":"S1C1207","sona":"41026","block":5,"time":"2021-09-07T02:34:11.175Z","response":"neither","certainty":"high","char":"G","transposition":-2,"order":["shifted","swapped"],"probe_pitches":[3,7,1,3,2,1,8,3,6,4,1,-1],"shifted_pitches":[3,7,1,3,2,0,8,3,6,4,1,-1],"swapped_pitches":[3,7,1,3,2,8,1,3,6,4,1,-1],"shift_direction":-1,"question_num":31,"has_decoy":false},{"rt":1283.4000000059605,"stimulus":"[A] option 1, [L] option 2, [G] neither","key_press":71,"name":"choice","trial_type":"html-keyboard-response","trial_index":54,"time_elapsed":106541,"internal_node_id":"0.0-54.0","subject":"S1C1207","sona":"41026","block":5,"time":"2021-09-07T02:34:11.175Z","response":"neither","certainty":"high","char":"G","transposition":0,"order":["swapped","shifted"],"probe_pitches":[8,3,6,10,1,-2,3,10,1,3,6,8],"shifted_pitches":[8,3,6,10,1,-3,3,10,1,3,6,8],"swapped_pitches":[8,3,6,10,1,3,-2,10,1,3,6,8],"shift_direction":-1,"question_num":41,"has_decoy":false},{"rt":494,"stimulus":"[A] option 1, [L] option 2, [G] neither","key_press":71,"name":"choice","trial_type":"html-keyboard-response","trial_index":65,"time_elapsed":125274,"internal_node_id":"0.0-65.0","subject":"S1C1207","sona":"41026","block":5,"time":"2021-09-07T02:34:11.175Z","response":"neither","certainty":"high","char":"G","transposition":1,"order":["shifted","swapped"],"probe_pitches":[-2,0,3,0,4,10,6,3,7,-2,-1,4],"shifted_pitches":[-2,0,3,0,4,9,6,3,7,-2,-1,4],"swapped_pitches":[-2,0,3,0,4,6,10,3,7,-2,-1,4],"shift_direction":-1,"question_num":51,"has_decoy":false},{"rt":10841.29999999702,"stimulus":"[A] option 1, [L] option 2, [G] neither","key_press":71,"name":"choice","trial_type":"html-keyboard-response","trial_index":76,"time_elapsed":155309,"internal_node_id":"0.0-76.0","subject":"S1C1207","sona":"41026","block":5,"time":"2021-09-07T02:34:11.175Z","response":"neither","certainty":"high","char":"G","transposition":-1,"order":["shifted","swapped"],"probe_pitches":[7,4,-2,5,6,0,2,3,5,10,0,-1],"shifted_pitches":[7,4,-2,5,6,1,2,3,5,10,0,-1],"swapped_pitches":[7,4,-2,5,6,2,0,3,5,10,0,-1],"shift_direction":1,"question_num":61,"has_decoy":false},{"rt":3056,"stimulus":"[A] option 1, [L] option 2, [G] neither","key_press":71,"name":"choice","trial_type":"html-keyboard-response","trial_index":87,"time_elapsed":177035,"internal_node_id":"0.0-87.0","subject":"S1C1207","sona":"41026","block":5,"time":"2021-09-07T02:34:11.175Z","response":"neither","certainty":"high","char":"G","transposition":-3,"order":["swapped","shifted"],"probe_pitches":[4,2,-2,6,2,6,7,0,1,3,5,3],"shifted_pitches":[4,2,-2,6,2,6,8,0,1,3,5,3],"swapped_pitches":[4,2,-2,6,2,7,6,0,1,3,5,3],"shift_direction":1,"question_num":71,"has_decoy":false},{"rt":1091.1000000014901,"stimulus":"[A] option 1, [L] option 2, [G] neither","key_press":71,"name":"choice","trial_type":"html-keyboard-response","trial_index":98,"time_elapsed":197610,"internal_node_id":"0.0-98.0","subject":"S1C1207","sona":"41026","block":5,"time":"2021-09-07T02:34:11.175Z","response":"neither","certainty":"high","char":"G","transposition":1,"order":["shifted","swapped"],"probe_pitches":[2,7,2,10,2,10,0,-2,5,7,5,-2],"shifted_pitches":[2,7,2,10,2,11,0,-2,5,7,5,-2],"swapped_pitches":[2,7,2,10,2,0,10,-2,5,7,5,-2],"shift_direction":1,"question_num":81,"has_decoy":false},{"rt":909.2000000029802,"stimulus":"[A] option 1, [L] option 2, [G] neither","key_press":71,"name":"choice","trial_type":"html-keyboard-response","trial_index":109,"time_elapsed":217789,"internal_node_id":"0.0-109.0","subject":"S1C1207","sona":"41026","block":5,"time":"2021-09-07T02:34:11.175Z","response":"neither","certainty":"high","char":"G","transposition":3,"order":["swapped","shifted"],"probe_pitches":[3,6,1,-1,8,10,6,3,8,-2,3,2],"shifted_pitches":[3,6,1,-1,8,10,5,3,8,-2,3,2],"swapped_pitches":[3,6,1,-1,8,6,10,3,8,-2,3,2],"shift_direction":-1,"question_num":91,"has_decoy":false},{"rt":953.2000000029802,"stimulus":"[A] option 1, [L] option 2, [G] neither","key_press":71,"name":"choice","trial_type":"html-keyboard-response","trial_index":120,"time_elapsed":241272,"internal_node_id":"0.0-120.0","subject":"S1C1207","sona":"41026","block":5,"time":"2021-09-07T02:34:11.175Z","response":"neither","certainty":"high","char":"G","transposition":-2,"order":["shifted","swapped"],"probe_pitches":[5,10,8,10,5,-2,0,5,3,0,3,5],"shifted_pitches":[5,10,8,10,5,-2,-1,5,3,0,3,5],"swapped_pitches":[5,10,8,10,5,0,-2,5,3,0,3,5],"shift_direction":-1,"question_num":101,"has_decoy":false},{"rt":2627.60000000149,"stimulus":"[A] option 1, [L] option 2, [G] neither","key_press":71,"name":"choice","trial_type":"html-keyboard-response","trial_index":131,"time_elapsed":264167,"internal_node_id":"0.0-131.0","subject":"S1C1207","sona":"41026","block":5,"time":"2021-09-07T02:34:11.175Z","response":"neither","certainty":"high","char":"G","transposition":-3,"order":["shifted","swapped"],"probe_pitches":[7,2,7,0,5,0,7,10,2,-2,0,7],"shifted_pitches":[7,2,7,0,5,0,8,10,2,-2,0,7],"swapped_pitches":[7,2,7,0,5,7,0,10,2,-2,0,7],"shift_direction":1,"question_num":111,"has_decoy":false},{"rt":487.20000000298023,"stimulus":"[A] option 1, [L] option 2, [G] neither","key_press":71,"name":"choice","trial_type":"html-keyboard-response","trial_index":142,"time_elapsed":283586,"internal_node_id":"0.0-142.0","subject":"S1C1207","sona":"41026","block":5,"time":"2021-09-07T02:34:11.175Z","response":"neither","certainty":"high","char":"G","transposition":3,"order":["shifted","swapped"],"probe_pitches":[10,6,1,3,6,8,3,10,8,-2,10,3],"shifted_pitches":[10,6,1,3,6,8,2,10,8,-2,10,3],"swapped_pitches":[10,6,1,3,6,3,8,10,8,-2,10,3],"shift_direction":-1,"question_num":121,"has_decoy":false},{"rt":6746.20000000298,"stimulus":"[A] option 1, [L] option 2, [G] neither","key_press":71,"name":"choice","trial_type":"html-keyboard-response","trial_index":153,"time_elapsed":309074,"internal_node_id":"0.0-153.0","subject":"S1C1207","sona":"41026","block":5,"time":"2021-09-07T02:34:11.175Z","response":"neither","certainty":"high","char":"G","transposition":-1,"order":["swapped","shifted"],"probe_pitches":[-2,-1,-2,-1,6,9,1,7,3,6,1,7],"shifted_pitches":[-2,-1,-2,-1,6,9,2,7,3,6,1,7],"swapped_pitches":[-2,-1,-2,-1,6,1,9,7,3,6,1,7],"shift_direction":1,"question_num":131,"has_decoy":false},{"rt":4265.79999999702,"stimulus":"[A] option 1, [L] option 2, [G] neither","key_press":71,"name":"choice","trial_type":"html-keyboard-response","trial_index":164,"time_elapsed":332624,"internal_node_id":"0.0-164.0","subject":"S1C1207","sona":"41026","block":5,"time":"2021-09-07T02:34:11.175Z","response":"neither","certainty":"high","char":"G","transposition":-3,"order":["shifted","swapped"],"probe_pitches":[0,6,0,5,4,8,0,10,3,10,4,8],"shifted_pitches":[0,6,0,5,4,7,0,10,3,10,4,8],"swapped_pitches":[0,6,0,5,4,0,8,10,3,10,4,8],"shift_direction":-1,"question_num":141,"has_decoy":false},{"rt":783.3999999985099,"stimulus":"[A] option 1, [L] option 2, [G] neither","key_press":71,"name":"choice","trial_type":"html-keyboard-response","trial_index":175,"time_elapsed":352091,"internal_node_id":"0.0-175.0","subject":"S1C1207","sona":"41026","block":5,"time":"2021-09-07T02:34:11.175Z","response":"neither","certainty":"high","char":"G","transposition":-3,"order":["swapped","shifted"],"probe_pitches":[10,7,5,0,5,-2,3,5,-2,3,0,-2],"shifted_pitches":[10,7,5,0,5,-2,4,5,-2,3,0,-2],"swapped_pitches":[10,7,5,0,5,3,-2,5,-2,3,0,-2],"shift_direction":1,"question_num":151,"has_decoy":false},{"rt":1511,"stimulus":"[A] option 1, [L] option 2, [G] neither","key_press":71,"name":"choice","trial_type":"html-keyboard-response","trial_index":186,"time_elapsed":372108,"internal_node_id":"0.0-186.0","subject":"S1C1207","sona":"41026","block":5,"time":"2021-09-07T02:34:11.175Z","response":"neither","certainty":"high","char":"G","transposition":0,"order":["shifted","swapped"],"probe_pitches":[3,9,2,7,1,-2,5,9,10,9,4,-1],"shifted_pitches":[3,9,2,7,1,-2,6,9,10,9,4,-1],"swapped_pitches":[3,9,2,7,1,5,-2,9,10,9,4,-1],"shift_direction":1,"question_num":161,"has_decoy":false},{"rt":6704.79999999702,"stimulus":"[A] option 1, [L] option 2, [G] neither","key_press":71,"name":"choice","trial_type":"html-keyboard-response","trial_index":197,"time_elapsed":398243,"internal_node_id":"0.0-197.0","subject":"S1C1207","sona":"41026","block":5,"time":"2021-09-07T02:34:11.175Z","response":"neither","certainty":"high","char":"G","transposition":2,"order":["swapped","shifted"],"probe_pitches":[8,5,0,-2,0,3,5,8,10,0,8,5],"shifted_pitches":[8,5,0,-2,0,2,5,8,10,0,8,5],"swapped_pitches":[8,5,0,-2,0,5,3,8,10,0,8,5],"shift_direction":-1,"question_num":171,"has_decoy":false},{"rt":1574.9000000059605,"stimulus":"[A] option 1, [L] option 2, [G] neither","key_press":71,"name":"choice","trial_type":"html-keyboard-response","trial_index":208,"time_elapsed":419932,"internal_node_id":"0.0-208.0","subject":"S1C1207","sona":"41026","block":5,"time":"2021-09-07T02:34:11.175Z","response":"neither","certainty":"high","char":"G","transposition":-2,"order":["swapped","shifted"],"probe_pitches":[5,7,0,3,0,10,5,7,10,7,5,-2],"shifted_pitches":[5,7,0,3,0,9,5,7,10,7,5,-2],"swapped_pitches":[5,7,0,3,0,5,10,7,10,7,5,-2],"shift_direction":-1,"question_num":181,"has_decoy":false},{"rt":3515.10000000149,"stimulus":"[A] option 1, [L] option 2, [G] neither","key_press":71,"name":"choice","trial_type":"html-keyboard-response","trial_index":219,"time_elapsed":448004,"internal_node_id":"0.0-219.0","subject":"S1C1207","sona":"41026","block":5,"time":"2021-09-07T02:34:11.175Z","response":"neither","certainty":"high","char":"G","transposition":-1,"order":["shifted","swapped"],"probe_pitches":[10,8,5,1,-2,1,8,-2,8,3,8,5],"shifted_pitches":[10,8,5,1,-2,2,8,-2,8,3,8,5],"swapped_pitches":[10,8,5,1,-2,8,1,-2,8,3,8,5],"shift_direction":1,"question_num":191,"has_decoy":false}]