[{"rt":1466.2000000029802,"stimulus":"[A] option 1, [L] option 2, [G] neither","key_press":65,"name":"choice","trial_type":"html-keyboard-response","trial_index":10,"time_elapsed":21722,"internal_node_id":"0.0-10.0","subject":"S1C1207","sona":"41026","block":3,"time":"2021-09-07T02:19:20.322Z","response":"1st","certainty":"high","char":"A","transposition":3,"order":["swapped","shifted"],"probe_pitches":[1,3,1,8,11,6,1,3,6,8,3,8],"shifted_pitches":[1,3,1,8,11,6,0,3,6,8,3,8],"swapped_pitches":[1,3,1,8,11,1,6,3,6,8,3,8],"shift_direction":-1,"question_num":1,"has_decoy":false},{"rt":2728.3000000044703,"stimulus":"[A] option 1, [L] option 2, [G] neither","key_press":71,"name":"choice","trial_type":"html-keyboard-response","trial_index":21,"time_elapsed":45803,"internal_node_id":"0.0-21.0","subject":"S1C1207","sona":"41026","block":3,"time":"2021-09-07T02:19:20.322Z","response":"neither","certainty":"high","char":"G","transposition":-3,"order":["swapped","shifted"],"probe_pitches":[0,2,4,0,1,5,6,0,-1,5,-1,-2],"shifted_pitches":[0,2,4,0,1,5,7,0,-1,5,-1,-2],"swapped_pitches":[0,2,4,0,1,6,5,0,-1,5,-1,-2],"shift_direction":1,"question_num":11,"has_decoy":false},{"rt":18063.39999999851,"stimulus":"[A] option 1, [L] option 2, [G] neither","key_press":71,"name":"choice","trial_type":"html-keyboard-response","trial_index":32,"time_elapsed":85148,"internal_node_id":"0.0-32.0","subject":"S1C1207","sona":"41026","block":3,"time":"2021-09-07T02:19:20.322Z","response":"neither","certainty":"high","char":"G","transposition":-2,"order":["shifted","swapped"],"probe_pitches":[6,5,1,6,-2,3,5,0,-2,3,5,0],"shifted_pitches":[6,5,1,6,-2,3,4,0,-2,3,5,0],"swapped_pitches":[6,5,1,6,-2,5,3,0,-2,3,5,0],"shift_direction":-1,"question_num":21,"has_decoy":false},{"rt":1241.3999999985099,"stimulus":"[A] option 1, [L] option 2, [G] neither","key_press":71,"name":"choice","trial_type":"html-keyboard-response","trial_index":43,"time_elapsed":105966,"internal_node_id":"0.0-43.0","subject":"S1C1207","sona":"41026","block":3,"time":"2021-09-07T02:19:20.322Z","response":"neither","certainty":"high","char":"G","transposition":1,"order":["shifted","swapped"],"probe_pitches":[1,3,8,1,3,6,11,8,13,11,8,1],"shifted_pitches":[1,3,8,1,3,5,11,8,13,11,8,1],"swapped_pitches":[1,3,8,1,3,11,6,8,13,11,8,1],"shift_direction":-1,"question_num":31,"has_decoy":false},{"rt":14771.90000000596,"stimulus":"[A] option 1, [L] option 2, [G] neither","key_press":76,"name":"choice","trial_type":"html-keyboard-response","trial_index":54,"time_elapsed":140457,"internal_node_id":"0.0-54.0","subject":"S1C1207","sona":"41026","block":3,"time":"2021-09-07T02:19:20.322Z","response":"2nd","certainty":"high","char":"L","transposition":-2,"order":["swapped","shifted"],"probe_pitches":[9,4,9,4,9,11,1,13,1,6,9,4],"shifted_pitches":[9,4,9,4,9,11,2,13,1,6,9,4],"swapped_pitches":[9,4,9,4,9,1,11,13,1,6,9,4],"shift_direction":1,"question_num":41,"has_decoy":false},{"rt":9183.30000000447,"stimulus":"[A] option 1, [L] option 2, [G] neither","key_press":71,"name":"choice","trial_type":"html-keyboard-response","trial_index":65,"time_elapsed":170909,"internal_node_id":"0.0-65.0","subject":"S1C1207","sona":"41026","block":3,"time":"2021-09-07T02:19:20.322Z","response":"neither","certainty":"high","char":"G","transposition":-3,"order":["swapped","shifted"],"probe_pitches":[13,10,8,13,8,3,5,13,5,13,1,3],"shifted_pitches":[13,10,8,13,8,3,4,13,5,13,1,3],"swapped_pitches":[13,10,8,13,8,5,3,13,5,13,1,3],"shift_direction":-1,"question_num":51,"has_decoy":false},{"rt":4189.60000000149,"stimulus":"[A] option 1, [L] option 2, [G] neither","key_press":65,"name":"choice","trial_type":"html-keyboard-response","trial_index":76,"time_elapsed":194545,"internal_node_id":"0.0-76.0","subject":"S1C1207","sona":"41026","block":3,"time":"2021-09-07T02:19:20.322Z","response":"1st","certainty":"high","char":"A","transposition":-2,"order":["shifted","swapped"],"probe_pitches":[8,7,3,6,5,0,4,9,2,8,2,4],"shifted_pitches":[8,7,3,6,5,-1,4,9,2,8,2,4],"swapped_pitches":[8,7,3,6,5,4,0,9,2,8,2,4],"shift_direction":-1,"question_num":61,"has_decoy":false},{"rt":5044.60000000149,"stimulus":"[A] option 1, [L] option 2, [G] neither","key_press":65,"name":"choice","trial_type":"html-keyboard-response","trial_index":87,"time_elapsed":218890,"internal_node_id":"0.0-87.0","subject":"S1C1207","sona":"41026","block":3,"time":"2021-09-07T02:19:20.322Z","response":"1st","certainty":"high","char":"A","transposition":0,"order":["swapped","shifted"],"probe_pitches":[1,3,6,1,8,13,6,1,3,10,3,10],"shifted_pitches":[1,3,6,1,8,14,6,1,3,10,3,10],"swapped_pitches":[1,3,6,1,8,6,13,1,3,10,3,10],"shift_direction":1,"question_num":71,"has_decoy":false},{"rt":5463.20000000298,"stimulus":"[A] option 1, [L] option 2, [G] neither","key_press":76,"name":"choice","trial_type":"html-keyboard-response","trial_index":98,"time_elapsed":243868,"internal_node_id":"0.0-98.0","subject":"S1C1207","sona":"41026","block":3,"time":"2021-09-07T02:19:20.322Z","response":"2nd","certainty":"high","char":"L","transposition":-1,"order":["shifted","swapped"],"probe_pitches":[9,4,11,4,13,6,1,4,6,11,6,4],"shifted_pitches":[9,4,11,4,13,5,1,4,6,11,6,4],"swapped_pitches":[9,4,11,4,13,1,6,4,6,11,6,4],"shift_direction":-1,"question_num":81,"has_decoy":false},{"rt":5742.19999999553,"stimulus":"[A] option 1, [L] option 2, [G] neither","key_press":71,"name":"choice","trial_type":"html-keyboard-response","trial_index":109,"time_elapsed":272118,"internal_node_id":"0.0-109.0","subject":"S1C1207","sona":"41026","block":3,"time":"2021-09-07T02:19:20.322Z","response":"neither","certainty":"high","char":"G","transposition":-1,"order":["swapped","shifted"],"probe_pitches":[2,0,-1,4,8,7,4,-1,8,1,4,1],"shifted_pitches":[2,0,-1,4,8,7,3,-1,8,1,4,1],"swapped_pitches":[2,0,-1,4,8,4,7,-1,8,1,4,1],"shift_direction":-1,"question_num":91,"has_decoy":false},{"rt":2322.8000000044703,"stimulus":"[A] option 1, [L] option 2, [G] neither","key_press":71,"name":"choice","trial_type":"html-keyboard-response","trial_index":120,"time_elapsed":302618,"internal_node_id":"0.0-120.0","subject":"S1C1207","sona":"41026","block":3,"time":"2021-09-07T02:19:20.322Z","response":"neither","certainty":"high","char":"G","transposition":-1,"order":["swapped","shifted"],"probe_pitches":[4,6,11,4,11,4,8,11,1,4,8,11],"shifted_pitches":[4,6,11,4,11,4,9,11,1,4,8,11],"swapped_pitches":[4,6,11,4,11,8,4,11,1,4,8,11],"shift_direction":1,"question_num":101,"has_decoy":false},{"rt":815.1000000014901,"stimulus":"[A] option 1, [L] option 2, [G] neither","key_press":76,"name":"choice","trial_type":"html-keyboard-response","trial_index":131,"time_elapsed":322220,"internal_node_id":"0.0-131.0","subject":"S1C1207","sona":"41026","block":3,"time":"2021-09-07T02:19:20.322Z","response":"2nd","certainty":"high","char":"L","transposition":0,"order":["shifted","swapped"],"probe_pitches":[7,3,-2,-3,0,5,3,7,0,-1,7,-2],"shifted_pitches":[7,3,-2,-3,0,5,2,7,0,-1,7,-2],"swapped_pitches":[7,3,-2,-3,0,3,5,7,0,-1,7,-2],"shift_direction":-1,"question_num":111,"has_decoy":false},{"rt":719.2999999970198,"stimulus":"[A] option 1, [L] option 2, [G] neither","key_press":76,"name":"choice","trial_type":"html-keyboard-response","trial_index":142,"time_elapsed":345294,"internal_node_id":"0.0-142.0","subject":"S1C1207","sona":"41026","block":3,"time":"2021-09-07T02:19:20.322Z","response":"2nd","certainty":"high","char":"L","transposition":2,"order":["swapped","shifted"],"probe_pitches":[4,7,5,7,9,0,-1,6,9,0,2,8],"shifted_pitches":[4,7,5,7,9,1,-1,6,9,0,2,8],"swapped_pitches":[4,7,5,7,9,-1,0,6,9,0,2,8],"shift_direction":1,"question_num":121,"has_decoy":false},{"rt":2181.10000000149,"stimulus":"[A] option 1, [L] option 2, [G] neither","key_press":71,"name":"choice","trial_type":"html-keyboard-response","trial_index":153,"time_elapsed":367656,"internal_node_id":"0.0-153.0","subject":"S1C1207","sona":"41026","block":3,"time":"2021-09-07T02:19:20.322Z","response":"neither","certainty":"high","char":"G","transposition":-1,"order":["shifted","swapped"],"probe_pitches":[6,7,8,1,8,4,3,-3,1,-3,9,-3],"shifted_pitches":[6,7,8,1,8,5,3,-3,1,-3,9,-3],"swapped_pitches":[6,7,8,1,8,3,4,-3,1,-3,9,-3],"shift_direction":1,"question_num":131,"has_decoy":false},{"rt":11861.79999999702,"stimulus":"[A] option 1, [L] option 2, [G] neither","key_press":71,"name":"choice","trial_type":"html-keyboard-response","trial_index":164,"time_elapsed":405666,"internal_node_id":"0.0-164.0","subject":"S1C1207","sona":"41026","block":3,"time":"2021-09-07T02:19:20.322Z","response":"neither","certainty":"high","char":"G","transposition":-3,"order":["swapped","shifted"],"probe_pitches":[7,3,5,4,-3,5,-1,8,-3,0,1,3],"shifted_pitches":[7,3,5,4,-3,6,-1,8,-3,0,1,3],"swapped_pitches":[7,3,5,4,-3,-1,5,8,-3,0,1,3],"shift_direction":1,"question_num":141,"has_decoy":false},{"rt":1590,"stimulus":"[A] option 1, [L] option 2, [G] neither","key_press":71,"name":"choice","trial_type":"html-keyboard-response","trial_index":175,"time_elapsed":428045,"internal_node_id":"0.0-175.0","subject":"S1C1207","sona":"41026","block":3,"time":"2021-09-07T02:19:20.322Z","response":"neither","certainty":"high","char":"G","transposition":1,"order":["swapped","shifted"],"probe_pitches":[-2,2,7,2,9,-1,6,-2,4,-3,6,-2],"shifted_pitches":[-2,2,7,2,9,0,6,-2,4,-3,6,-2],"swapped_pitches":[-2,2,7,2,9,6,-1,-2,4,-3,6,-2],"shift_direction":1,"question_num":151,"has_decoy":false},{"rt":5870.79999999702,"stimulus":"[A] option 1, [L] option 2, [G] neither","key_press":65,"name":"choice","trial_type":"html-keyboard-response","trial_index":186,"time_elapsed":452465,"internal_node_id":"0.0-186.0","subject":"S1C1207","sona":"41026","block":3,"time":"2021-09-07T02:19:20.322Z","response":"1st","certainty":"high","char":"A","transposition":-3,"order":["shifted","swapped"],"probe_pitches":[10,8,10,6,13,6,3,13,3,13,6,3],"shifted_pitches":[10,8,10,6,13,5,3,13,3,13,6,3],"swapped_pitches":[10,8,10,6,13,3,6,13,3,13,6,3],"shift_direction":-1,"question_num":161,"has_decoy":false},{"rt":1906.7999999970198,"stimulus":"[A] option 1, [L] option 2, [G] neither","key_press":76,"name":"choice","trial_type":"html-keyboard-response","trial_index":197,"time_elapsed":472662,"internal_node_id":"0.0-197.0","subject":"S1C1207","sona":"41026","block":3,"time":"2021-09-07T02:19:20.322Z","response":"2nd","certainty":"high","char":"L","transposition":-2,"order":["shifted","swapped"],"probe_pitches":[3,5,3,5,1,5,8,10,5,8,5,8],"shifted_pitches":[3,5,3,5,1,5,9,10,5,8,5,8],"swapped_pitches":[3,5,3,5,1,8,5,10,5,8,5,8],"shift_direction":1,"question_num":171,"has_decoy":false},{"rt":1984.1000000014901,"stimulus":"[A] option 1, [L] option 2, [G] neither","key_press":71,"name":"choice","trial_type":"html-keyboard-response","trial_index":208,"time_elapsed":495149,"internal_node_id":"0.0-208.0","subject":"S1C1207","sona":"41026","block":3,"time":"2021-09-07T02:19:20.322Z","response":"neither","certainty":"high","char":"G","transposition":3,"order":["shifted","swapped"],"probe_pitches":[-1,0,3,7,0,7,-3,-1,9,6,1,5],"shifted_pitches":[-1,0,3,7,0,7,-4,-1,9,6,1,5],"swapped_pitches":[-1,0,3,7,0,-3,7,-1,9,6,1,5],"shift_direction":-1,"question_num":181,"has_decoy":false},{"rt":1558.3000000044703,"stimulus":"[A] option 1, [L] option 2, [G] neither","key_press":71,"name":"choice","trial_type":"html-keyboard-response","trial_index":219,"time_elapsed":515893,"internal_node_id":"0.0-219.0","subject":"S1C1207","sona":"41026","block":3,"time":"2021-09-07T02:19:20.322Z","response":"neither","certainty":"high","char":"G","transposition":2,"order":["shifted","swapped"],"probe_pitches":[4,6,4,1,6,11,1,6,11,1,8,6],"shifted_pitches":[4,6,4,1,6,12,1,6,11,1,8,6],"swapped_pitches":[4,6,4,1,6,1,11,6,11,1,8,6],"shift_direction":1,"question_num":191,"has_decoy":false}]