[{"rt":954.7000000029802,"stimulus":"[A] option 1, [L] option 2, [G] neither","key_press":71,"name":"choice","trial_type":"html-keyboard-response","trial_index":10,"time_elapsed":20261,"internal_node_id":"0.0-10.0","subject":"S1C1207","sona":"41026","block":4,"time":"2021-09-07T02:26:35.540Z","response":"neither","certainty":"high","char":"G","transposition":3,"order":["shifted","swapped"],"probe_pitches":[-2,1,5,1,3,5,1,8,3,5,-2,10],"shifted_pitches":[-2,1,5,1,3,4,1,8,3,5,-2,10],"swapped_pitches":[-2,1,5,1,3,1,5,8,3,5,-2,10],"shift_direction":-1,"question_num":1,"has_decoy":false},{"rt":5269.79999999702,"stimulus":"[A] option 1, [L] option 2, [G] neither","key_press":71,"name":"choice","trial_type":"html-keyboard-response","trial_index":21,"time_elapsed":43885,"internal_node_id":"0.0-21.0","subject":"S1C1207","sona":"41026","block":4,"time":"2021-09-07T02:26:35.540Z","response":"neither","certainty":"high","char":"G","transposition":1,"order":["swapped","shifted"],"probe_pitches":[6,1,6,1,-2,1,3,8,-2,8,1,8],"shifted_pitches":[6,1,6,1,-2,1,2,8,-2,8,1,8],"swapped_pitches":[6,1,6,1,-2,3,1,8,-2,8,1,8],"shift_direction":-1,"question_num":11,"has_decoy":false},{"rt":5327.10000000149,"stimulus":"[A] option 1, [L] option 2, [G] neither","key_press":71,"name":"choice","trial_type":"html-keyboard-response","trial_index":32,"time_elapsed":68834,"internal_node_id":"0.0-32.0","subject":"S1C1207","sona":"41026","block":4,"time":"2021-09-07T02:26:35.540Z","response":"neither","certainty":"high","char":"G","transposition":-3,"order":["shifted","swapped"],"probe_pitches":[5,0,3,5,8,0,9,6,4,7,4,0],"shifted_pitches":[5,0,3,5,8,-1,9,6,4,7,4,0],"swapped_pitches":[5,0,3,5,8,9,0,6,4,7,4,0],"shift_direction":-1,"question_num":21,"has_decoy":false},{"rt":1127.7999999970198,"stimulus":"[A] option 1, [L] option 2, [G] neither","key_press":71,"name":"choice","trial_type":"html-keyboard-response","trial_index":43,"time_elapsed":90385,"internal_node_id":"0.0-43.0","subject":"S1C1207","sona":"41026","block":4,"time":"2021-09-07T02:26:35.540Z","response":"neither","certainty":"high","char":"G","transposition":2,"order":["swapped","shifted"],"probe_pitches":[-2,-1,1,8,4,9,8,4,2,-2,0,1],"shifted_pitches":[-2,-1,1,8,4,9,7,4,2,-2,0,1],"swapped_pitches":[-2,-1,1,8,4,8,9,4,2,-2,0,1],"shift_direction":-1,"question_num":31,"has_decoy":false},{"rt":505.1000000014901,"stimulus":"[A] option 1, [L] option 2, [G] neither","key_press":71,"name":"choice","trial_type":"html-keyboard-response","trial_index":54,"time_elapsed":110542,"internal_node_id":"0.0-54.0","subject":"S1C1207","sona":"41026","block":4,"time":"2021-09-07T02:26:35.540Z","response":"neither","certainty":"high","char":"G","transposition":3,"order":["swapped","shifted"],"probe_pitches":[6,7,9,4,7,0,6,2,-3,9,0,9],"shifted_pitches":[6,7,9,4,7,0,5,2,-3,9,0,9],"swapped_pitches":[6,7,9,4,7,6,0,2,-3,9,0,9],"shift_direction":-1,"question_num":41,"has_decoy":false},{"rt":581.2000000029802,"stimulus":"[A] option 1, [L] option 2, [G] neither","key_press":71,"name":"choice","trial_type":"html-keyboard-response","trial_index":65,"time_elapsed":129568,"internal_node_id":"0.0-65.0","subject":"S1C1207","sona":"41026","block":4,"time":"2021-09-07T02:26:35.540Z","response":"neither","certainty":"high","char":"G","transposition":-3,"order":["shifted","swapped"],"probe_pitches":[4,1,8,0,-2,5,-1,1,5,9,-3,3],"shifted_pitches":[4,1,8,0,-2,6,-1,1,5,9,-3,3],"swapped_pitches":[4,1,8,0,-2,-1,5,1,5,9,-3,3],"shift_direction":1,"question_num":51,"has_decoy":false},{"rt":433.3999999985099,"stimulus":"[A] option 1, [L] option 2, [G] neither","key_press":71,"name":"choice","trial_type":"html-keyboard-response","trial_index":76,"time_elapsed":148599,"internal_node_id":"0.0-76.0","subject":"S1C1207","sona":"41026","block":4,"time":"2021-09-07T02:26:35.540Z","response":"neither","certainty":"high","char":"G","transposition":-2,"order":["swapped","shifted"],"probe_pitches":[7,2,7,5,-2,0,10,-2,5,-2,10,-2],"shifted_pitches":[7,2,7,5,-2,0,11,-2,5,-2,10,-2],"swapped_pitches":[7,2,7,5,-2,10,0,-2,5,-2,10,-2],"shift_direction":1,"question_num":61,"has_decoy":false},{"rt":1337.8999999985099,"stimulus":"[A] option 1, [L] option 2, [G] neither","key_press":71,"name":"choice","trial_type":"html-keyboard-response","trial_index":87,"time_elapsed":168283,"internal_node_id":"0.0-87.0","subject":"S1C1207","sona":"41026","block":4,"time":"2021-09-07T02:26:35.540Z","response":"neither","certainty":"high","char":"G","transposition":-2,"order":["swapped","shifted"],"probe_pitches":[4,3,0,-2,-3,0,4,5,0,7,4,6],"shifted_pitches":[4,3,0,-2,-3,1,4,5,0,7,4,6],"swapped_pitches":[4,3,0,-2,-3,4,0,5,0,7,4,6],"shift_direction":1,"question_num":71,"has_decoy":false},{"rt":867.2999999970198,"stimulus":"[A] option 1, [L] option 2, [G] neither","key_press":71,"name":"choice","trial_type":"html-keyboard-response","trial_index":98,"time_elapsed":187413,"internal_node_id":"0.0-98.0","subject":"S1C1207","sona":"41026","block":4,"time":"2021-09-07T02:26:35.540Z","response":"neither","certainty":"high","char":"G","transposition":0,"order":["swapped","shifted"],"probe_pitches":[-2,3,1,-2,1,-2,6,3,8,1,6,3],"shifted_pitches":[-2,3,1,-2,1,-1,6,3,8,1,6,3],"swapped_pitches":[-2,3,1,-2,1,6,-2,3,8,1,6,3],"shift_direction":1,"question_num":81,"has_decoy":false},{"rt":632.7999999970198,"stimulus":"[A] option 1, [L] option 2, [G] neither","key_press":71,"name":"choice","trial_type":"html-keyboard-response","trial_index":109,"time_elapsed":206378,"internal_node_id":"0.0-109.0","subject":"S1C1207","sona":"41026","block":4,"time":"2021-09-07T02:26:35.540Z","response":"neither","certainty":"high","char":"G","transposition":-3,"order":["shifted","swapped"],"probe_pitches":[-2,3,5,0,8,0,-2,3,-2,5,-2,3],"shifted_pitches":[-2,3,5,0,8,-1,-2,3,-2,5,-2,3],"swapped_pitches":[-2,3,5,0,8,-2,0,3,-2,5,-2,3],"shift_direction":-1,"question_num":91,"has_decoy":false},{"rt":9083.60000000149,"stimulus":"[A] option 1, [L] option 2, [G] neither","key_press":71,"name":"choice","trial_type":"html-keyboard-response","trial_index":120,"time_elapsed":235029,"internal_node_id":"0.0-120.0","subject":"S1C1207","sona":"41026","block":4,"time":"2021-09-07T02:26:35.540Z","response":"neither","certainty":"high","char":"G","transposition":-2,"order":["shifted","swapped"],"probe_pitches":[-2,0,7,5,0,5,2,7,2,5,7,2],"shifted_pitches":[-2,0,7,5,0,5,3,7,2,5,7,2],"swapped_pitches":[-2,0,7,5,0,2,5,7,2,5,7,2],"shift_direction":1,"question_num":101,"has_decoy":false},{"rt":1441.3000000044703,"stimulus":"[A] option 1, [L] option 2, [G] neither","key_press":71,"name":"choice","trial_type":"html-keyboard-response","trial_index":131,"time_elapsed":255218,"internal_node_id":"0.0-131.0","subject":"S1C1207","sona":"41026","block":4,"time":"2021-09-07T02:26:35.540Z","response":"neither","certainty":"high","char":"G","transposition":0,"order":["swapped","shifted"],"probe_pitches":[3,8,6,5,9,3,1,2,-3,9,-2,6],"shifted_pitches":[3,8,6,5,9,3,0,2,-3,9,-2,6],"swapped_pitches":[3,8,6,5,9,1,3,2,-3,9,-2,6],"shift_direction":-1,"question_num":111,"has_decoy":false},{"rt":676.6999999955297,"stimulus":"[A] option 1, [L] option 2, [G] neither","key_press":71,"name":"choice","trial_type":"html-keyboard-response","trial_index":142,"time_elapsed":274573,"internal_node_id":"0.0-142.0","subject":"S1C1207","sona":"41026","block":4,"time":"2021-09-07T02:26:35.540Z","response":"neither","certainty":"high","char":"G","transposition":1,"order":["swapped","shifted"],"probe_pitches":[6,0,-3,2,-1,1,3,6,-3,6,-2,-1],"shifted_pitches":[6,0,-3,2,-1,1,4,6,-3,6,-2,-1],"swapped_pitches":[6,0,-3,2,-1,3,1,6,-3,6,-2,-1],"shift_direction":1,"question_num":121,"has_decoy":false},{"rt":7596.60000000149,"stimulus":"[A] option 1, [L] option 2, [G] neither","key_press":71,"name":"choice","trial_type":"html-keyboard-response","trial_index":153,"time_elapsed":302861,"internal_node_id":"0.0-153.0","subject":"S1C1207","sona":"41026","block":4,"time":"2021-09-07T02:26:35.540Z","response":"neither","certainty":"high","char":"G","transposition":-3,"order":["shifted","swapped"],"probe_pitches":[-2,3,0,3,0,3,10,5,8,10,3,10],"shifted_pitches":[-2,3,0,3,0,3,11,5,8,10,3,10],"swapped_pitches":[-2,3,0,3,0,10,3,5,8,10,3,10],"shift_direction":1,"question_num":131,"has_decoy":false},{"rt":1295.1000000014901,"stimulus":"[A] option 1, [L] option 2, [G] neither","key_press":71,"name":"choice","trial_type":"html-keyboard-response","trial_index":164,"time_elapsed":322761,"internal_node_id":"0.0-164.0","subject":"S1C1207","sona":"41026","block":4,"time":"2021-09-07T02:26:35.540Z","response":"neither","certainty":"high","char":"G","transposition":-1,"order":["shifted","swapped"],"probe_pitches":[0,4,8,0,-3,2,-1,5,4,8,7,2],"shifted_pitches":[0,4,8,0,-3,3,-1,5,4,8,7,2],"swapped_pitches":[0,4,8,0,-3,-1,2,5,4,8,7,2],"shift_direction":1,"question_num":141,"has_decoy":false},{"rt":1105.5,"stimulus":"[A] option 1, [L] option 2, [G] neither","key_press":71,"name":"choice","trial_type":"html-keyboard-response","trial_index":175,"time_elapsed":343701,"internal_node_id":"0.0-175.0","subject":"S1C1207","sona":"41026","block":4,"time":"2021-09-07T02:26:35.540Z","response":"neither","certainty":"high","char":"G","transposition":-2,"order":["shifted","swapped"],"probe_pitches":[1,-1,-3,-2,4,1,5,6,8,-3,5,-3],"shifted_pitches":[1,-1,-3,-2,4,2,5,6,8,-3,5,-3],"swapped_pitches":[1,-1,-3,-2,4,5,1,6,8,-3,5,-3],"shift_direction":1,"question_num":151,"has_decoy":false},{"rt":780.5,"stimulus":"[A] option 1, [L] option 2, [G] neither","key_press":71,"name":"choice","trial_type":"html-keyboard-response","trial_index":186,"time_elapsed":364476,"internal_node_id":"0.0-186.0","subject":"S1C1207","sona":"41026","block":4,"time":"2021-09-07T02:26:35.540Z","response":"neither","certainty":"high","char":"G","transposition":2,"order":["swapped","shifted"],"probe_pitches":[-2,3,8,10,1,3,5,-2,10,5,1,8],"shifted_pitches":[-2,3,8,10,1,2,5,-2,10,5,1,8],"swapped_pitches":[-2,3,8,10,1,5,3,-2,10,5,1,8],"shift_direction":-1,"question_num":161,"has_decoy":false},{"rt":575.8999999985099,"stimulus":"[A] option 1, [L] option 2, [G] neither","key_press":71,"name":"choice","trial_type":"html-keyboard-response","trial_index":197,"time_elapsed":384642,"internal_node_id":"0.0-197.0","subject":"S1C1207","sona":"41026","block":4,"time":"2021-09-07T02:26:35.540Z","response":"neither","certainty":"high","char":"G","transposition":-1,"order":["swapped","shifted"],"probe_pitches":[7,5,-2,0,5,3,0,10,3,0,7,0],"shifted_pitches":[7,5,-2,0,5,2,0,10,3,0,7,0],"swapped_pitches":[7,5,-2,0,5,0,3,10,3,0,7,0],"shift_direction":-1,"question_num":171,"has_decoy":false},{"rt":2748.8000000044703,"stimulus":"[A] option 1, [L] option 2, [G] neither","key_press":71,"name":"choice","trial_type":"html-keyboard-response","trial_index":208,"time_elapsed":407376,"internal_node_id":"0.0-208.0","subject":"S1C1207","sona":"41026","block":4,"time":"2021-09-07T02:26:35.540Z","response":"neither","certainty":"high","char":"G","transposition":-1,"order":["shifted","swapped"],"probe_pitches":[10,7,0,3,7,0,5,3,0,5,10,3],"shifted_pitches":[10,7,0,3,7,0,6,3,0,5,10,3],"swapped_pitches":[10,7,0,3,7,5,0,3,0,5,10,3],"shift_direction":1,"question_num":181,"has_decoy":false},{"rt":2177.5,"stimulus":"[A] option 1, [L] option 2, [G] neither","key_press":71,"name":"choice","trial_type":"html-keyboard-response","trial_index":219,"time_elapsed":429843,"internal_node_id":"0.0-219.0","subject":"S1C1207","sona":"41026","block":4,"time":"2021-09-07T02:26:35.540Z","response":"neither","certainty":"high","char":"G","transposition":-1,"order":["shifted","swapped"],"probe_pitches":[-2,0,-1,2,1,-2,-3,2,-3,0,-3,4],"shifted_pitches":[-2,0,-1,2,1,-2,-4,2,-3,0,-3,4],"swapped_pitches":[-2,0,-1,2,1,-3,-2,2,-3,0,-3,4],"shift_direction":-1,"question_num":191,"has_decoy":false}]