[{"rt":9495.699999999255,"stimulus":"[A] option 1, [L] option 2, [G] neither","key_press":76,"name":"choice","trial_type":"html-keyboard-response","trial_index":15,"time_elapsed":78996,"internal_node_id":"0.0-15.0","response":"2nd","certainty":"high","char":"L","transposition":-1,"order":["shifted","swapped"],"probe_pitches":[1,4,3,-1,-2,8,-1,9,10,9,2,4],"shifted_pitches":[1,4,3,-1,-2,8,0,9,10,9,2,4],"swapped_pitches":[1,4,3,-1,-2,-1,8,9,10,9,2,4],"shift_direction":1,"question_num":1,"has_decoy":false,"subject":"S1C1207","sona":"41026","block":1,"time":"2021-09-06T22:40:54.045Z"},{"rt":2481.800000000745,"stimulus":"[A] option 1, [L] option 2, [G] neither","key_press":71,"name":"choice","trial_type":"html-keyboard-response","trial_index":26,"time_elapsed":100932,"internal_node_id":"0.0-26.0","response":"neither","certainty":"high","char":"G","transposition":-1,"order":["shifted","swapped"],"probe_pitches":[6,8,6,-1,7,-1,3,0,3,10,4,1],"shifted_pitches":[6,8,6,-1,7,-1,2,0,3,10,4,1],"swapped_pitches":[6,8,6,-1,7,3,-1,0,3,10,4,1],"shift_direction":-1,"question_num":11,"has_decoy":false,"subject":"S1C1207","sona":"41026","block":1,"time":"2021-09-06T22:40:54.045Z"},{"rt":1871.699999999255,"stimulus":"[A] option 1, [L] option 2, [G] neither","key_press":65,"name":"choice","trial_type":"html-keyboard-response","trial_index":37,"time_elapsed":122132,"internal_node_id":"0.0-37.0","response":"1st","certainty":"high","char":"A","transposition":-3,"order":["shifted","swapped"],"probe_pitches":[5,3,10,7,-2,8,3,4,0,10,8,-2],"shifted_pitches":[5,3,10,7,-2,9,3,4,0,10,8,-2],"swapped_pitches":[5,3,10,7,-2,3,8,4,0,10,8,-2],"shift_direction":1,"question_num":21,"has_decoy":false,"subject":"S1C1207","sona":"41026","block":1,"time":"2021-09-06T22:40:54.045Z"},{"rt":1146.8999999985099,"stimulus":"[A] option 1, [L] option 2, [G] neither","key_press":65,"name":"choice","trial_type":"html-keyboard-response","trial_index":48,"time_elapsed":142687,"internal_node_id":"0.0-48.0","response":"1st","certainty":"high","char":"A","transposition":-2,"order":["swapped","shifted"],"probe_pitches":[8,9,5,-2,7,1,5,7,5,-2,9,6],"shifted_pitches":[8,9,5,-2,7,1,4,7,5,-2,9,6],"swapped_pitches":[8,9,5,-2,7,5,1,7,5,-2,9,6],"shift_direction":-1,"question_num":31,"has_decoy":false,"subject":"S1C1207","sona":"41026","block":1,"time":"2021-09-06T22:40:54.045Z"},{"rt":2336.2000000029802,"stimulus":"[A] option 1, [L] option 2, [G] neither","key_press":71,"name":"choice","trial_type":"html-keyboard-response","trial_index":59,"time_elapsed":165776,"internal_node_id":"0.0-59.0","response":"neither","certainty":"high","char":"G","transposition":3,"order":["shifted","swapped"],"probe_pitches":[5,3,0,5,4,9,7,0,9,3,10,-1],"shifted_pitches":[5,3,0,5,4,8,7,0,9,3,10,-1],"swapped_pitches":[5,3,0,5,4,7,9,0,9,3,10,-1],"shift_direction":-1,"question_num":41,"has_decoy":false,"subject":"S1C1207","sona":"41026","block":1,"time":"2021-09-06T22:40:54.045Z"},{"rt":923.2999999970198,"stimulus":"[A] option 1, [L] option 2, [G] neither","key_press":65,"name":"choice","trial_type":"html-keyboard-response","trial_index":70,"time_elapsed":186227,"internal_node_id":"0.0-70.0","response":"1st","certainty":"high","char":"A","transposition":3,"order":["shifted","swapped"],"probe_pitches":[0,5,9,7,12,2,9,7,5,7,12,7],"shifted_pitches":[0,5,9,7,12,2,8,7,5,7,12,7],"swapped_pitches":[0,5,9,7,12,9,2,7,5,7,12,7],"shift_direction":-1,"question_num":51,"has_decoy":false,"subject":"S1C1207","sona":"41026","block":1,"time":"2021-09-06T22:40:54.045Z"},{"rt":1241.699999999255,"stimulus":"[A] option 1, [L] option 2, [G] neither","key_press":65,"name":"choice","trial_type":"html-keyboard-response","trial_index":81,"time_elapsed":208012,"internal_node_id":"0.0-81.0","response":"1st","certainty":"high","char":"A","transposition":2,"order":["shifted","swapped"],"probe_pitches":[3,0,5,0,8,12,10,8,0,8,12,5],"shifted_pitches":[3,0,5,0,8,11,10,8,0,8,12,5],"swapped_pitches":[3,0,5,0,8,10,12,8,0,8,12,5],"shift_direction":-1,"question_num":61,"has_decoy":false,"subject":"S1C1207","sona":"41026","block":1,"time":"2021-09-06T22:40:54.045Z"},{"rt":2030.6000000014901,"stimulus":"[A] option 1, [L] option 2, [G] neither","key_press":76,"name":"choice","trial_type":"html-keyboard-response","trial_index":92,"time_elapsed":230871,"internal_node_id":"0.0-92.0","response":"2nd","certainty":"high","char":"L","transposition":1,"order":["swapped","shifted"],"probe_pitches":[2,7,9,2,5,0,9,2,0,7,0,7],"shifted_pitches":[2,7,9,2,5,1,9,2,0,7,0,7],"swapped_pitches":[2,7,9,2,5,9,0,2,0,7,0,7],"shift_direction":1,"question_num":71,"has_decoy":false,"subject":"S1C1207","sona":"41026","block":1,"time":"2021-09-06T22:40:54.045Z"},{"rt":1834.5,"stimulus":"[A] option 1, [L] option 2, [G] neither","key_press":65,"name":"choice","trial_type":"html-keyboard-response","trial_index":103,"time_elapsed":251125,"internal_node_id":"0.0-103.0","response":"1st","certainty":"high","char":"A","transposition":-3,"order":["shifted","swapped"],"probe_pitches":[12,7,0,5,0,7,3,10,0,12,7,3],"shifted_pitches":[12,7,0,5,0,7,2,10,0,12,7,3],"swapped_pitches":[12,7,0,5,0,3,7,10,0,12,7,3],"shift_direction":-1,"question_num":81,"has_decoy":false,"subject":"S1C1207","sona":"41026","block":1,"time":"2021-09-06T22:40:54.045Z"},{"rt":1911.699999999255,"stimulus":"[A] option 1, [L] option 2, [G] neither","key_press":65,"name":"choice","trial_type":"html-keyboard-response","trial_index":114,"time_elapsed":271503,"internal_node_id":"0.0-114.0","response":"1st","certainty":"high","char":"A","transposition":0,"order":["shifted","swapped"],"probe_pitches":[5,10,7,5,7,12,5,0,10,0,2,10],"shifted_pitches":[5,10,7,5,7,11,5,0,10,0,2,10],"swapped_pitches":[5,10,7,5,7,5,12,0,10,0,2,10],"shift_direction":-1,"question_num":91,"has_decoy":false,"subject":"S1C1207","sona":"41026","block":1,"time":"2021-09-06T22:40:54.045Z"},{"rt":1117.1000000014901,"stimulus":"[A] option 1, [L] option 2, [G] neither","key_press":76,"name":"choice","trial_type":"html-keyboard-response","trial_index":125,"time_elapsed":292068,"internal_node_id":"0.0-125.0","response":"2nd","certainty":"high","char":"L","transposition":-1,"order":["swapped","shifted"],"probe_pitches":[4,7,4,9,4,7,9,4,9,4,2,0],"shifted_pitches":[4,7,4,9,4,7,10,4,9,4,2,0],"swapped_pitches":[4,7,4,9,4,9,7,4,9,4,2,0],"shift_direction":1,"question_num":101,"has_decoy":false,"subject":"S1C1207","sona":"41026","block":1,"time":"2021-09-06T22:40:54.045Z"},{"rt":921.6999999992549,"stimulus":"[A] option 1, [L] option 2, [G] neither","key_press":65,"name":"choice","trial_type":"html-keyboard-response","trial_index":136,"time_elapsed":314782,"internal_node_id":"0.0-136.0","response":"1st","certainty":"high","char":"A","transposition":-3,"order":["swapped","shifted"],"probe_pitches":[10,8,5,10,8,5,10,3,10,12,5,0],"shifted_pitches":[10,8,5,10,8,6,10,3,10,12,5,0],"swapped_pitches":[10,8,5,10,8,10,5,3,10,12,5,0],"shift_direction":1,"question_num":111,"has_decoy":false,"subject":"S1C1207","sona":"41026","block":1,"time":"2021-09-06T22:40:54.045Z"},{"rt":1651.5,"stimulus":"[A] option 1, [L] option 2, [G] neither","key_press":71,"name":"choice","trial_type":"html-keyboard-response","trial_index":147,"time_elapsed":339062,"internal_node_id":"0.0-147.0","response":"neither","certainty":"high","char":"G","transposition":-2,"order":["swapped","shifted"],"probe_pitches":[7,8,2,4,-2,2,4,-1,8,4,5,6],"shifted_pitches":[7,8,2,4,-2,1,4,-1,8,4,5,6],"swapped_pitches":[7,8,2,4,-2,4,2,-1,8,4,5,6],"shift_direction":-1,"question_num":121,"has_decoy":false,"subject":"S1C1207","sona":"41026","block":1,"time":"2021-09-06T22:40:54.045Z"},{"rt":1711.199999999255,"stimulus":"[A] option 1, [L] option 2, [G] neither","key_press":65,"name":"choice","trial_type":"html-keyboard-response","trial_index":158,"time_elapsed":359191,"internal_node_id":"0.0-158.0","response":"1st","certainty":"high","char":"A","transposition":-2,"order":["shifted","swapped"],"probe_pitches":[12,7,0,5,12,7,2,12,7,0,10,7],"shifted_pitches":[12,7,0,5,12,8,2,12,7,0,10,7],"swapped_pitches":[12,7,0,5,12,2,7,12,7,0,10,7],"shift_direction":1,"question_num":131,"has_decoy":false,"subject":"S1C1207","sona":"41026","block":1,"time":"2021-09-06T22:40:54.045Z"},{"rt":5623.5,"stimulus":"[A] option 1, [L] option 2, [G] neither","key_press":76,"name":"choice","trial_type":"html-keyboard-response","trial_index":169,"time_elapsed":385274,"internal_node_id":"0.0-169.0","response":"2nd","certainty":"high","char":"L","transposition":2,"order":["swapped","shifted"],"probe_pitches":[0,4,3,4,-1,8,6,2,7,-1,7,1],"shifted_pitches":[0,4,3,4,-1,8,5,2,7,-1,7,1],"swapped_pitches":[0,4,3,4,-1,6,8,2,7,-1,7,1],"shift_direction":-1,"question_num":141,"has_decoy":false,"subject":"S1C1207","sona":"41026","block":1,"time":"2021-09-06T22:40:54.045Z"},{"rt":2437.099999997765,"stimulus":"[A] option 1, [L] option 2, [G] neither","key_press":71,"name":"choice","trial_type":"html-keyboard-response","trial_index":180,"time_elapsed":406208,"internal_node_id":"0.0-180.0","response":"neither","certainty":"high","char":"G","transposition":-1,"order":["swapped","shifted"],"probe_pitches":[7,4,2,7,9,7,12,0,2,0,7,9],"shifted_pitches":[7,4,2,7,9,7,13,0,2,0,7,9],"swapped_pitches":[7,4,2,7,9,12,7,0,2,0,7,9],"shift_direction":1,"question_num":151,"has_decoy":false,"subject":"S1C1207","sona":"41026","block":1,"time":"2021-09-06T22:40:54.045Z"},{"rt":1109.5999999977648,"stimulus":"[A] option 1, [L] option 2, [G] neither","key_press":65,"name":"choice","trial_type":"html-keyboard-response","trial_index":191,"time_elapsed":429110,"internal_node_id":"0.0-191.0","response":"1st","certainty":"high","char":"A","transposition":-2,"order":["swapped","shifted"],"probe_pitches":[3,5,0,7,5,10,7,3,0,3,10,5],"shifted_pitches":[3,5,0,7,5,10,6,3,0,3,10,5],"swapped_pitches":[3,5,0,7,5,7,10,3,0,3,10,5],"shift_direction":-1,"question_num":161,"has_decoy":false,"subject":"S1C1207","sona":"41026","block":1,"time":"2021-09-06T22:40:54.045Z"},{"rt":1688.800000000745,"stimulus":"[A] option 1, [L] option 2, [G] neither","key_press":71,"name":"choice","trial_type":"html-keyboard-response","trial_index":202,"time_elapsed":451009,"internal_node_id":"0.0-202.0","response":"neither","certainty":"high","char":"G","transposition":0,"order":["swapped","shifted"],"probe_pitches":[4,10,4,2,-1,-2,2,9,5,6,1,0],"shifted_pitches":[4,10,4,2,-1,-2,3,9,5,6,1,0],"swapped_pitches":[4,10,4,2,-1,2,-2,9,5,6,1,0],"shift_direction":1,"question_num":171,"has_decoy":false,"subject":"S1C1207","sona":"41026","block":1,"time":"2021-09-06T22:40:54.045Z"},{"rt":805.8000000007451,"stimulus":"[A] option 1, [L] option 2, [G] neither","key_press":76,"name":"choice","trial_type":"html-keyboard-response","trial_index":213,"time_elapsed":471265,"internal_node_id":"0.0-213.0","response":"2nd","certainty":"high","char":"L","transposition":-3,"order":["swapped","shifted"],"probe_pitches":[3,0,-1,-2,3,5,-2,10,-2,3,0,3],"shifted_pitches":[3,0,-1,-2,3,6,-2,10,-2,3,0,3],"swapped_pitches":[3,0,-1,-2,3,-2,5,10,-2,3,0,3],"shift_direction":1,"question_num":181,"has_decoy":false,"subject":"S1C1207","sona":"41026","block":1,"time":"2021-09-06T22:40:54.045Z"},{"rt":6491.400000002235,"stimulus":"[A] option 1, [L] option 2, [G] neither","key_press":71,"name":"choice","trial_type":"html-keyboard-response","trial_index":224,"time_elapsed":496642,"internal_node_id":"0.0-224.0","response":"neither","certainty":"high","char":"G","transposition":1,"order":["shifted","swapped"],"probe_pitches":[5,6,4,9,2,6,-2,1,6,8,-1,5],"shifted_pitches":[5,6,4,9,2,7,-2,1,6,8,-1,5],"swapped_pitches":[5,6,4,9,2,-2,6,1,6,8,-1,5],"shift_direction":1,"question_num":191,"has_decoy":false,"subject":"S1C1207","sona":"41026","block":1,"time":"2021-09-06T22:40:54.045Z"}]