[{"rt":3737,"stimulus":"[A] option 1, [L] option 2, [G] neither","key_press":71,"name":"choice","trial_type":"html-keyboard-response","trial_index":10,"time_elapsed":29643,"internal_node_id":"0.0-10.0","subject":"S1C1207","sona":"41026","block":6,"time":"2021-09-07T02:42:08.655Z","response":"neither","certainty":"high","char":"G","transposition":-2,"order":["swapped","shifted"],"probe_pitches":[4,2,4,7,-1,7,0,8,-1,7,3,4],"shifted_pitches":[4,2,4,7,-1,6,0,8,-1,7,3,4],"swapped_pitches":[4,2,4,7,-1,0,7,8,-1,7,3,4],"shift_direction":-1,"question_num":1,"has_decoy":false},{"rt":4152.0999999940395,"stimulus":"[A] option 1, [L] option 2, [G] neither","key_press":71,"name":"choice","trial_type":"html-keyboard-response","trial_index":21,"time_elapsed":54189,"internal_node_id":"0.0-21.0","subject":"S1C1207","sona":"41026","block":6,"time":"2021-09-07T02:42:08.655Z","response":"neither","certainty":"high","char":"G","transposition":-1,"order":["shifted","swapped"],"probe_pitches":[-2,0,5,3,5,3,7,5,-2,5,3,-2],"shifted_pitches":[-2,0,5,3,5,2,7,5,-2,5,3,-2],"swapped_pitches":[-2,0,5,3,5,7,3,5,-2,5,3,-2],"shift_direction":-1,"question_num":11,"has_decoy":false},{"rt":2128.2999999970198,"stimulus":"[A] option 1, [L] option 2, [G] neither","key_press":71,"name":"choice","trial_type":"html-keyboard-response","trial_index":32,"time_elapsed":83524,"internal_node_id":"0.0-32.0","subject":"S1C1207","sona":"41026","block":6,"time":"2021-09-07T02:42:08.655Z","response":"neither","certainty":"high","char":"G","transposition":1,"order":["shifted","swapped"],"probe_pitches":[0,4,-1,0,4,-3,1,-1,3,2,3,4],"shifted_pitches":[0,4,-1,0,4,-4,1,-1,3,2,3,4],"swapped_pitches":[0,4,-1,0,4,1,-3,-1,3,2,3,4],"shift_direction":-1,"question_num":21,"has_decoy":false},{"rt":2059.4000000059605,"stimulus":"[A] option 1, [L] option 2, [G] neither","key_press":71,"name":"choice","trial_type":"html-keyboard-response","trial_index":43,"time_elapsed":104596,"internal_node_id":"0.0-43.0","subject":"S1C1207","sona":"41026","block":6,"time":"2021-09-07T02:42:08.655Z","response":"neither","certainty":"high","char":"G","transposition":-2,"order":["shifted","swapped"],"probe_pitches":[10,5,10,3,-2,8,5,3,1,5,1,8],"shifted_pitches":[10,5,10,3,-2,8,4,3,1,5,1,8],"swapped_pitches":[10,5,10,3,-2,5,8,3,1,5,1,8],"shift_direction":-1,"question_num":31,"has_decoy":false},{"rt":4347.89999999851,"stimulus":"[A] option 1, [L] option 2, [G] neither","key_press":71,"name":"choice","trial_type":"html-keyboard-response","trial_index":54,"time_elapsed":132265,"internal_node_id":"0.0-54.0","subject":"S1C1207","sona":"41026","block":6,"time":"2021-09-07T02:42:08.655Z","response":"neither","certainty":"high","char":"G","transposition":-1,"order":["swapped","shifted"],"probe_pitches":[8,4,3,8,7,0,6,4,5,7,3,9],"shifted_pitches":[8,4,3,8,7,1,6,4,5,7,3,9],"swapped_pitches":[8,4,3,8,7,6,0,4,5,7,3,9],"shift_direction":1,"question_num":41,"has_decoy":false},{"rt":8826.80000000447,"stimulus":"[A] option 1, [L] option 2, [G] neither","key_press":71,"name":"choice","trial_type":"html-keyboard-response","trial_index":65,"time_elapsed":163233,"internal_node_id":"0.0-65.0","subject":"S1C1207","sona":"41026","block":6,"time":"2021-09-07T02:42:08.655Z","response":"neither","certainty":"high","char":"G","transposition":0,"order":["swapped","shifted"],"probe_pitches":[6,9,5,4,8,4,-3,9,-2,1,-2,7],"shifted_pitches":[6,9,5,4,8,3,-3,9,-2,1,-2,7],"swapped_pitches":[6,9,5,4,8,-3,4,9,-2,1,-2,7],"shift_direction":-1,"question_num":51,"has_decoy":false},{"rt":3527.7000000029802,"stimulus":"[A] option 1, [L] option 2, [G] neither","key_press":71,"name":"choice","trial_type":"html-keyboard-response","trial_index":76,"time_elapsed":189464,"internal_node_id":"0.0-76.0","subject":"S1C1207","sona":"41026","block":6,"time":"2021-09-07T02:42:08.655Z","response":"neither","certainty":"high","char":"G","transposition":-3,"order":["swapped","shifted"],"probe_pitches":[3,6,-1,4,1,-2,-1,2,-1,3,-1,6],"shifted_pitches":[3,6,-1,4,1,-2,0,2,-1,3,-1,6],"swapped_pitches":[3,6,-1,4,1,-1,-2,2,-1,3,-1,6],"shift_direction":1,"question_num":61,"has_decoy":false},{"rt":4469.39999999851,"stimulus":"[A] option 1, [L] option 2, [G] neither","key_press":71,"name":"choice","trial_type":"html-keyboard-response","trial_index":87,"time_elapsed":212735,"internal_node_id":"0.0-87.0","subject":"S1C1207","sona":"41026","block":6,"time":"2021-09-07T02:42:08.655Z","response":"neither","certainty":"high","char":"G","transposition":-1,"order":["swapped","shifted"],"probe_pitches":[1,-2,1,6,1,8,3,1,10,3,-2,6],"shifted_pitches":[1,-2,1,6,1,8,4,1,10,3,-2,6],"swapped_pitches":[1,-2,1,6,1,3,8,1,10,3,-2,6],"shift_direction":1,"question_num":71,"has_decoy":false},{"rt":835.7000000029802,"stimulus":"[A] option 1, [L] option 2, [G] neither","key_press":71,"name":"choice","trial_type":"html-keyboard-response","trial_index":98,"time_elapsed":237751,"internal_node_id":"0.0-98.0","subject":"S1C1207","sona":"41026","block":6,"time":"2021-09-07T02:42:08.655Z","response":"neither","certainty":"high","char":"G","transposition":2,"order":["shifted","swapped"],"probe_pitches":[4,0,5,-2,-3,2,-2,3,8,5,3,4],"shifted_pitches":[4,0,5,-2,-3,2,-1,3,8,5,3,4],"swapped_pitches":[4,0,5,-2,-3,-2,2,3,8,5,3,4],"shift_direction":1,"question_num":81,"has_decoy":false},{"rt":563.7999999970198,"stimulus":"[A] option 1, [L] option 2, [G] neither","key_press":71,"name":"choice","trial_type":"html-keyboard-response","trial_index":109,"time_elapsed":256891,"internal_node_id":"0.0-109.0","subject":"S1C1207","sona":"41026","block":6,"time":"2021-09-07T02:42:08.655Z","response":"neither","certainty":"high","char":"G","transposition":-3,"order":["shifted","swapped"],"probe_pitches":[5,0,2,10,7,10,2,0,7,-2,0,5],"shifted_pitches":[5,0,2,10,7,10,3,0,7,-2,0,5],"swapped_pitches":[5,0,2,10,7,2,10,0,7,-2,0,5],"shift_direction":1,"question_num":91,"has_decoy":false},{"rt":6565.5999999940395,"stimulus":"[A] option 1, [L] option 2, [G] neither","key_press":71,"name":"choice","trial_type":"html-keyboard-response","trial_index":120,"time_elapsed":282012,"internal_node_id":"0.0-120.0","subject":"S1C1207","sona":"41026","block":6,"time":"2021-09-07T02:42:08.655Z","response":"neither","certainty":"high","char":"G","transposition":3,"order":["swapped","shifted"],"probe_pitches":[0,-2,3,8,0,8,5,3,0,-2,3,-2],"shifted_pitches":[0,-2,3,8,0,8,6,3,0,-2,3,-2],"swapped_pitches":[0,-2,3,8,0,5,8,3,0,-2,3,-2],"shift_direction":1,"question_num":101,"has_decoy":false},{"rt":1440,"stimulus":"[A] option 1, [L] option 2, [G] neither","key_press":71,"name":"choice","trial_type":"html-keyboard-response","trial_index":131,"time_elapsed":307777,"internal_node_id":"0.0-131.0","subject":"S1C1207","sona":"41026","block":6,"time":"2021-09-07T02:42:08.655Z","response":"neither","certainty":"high","char":"G","transposition":2,"order":["swapped","shifted"],"probe_pitches":[8,3,8,6,8,6,1,3,8,1,10,6],"shifted_pitches":[8,3,8,6,8,7,1,3,8,1,10,6],"swapped_pitches":[8,3,8,6,8,1,6,3,8,1,10,6],"shift_direction":1,"question_num":111,"has_decoy":false},{"rt":744.2000000029802,"stimulus":"[A] option 1, [L] option 2, [G] neither","key_press":71,"name":"choice","trial_type":"html-keyboard-response","trial_index":142,"time_elapsed":327261,"internal_node_id":"0.0-142.0","subject":"S1C1207","sona":"41026","block":6,"time":"2021-09-07T02:42:08.655Z","response":"neither","certainty":"high","char":"G","transposition":0,"order":["shifted","swapped"],"probe_pitches":[5,10,8,5,-2,8,0,10,8,10,3,8],"shifted_pitches":[5,10,8,5,-2,9,0,10,8,10,3,8],"swapped_pitches":[5,10,8,5,-2,0,8,10,8,10,3,8],"shift_direction":1,"question_num":121,"has_decoy":false},{"rt":886.2999999970198,"stimulus":"[A] option 1, [L] option 2, [G] neither","key_press":71,"name":"choice","trial_type":"html-keyboard-response","trial_index":153,"time_elapsed":349502,"internal_node_id":"0.0-153.0","subject":"S1C1207","sona":"41026","block":6,"time":"2021-09-07T02:42:08.655Z","response":"neither","certainty":"high","char":"G","transposition":-3,"order":["swapped","shifted"],"probe_pitches":[1,3,6,5,-3,3,8,4,6,1,3,5],"shifted_pitches":[1,3,6,5,-3,3,7,4,6,1,3,5],"swapped_pitches":[1,3,6,5,-3,8,3,4,6,1,3,5],"shift_direction":-1,"question_num":131,"has_decoy":false},{"rt":1054.2000000029802,"stimulus":"[A] option 1, [L] option 2, [G] neither","key_press":71,"name":"choice","trial_type":"html-keyboard-response","trial_index":164,"time_elapsed":370300,"internal_node_id":"0.0-164.0","subject":"S1C1207","sona":"41026","block":6,"time":"2021-09-07T02:42:08.655Z","response":"neither","certainty":"high","char":"G","transposition":3,"order":["shifted","swapped"],"probe_pitches":[3,-3,-2,3,6,-3,4,1,-2,0,-2,-3],"shifted_pitches":[3,-3,-2,3,6,-3,5,1,-2,0,-2,-3],"swapped_pitches":[3,-3,-2,3,6,4,-3,1,-2,0,-2,-3],"shift_direction":1,"question_num":141,"has_decoy":false},{"rt":848.8999999985099,"stimulus":"[A] option 1, [L] option 2, [G] neither","key_press":71,"name":"choice","trial_type":"html-keyboard-response","trial_index":175,"time_elapsed":389705,"internal_node_id":"0.0-175.0","subject":"S1C1207","sona":"41026","block":6,"time":"2021-09-07T02:42:08.655Z","response":"neither","certainty":"high","char":"G","transposition":-1,"order":["shifted","swapped"],"probe_pitches":[1,7,2,9,0,1,3,-3,2,0,-1,1],"shifted_pitches":[1,7,2,9,0,1,4,-3,2,0,-1,1],"swapped_pitches":[1,7,2,9,0,3,1,-3,2,0,-1,1],"shift_direction":1,"question_num":151,"has_decoy":false},{"rt":834.9000000059605,"stimulus":"[A] option 1, [L] option 2, [G] neither","key_press":71,"name":"choice","trial_type":"html-keyboard-response","trial_index":186,"time_elapsed":409441,"internal_node_id":"0.0-186.0","subject":"S1C1207","sona":"41026","block":6,"time":"2021-09-07T02:42:08.655Z","response":"neither","certainty":"high","char":"G","transposition":-3,"order":["shifted","swapped"],"probe_pitches":[10,5,0,7,5,0,3,7,-2,3,10,-2],"shifted_pitches":[10,5,0,7,5,-1,3,7,-2,3,10,-2],"swapped_pitches":[10,5,0,7,5,3,0,7,-2,3,10,-2],"shift_direction":-1,"question_num":161,"has_decoy":false},{"rt":898.7999999970198,"stimulus":"[A] option 1, [L] option 2, [G] neither","key_press":71,"name":"choice","trial_type":"html-keyboard-response","trial_index":197,"time_elapsed":429175,"internal_node_id":"0.0-197.0","subject":"S1C1207","sona":"41026","block":6,"time":"2021-09-07T02:42:08.655Z","response":"neither","certainty":"high","char":"G","transposition":-2,"order":["swapped","shifted"],"probe_pitches":[0,2,0,-2,5,7,-2,0,7,5,0,2],"shifted_pitches":[0,2,0,-2,5,6,-2,0,7,5,0,2],"swapped_pitches":[0,2,0,-2,5,-2,7,0,7,5,0,2],"shift_direction":-1,"question_num":171,"has_decoy":false},{"rt":1533.1999999955297,"stimulus":"[A] option 1, [L] option 2, [G] neither","key_press":71,"name":"choice","trial_type":"html-keyboard-response","trial_index":208,"time_elapsed":449480,"internal_node_id":"0.0-208.0","subject":"S1C1207","sona":"41026","block":6,"time":"2021-09-07T02:42:08.655Z","response":"neither","certainty":"high","char":"G","transposition":-2,"order":["shifted","swapped"],"probe_pitches":[1,6,7,8,9,3,8,4,-2,7,0,-2],"shifted_pitches":[1,6,7,8,9,2,8,4,-2,7,0,-2],"swapped_pitches":[1,6,7,8,9,8,3,4,-2,7,0,-2],"shift_direction":-1,"question_num":181,"has_decoy":false},{"rt":4754.19999999553,"stimulus":"[A] option 1, [L] option 2, [G] neither","key_press":71,"name":"choice","trial_type":"html-keyboard-response","trial_index":219,"time_elapsed":472991,"internal_node_id":"0.0-219.0","subject":"S1C1207","sona":"41026","block":6,"time":"2021-09-07T02:42:08.655Z","response":"neither","certainty":"high","char":"G","transposition":1,"order":["swapped","shifted"],"probe_pitches":[1,3,-2,1,5,3,10,5,8,-2,3,8],"shifted_pitches":[1,3,-2,1,5,3,9,5,8,-2,3,8],"swapped_pitches":[1,3,-2,1,5,10,3,5,8,-2,3,8],"shift_direction":-1,"question_num":191,"has_decoy":false}]