[{"rt":8423.60000000149,"stimulus":"[A] option 1, [L] option 2, [G] neither","key_press":65,"name":"choice","trial_type":"html-keyboard-response","trial_index":10,"time_elapsed":32918,"internal_node_id":"0.0-10.0","subject":"S1C1602","sona":"41433","block":6,"time":"2021-09-05T18:59:22.553Z","response":"1st","certainty":"high","char":"A","transposition":3,"order":["swapped","shifted"],"probe_pitches":[9,14,11,7,5,11,14,2,3,11,12,9,8,9,3,7],"shifted_pitches":[9,14,11,7,5,11,14,2,4,11,12,9,8,9,3,7],"swapped_pitches":[9,14,11,7,5,11,14,3,2,11,12,9,8,9,3,7],"shift_direction":1,"question_num":1,"has_decoy":false},{"rt":2048.7999999970198,"stimulus":"[A] option 1, [L] option 2, [G] neither","key_press":65,"name":"choice","trial_type":"html-keyboard-response","trial_index":21,"time_elapsed":57920,"internal_node_id":"0.0-21.0","subject":"S1C1602","sona":"41433","block":6,"time":"2021-09-05T18:59:22.553Z","response":"1st","certainty":"high","char":"A","transposition":3,"order":["swapped","shifted"],"probe_pitches":[7,2,-3,4,9,7,0,7,4,9,2,7,2,9,7,-3],"shifted_pitches":[7,2,-3,4,9,7,0,7,5,9,2,7,2,9,7,-3],"swapped_pitches":[7,2,-3,4,9,7,0,4,7,9,2,7,2,9,7,-3],"shift_direction":1,"question_num":11,"has_decoy":false},{"rt":1280.9000000022352,"stimulus":"[A] option 1, [L] option 2, [G] neither","key_press":76,"name":"choice","trial_type":"html-keyboard-response","trial_index":32,"time_elapsed":81707,"internal_node_id":"0.0-32.0","subject":"S1C1602","sona":"41433","block":6,"time":"2021-09-05T18:59:22.553Z","response":"2nd","certainty":"high","char":"L","transposition":-1,"order":["shifted","swapped"],"probe_pitches":[11,9,13,6,12,7,12,9,5,3,14,9,11,3,9,5],"shifted_pitches":[11,9,13,6,12,7,12,10,5,3,14,9,11,3,9,5],"swapped_pitches":[11,9,13,6,12,7,12,5,9,3,14,9,11,3,9,5],"shift_direction":1,"question_num":21,"has_decoy":false},{"rt":1937.5,"stimulus":"[A] option 1, [L] option 2, [G] neither","key_press":76,"name":"choice","trial_type":"html-keyboard-response","trial_index":43,"time_elapsed":106262,"internal_node_id":"0.0-43.0","subject":"S1C1602","sona":"41433","block":6,"time":"2021-09-05T18:59:22.553Z","response":"2nd","certainty":"high","char":"L","transposition":-1,"order":["shifted","swapped"],"probe_pitches":[13,11,9,10,3,6,10,12,6,11,12,4,6,2,7,8],"shifted_pitches":[13,11,9,10,3,6,10,12,5,11,12,4,6,2,7,8],"swapped_pitches":[13,11,9,10,3,6,10,6,12,11,12,4,6,2,7,8],"shift_direction":-1,"question_num":31,"has_decoy":false},{"rt":3919.89999999851,"stimulus":"[A] option 1, [L] option 2, [G] neither","key_press":76,"name":"choice","trial_type":"html-keyboard-response","trial_index":54,"time_elapsed":132511,"internal_node_id":"0.0-54.0","subject":"S1C1602","sona":"41433","block":6,"time":"2021-09-05T18:59:22.553Z","response":"2nd","certainty":"high","char":"L","transposition":-1,"order":["shifted","swapped"],"probe_pitches":[-3,1,-3,4,9,6,-3,9,-1,4,-3,6,-1,-3,9,-1],"shifted_pitches":[-3,1,-3,4,9,6,-3,9,0,4,-3,6,-1,-3,9,-1],"swapped_pitches":[-3,1,-3,4,9,6,-3,-1,9,4,-3,6,-1,-3,9,-1],"shift_direction":1,"question_num":41,"has_decoy":false},{"rt":1519.1000000014901,"stimulus":"[A] option 1, [L] option 2, [G] neither","key_press":65,"name":"choice","trial_type":"html-keyboard-response","trial_index":65,"time_elapsed":156495,"internal_node_id":"0.0-65.0","subject":"S1C1602","sona":"41433","block":6,"time":"2021-09-05T18:59:22.553Z","response":"1st","certainty":"high","char":"A","transposition":0,"order":["swapped","shifted"],"probe_pitches":[9,4,6,4,2,-1,9,6,-3,9,2,9,2,4,2,4],"shifted_pitches":[9,4,6,4,2,-1,9,6,-2,9,2,9,2,4,2,4],"swapped_pitches":[9,4,6,4,2,-1,9,-3,6,9,2,9,2,4,2,4],"shift_direction":1,"question_num":51,"has_decoy":false},{"rt":1114.699999999255,"stimulus":"[A] option 1, [L] option 2, [G] neither","key_press":76,"name":"choice","trial_type":"html-keyboard-response","trial_index":76,"time_elapsed":179963,"internal_node_id":"0.0-76.0","subject":"S1C1602","sona":"41433","block":6,"time":"2021-09-05T18:59:22.553Z","response":"2nd","certainty":"high","char":"L","transposition":-2,"order":["shifted","swapped"],"probe_pitches":[4,7,12,11,4,7,14,11,7,3,10,14,4,3,11,5],"shifted_pitches":[4,7,12,11,4,7,14,11,8,3,10,14,4,3,11,5],"swapped_pitches":[4,7,12,11,4,7,14,7,11,3,10,14,4,3,11,5],"shift_direction":1,"question_num":61,"has_decoy":false},{"rt":766.4000000022352,"stimulus":"[A] option 1, [L] option 2, [G] neither","key_press":76,"name":"choice","trial_type":"html-keyboard-response","trial_index":87,"time_elapsed":203375,"internal_node_id":"0.0-87.0","subject":"S1C1602","sona":"41433","block":6,"time":"2021-09-05T18:59:22.553Z","response":"2nd","certainty":"high","char":"L","transposition":-3,"order":["swapped","shifted"],"probe_pitches":[5,7,0,5,2,0,9,7,2,-3,0,-3,0,5,7,9],"shifted_pitches":[5,7,0,5,2,0,9,7,3,-3,0,-3,0,5,7,9],"swapped_pitches":[5,7,0,5,2,0,9,2,7,-3,0,-3,0,5,7,9],"shift_direction":1,"question_num":71,"has_decoy":false},{"rt":3311.699999999255,"stimulus":"[A] option 1, [L] option 2, [G] neither","key_press":65,"name":"choice","trial_type":"html-keyboard-response","trial_index":98,"time_elapsed":229403,"internal_node_id":"0.0-98.0","subject":"S1C1602","sona":"41433","block":6,"time":"2021-09-05T18:59:22.553Z","response":"1st","certainty":"high","char":"A","transposition":-3,"order":["swapped","shifted"],"probe_pitches":[4,5,3,8,9,14,3,6,12,2,12,14,10,2,10,12],"shifted_pitches":[4,5,3,8,9,14,3,6,11,2,12,14,10,2,10,12],"swapped_pitches":[4,5,3,8,9,14,3,12,6,2,12,14,10,2,10,12],"shift_direction":-1,"question_num":81,"has_decoy":false},{"rt":3947.89999999851,"stimulus":"[A] option 1, [L] option 2, [G] neither","key_press":76,"name":"choice","trial_type":"html-keyboard-response","trial_index":109,"time_elapsed":255961,"internal_node_id":"0.0-109.0","subject":"S1C1602","sona":"41433","block":6,"time":"2021-09-05T18:59:22.553Z","response":"2nd","certainty":"high","char":"L","transposition":-3,"order":["swapped","shifted"],"probe_pitches":[5,9,2,-3,2,-3,0,-3,2,7,9,7,0,7,9,2],"shifted_pitches":[5,9,2,-3,2,-3,0,-4,2,7,9,7,0,7,9,2],"swapped_pitches":[5,9,2,-3,2,-3,0,2,-3,7,9,7,0,7,9,2],"shift_direction":-1,"question_num":91,"has_decoy":false},{"rt":1478.5999999977648,"stimulus":"[A] option 1, [L] option 2, [G] neither","key_press":65,"name":"choice","trial_type":"html-keyboard-response","trial_index":120,"time_elapsed":279866,"internal_node_id":"0.0-120.0","subject":"S1C1602","sona":"41433","block":6,"time":"2021-09-05T18:59:22.553Z","response":"1st","certainty":"high","char":"A","transposition":-2,"order":["shifted","swapped"],"probe_pitches":[4,8,3,8,12,11,12,8,14,5,2,14,5,4,6,13],"shifted_pitches":[4,8,3,8,12,11,12,9,14,5,2,14,5,4,6,13],"swapped_pitches":[4,8,3,8,12,11,12,14,8,5,2,14,5,4,6,13],"shift_direction":1,"question_num":101,"has_decoy":false},{"rt":1018.4000000022352,"stimulus":"[A] option 1, [L] option 2, [G] neither","key_press":76,"name":"choice","trial_type":"html-keyboard-response","trial_index":131,"time_elapsed":303262,"internal_node_id":"0.0-131.0","subject":"S1C1602","sona":"41433","block":6,"time":"2021-09-05T18:59:22.553Z","response":"2nd","certainty":"high","char":"L","transposition":1,"order":["swapped","shifted"],"probe_pitches":[11,14,10,14,10,2,7,14,2,8,5,3,9,11,3,2],"shifted_pitches":[11,14,10,14,10,2,7,13,2,8,5,3,9,11,3,2],"swapped_pitches":[11,14,10,14,10,2,7,2,14,8,5,3,9,11,3,2],"shift_direction":-1,"question_num":111,"has_decoy":false},{"rt":1161.5999999977648,"stimulus":"[A] option 1, [L] option 2, [G] neither","key_press":65,"name":"choice","trial_type":"html-keyboard-response","trial_index":142,"time_elapsed":326797,"internal_node_id":"0.0-142.0","subject":"S1C1602","sona":"41433","block":6,"time":"2021-09-05T18:59:22.553Z","response":"1st","certainty":"high","char":"A","transposition":1,"order":["shifted","swapped"],"probe_pitches":[2,4,-3,2,4,9,6,-3,-1,9,-3,-1,9,-1,9,2],"shifted_pitches":[2,4,-3,2,4,9,6,-4,-1,9,-3,-1,9,-1,9,2],"swapped_pitches":[2,4,-3,2,4,9,6,-1,-3,9,-3,-1,9,-1,9,2],"shift_direction":-1,"question_num":121,"has_decoy":false},{"rt":691.6999999992549,"stimulus":"[A] option 1, [L] option 2, [G] neither","key_press":76,"name":"choice","trial_type":"html-keyboard-response","trial_index":153,"time_elapsed":349821,"internal_node_id":"0.0-153.0","subject":"S1C1602","sona":"41433","block":6,"time":"2021-09-05T18:59:22.553Z","response":"2nd","certainty":"high","char":"L","transposition":2,"order":["shifted","swapped"],"probe_pitches":[7,9,2,0,9,4,-3,0,2,9,2,9,-3,9,-3,9],"shifted_pitches":[7,9,2,0,9,4,-3,0,1,9,2,9,-3,9,-3,9],"swapped_pitches":[7,9,2,0,9,4,-3,2,0,9,2,9,-3,9,-3,9],"shift_direction":-1,"question_num":131,"has_decoy":false},{"rt":3413.39999999851,"stimulus":"[A] option 1, [L] option 2, [G] neither","key_press":76,"name":"choice","trial_type":"html-keyboard-response","trial_index":164,"time_elapsed":375556,"internal_node_id":"0.0-164.0","subject":"S1C1602","sona":"41433","block":6,"time":"2021-09-05T18:59:22.553Z","response":"2nd","certainty":"high","char":"L","transposition":-2,"order":["shifted","swapped"],"probe_pitches":[9,6,1,4,-3,6,4,9,6,4,9,-1,1,-1,6,1],"shifted_pitches":[9,6,1,4,-3,6,4,8,6,4,9,-1,1,-1,6,1],"swapped_pitches":[9,6,1,4,-3,6,4,6,9,4,9,-1,1,-1,6,1],"shift_direction":-1,"question_num":141,"has_decoy":false},{"rt":2493,"stimulus":"[A] option 1, [L] option 2, [G] neither","key_press":76,"name":"choice","trial_type":"html-keyboard-response","trial_index":175,"time_elapsed":400460,"internal_node_id":"0.0-175.0","subject":"S1C1602","sona":"41433","block":6,"time":"2021-09-05T18:59:22.553Z","response":"2nd","certainty":"high","char":"L","transposition":-1,"order":["swapped","shifted"],"probe_pitches":[2,-3,2,-1,-3,2,-1,7,2,4,7,4,-3,-1,-3,-1],"shifted_pitches":[2,-3,2,-1,-3,2,-1,8,2,4,7,4,-3,-1,-3,-1],"swapped_pitches":[2,-3,2,-1,-3,2,-1,2,7,4,7,4,-3,-1,-3,-1],"shift_direction":1,"question_num":151,"has_decoy":false},{"rt":2687.699999999255,"stimulus":"[A] option 1, [L] option 2, [G] neither","key_press":65,"name":"choice","trial_type":"html-keyboard-response","trial_index":186,"time_elapsed":425839,"internal_node_id":"0.0-186.0","subject":"S1C1602","sona":"41433","block":6,"time":"2021-09-05T18:59:22.553Z","response":"1st","certainty":"high","char":"A","transposition":-3,"order":["shifted","swapped"],"probe_pitches":[7,9,13,7,11,7,13,11,5,2,13,4,3,5,6,3],"shifted_pitches":[7,9,13,7,11,7,13,12,5,2,13,4,3,5,6,3],"swapped_pitches":[7,9,13,7,11,7,13,5,11,2,13,4,3,5,6,3],"shift_direction":1,"question_num":161,"has_decoy":false},{"rt":4191.400000002235,"stimulus":"[A] option 1, [L] option 2, [G] neither","key_press":76,"name":"choice","trial_type":"html-keyboard-response","trial_index":197,"time_elapsed":453221,"internal_node_id":"0.0-197.0","subject":"S1C1602","sona":"41433","block":6,"time":"2021-09-05T18:59:22.553Z","response":"2nd","certainty":"high","char":"L","transposition":-2,"order":["shifted","swapped"],"probe_pitches":[-3,-1,4,2,-3,7,-3,9,4,2,-1,2,4,7,9,4],"shifted_pitches":[-3,-1,4,2,-3,7,-3,8,4,2,-1,2,4,7,9,4],"swapped_pitches":[-3,-1,4,2,-3,7,-3,4,9,2,-1,2,4,7,9,4],"shift_direction":-1,"question_num":171,"has_decoy":false},{"rt":2617.7999999970198,"stimulus":"[A] option 1, [L] option 2, [G] neither","key_press":76,"name":"choice","trial_type":"html-keyboard-response","trial_index":208,"time_elapsed":478154,"internal_node_id":"0.0-208.0","subject":"S1C1602","sona":"41433","block":6,"time":"2021-09-05T18:59:22.553Z","response":"2nd","certainty":"high","char":"L","transposition":2,"order":["swapped","shifted"],"probe_pitches":[14,11,12,8,12,5,4,7,11,9,3,11,13,3,7,13],"shifted_pitches":[14,11,12,8,12,5,4,6,11,9,3,11,13,3,7,13],"swapped_pitches":[14,11,12,8,12,5,4,11,7,9,3,11,13,3,7,13],"shift_direction":-1,"question_num":181,"has_decoy":false},{"rt":3954,"stimulus":"[A] option 1, [L] option 2, [G] neither","key_press":76,"name":"choice","trial_type":"html-keyboard-response","trial_index":219,"time_elapsed":504376,"internal_node_id":"0.0-219.0","subject":"S1C1602","sona":"41433","block":6,"time":"2021-09-05T18:59:22.553Z","response":"2nd","certainty":"high","char":"L","transposition":0,"order":["swapped","shifted"],"probe_pitches":[8,13,14,13,10,11,5,14,8,12,3,8,5,14,9,3],"shifted_pitches":[8,13,14,13,10,11,5,14,7,12,3,8,5,14,9,3],"swapped_pitches":[8,13,14,13,10,11,5,8,14,12,3,8,5,14,9,3],"shift_direction":-1,"question_num":191,"has_decoy":false}]