[{"rt":1003.1000000014901,"stimulus":"[A] option 1, [L] option 2, [G] neither","key_press":76,"name":"choice","trial_type":"html-keyboard-response","trial_index":10,"time_elapsed":25410,"internal_node_id":"0.0-10.0","subject":"S1C1602","sona":"41433","block":3,"time":"2021-09-05T18:26:21.862Z","response":"2nd","certainty":"high","char":"L","transposition":-1,"order":["swapped","shifted"],"probe_pitches":[6,3,2,3,2,-1,-2,6,5,-2,-1,8,7,3,0,7],"shifted_pitches":[6,3,2,3,2,-1,-2,6,4,-2,-1,8,7,3,0,7],"swapped_pitches":[6,3,2,3,2,-1,-2,5,6,-2,-1,8,7,3,0,7],"shift_direction":-1,"question_num":1,"has_decoy":false},{"rt":2413.400000002235,"stimulus":"[A] option 1, [L] option 2, [G] neither","key_press":76,"name":"choice","trial_type":"html-keyboard-response","trial_index":21,"time_elapsed":50159,"internal_node_id":"0.0-21.0","subject":"S1C1602","sona":"41433","block":3,"time":"2021-09-05T18:26:21.862Z","response":"2nd","certainty":"high","char":"L","transposition":2,"order":["shifted","swapped"],"probe_pitches":[4,7,1,0,-2,7,6,4,-1,9,6,-3,6,7,9,1],"shifted_pitches":[4,7,1,0,-2,7,6,5,-1,9,6,-3,6,7,9,1],"swapped_pitches":[4,7,1,0,-2,7,6,-1,4,9,6,-3,6,7,9,1],"shift_direction":1,"question_num":11,"has_decoy":false},{"rt":2989.800000000745,"stimulus":"[A] option 1, [L] option 2, [G] neither","key_press":65,"name":"choice","trial_type":"html-keyboard-response","trial_index":32,"time_elapsed":75722,"internal_node_id":"0.0-32.0","subject":"S1C1602","sona":"41433","block":3,"time":"2021-09-05T18:26:21.862Z","response":"1st","certainty":"high","char":"A","transposition":1,"order":["shifted","swapped"],"probe_pitches":[8,5,-2,5,10,8,10,-2,8,10,3,5,1,10,1,8],"shifted_pitches":[8,5,-2,5,10,8,10,-1,8,10,3,5,1,10,1,8],"swapped_pitches":[8,5,-2,5,10,8,10,8,-2,10,3,5,1,10,1,8],"shift_direction":1,"question_num":21,"has_decoy":false},{"rt":2030.800000000745,"stimulus":"[A] option 1, [L] option 2, [G] neither","key_press":65,"name":"choice","trial_type":"html-keyboard-response","trial_index":43,"time_elapsed":101147,"internal_node_id":"0.0-43.0","subject":"S1C1602","sona":"41433","block":3,"time":"2021-09-05T18:26:21.862Z","response":"1st","certainty":"high","char":"A","transposition":-3,"order":["shifted","swapped"],"probe_pitches":[0,2,0,-2,0,-2,7,10,-2,7,0,2,5,2,-2,0],"shifted_pitches":[0,2,0,-2,0,-2,7,11,-2,7,0,2,5,2,-2,0],"swapped_pitches":[0,2,0,-2,0,-2,7,-2,10,7,0,2,5,2,-2,0],"shift_direction":1,"question_num":31,"has_decoy":false},{"rt":2024.6000000014901,"stimulus":"[A] option 1, [L] option 2, [G] neither","key_press":65,"name":"choice","trial_type":"html-keyboard-response","trial_index":54,"time_elapsed":125713,"internal_node_id":"0.0-54.0","subject":"S1C1602","sona":"41433","block":3,"time":"2021-09-05T18:26:21.862Z","response":"1st","certainty":"high","char":"A","transposition":-3,"order":["swapped","shifted"],"probe_pitches":[5,0,2,7,2,0,2,-2,0,7,-2,2,-2,5,7,10],"shifted_pitches":[5,0,2,7,2,0,2,-2,1,7,-2,2,-2,5,7,10],"swapped_pitches":[5,0,2,7,2,0,2,0,-2,7,-2,2,-2,5,7,10],"shift_direction":1,"question_num":41,"has_decoy":false},{"rt":1988.699999999255,"stimulus":"[A] option 1, [L] option 2, [G] neither","key_press":76,"name":"choice","trial_type":"html-keyboard-response","trial_index":65,"time_elapsed":153389,"internal_node_id":"0.0-65.0","subject":"S1C1602","sona":"41433","block":3,"time":"2021-09-05T18:26:21.862Z","response":"2nd","certainty":"high","char":"L","transposition":-2,"order":["swapped","shifted"],"probe_pitches":[5,9,8,3,-1,0,1,6,9,5,3,-2,8,9,5,-2],"shifted_pitches":[5,9,8,3,-1,0,1,7,9,5,3,-2,8,9,5,-2],"swapped_pitches":[5,9,8,3,-1,0,1,9,6,5,3,-2,8,9,5,-2],"shift_direction":1,"question_num":51,"has_decoy":false},{"rt":1399.6000000014901,"stimulus":"[A] option 1, [L] option 2, [G] neither","key_press":76,"name":"choice","trial_type":"html-keyboard-response","trial_index":76,"time_elapsed":191435,"internal_node_id":"0.0-76.0","subject":"S1C1602","sona":"41433","block":3,"time":"2021-09-05T18:26:21.862Z","response":"2nd","certainty":"high","char":"L","transposition":-1,"order":["shifted","swapped"],"probe_pitches":[8,6,4,5,-2,6,9,-1,1,3,-3,7,9,7,6,1],"shifted_pitches":[8,6,4,5,-2,6,9,-1,0,3,-3,7,9,7,6,1],"swapped_pitches":[8,6,4,5,-2,6,9,1,-1,3,-3,7,9,7,6,1],"shift_direction":-1,"question_num":61,"has_decoy":false},{"rt":2143.2999999970198,"stimulus":"[A] option 1, [L] option 2, [G] neither","key_press":76,"name":"choice","trial_type":"html-keyboard-response","trial_index":87,"time_elapsed":216270,"internal_node_id":"0.0-87.0","subject":"S1C1602","sona":"41433","block":3,"time":"2021-09-05T18:26:21.862Z","response":"2nd","certainty":"high","char":"L","transposition":-1,"order":["swapped","shifted"],"probe_pitches":[5,1,-2,3,8,10,1,-2,5,10,8,5,3,1,10,8],"shifted_pitches":[5,1,-2,3,8,10,1,-3,5,10,8,5,3,1,10,8],"swapped_pitches":[5,1,-2,3,8,10,1,5,-2,10,8,5,3,1,10,8],"shift_direction":-1,"question_num":71,"has_decoy":false},{"rt":1797.3999999985099,"stimulus":"[A] option 1, [L] option 2, [G] neither","key_press":76,"name":"choice","trial_type":"html-keyboard-response","trial_index":98,"time_elapsed":241332,"internal_node_id":"0.0-98.0","subject":"S1C1602","sona":"41433","block":3,"time":"2021-09-05T18:26:21.862Z","response":"2nd","certainty":"high","char":"L","transposition":-2,"order":["swapped","shifted"],"probe_pitches":[5,0,5,3,5,3,5,-2,0,5,10,7,-2,5,3,0],"shifted_pitches":[5,0,5,3,5,3,5,-2,-1,5,10,7,-2,5,3,0],"swapped_pitches":[5,0,5,3,5,3,5,0,-2,5,10,7,-2,5,3,0],"shift_direction":-1,"question_num":81,"has_decoy":false},{"rt":1401.199999999255,"stimulus":"[A] option 1, [L] option 2, [G] neither","key_press":76,"name":"choice","trial_type":"html-keyboard-response","trial_index":109,"time_elapsed":266179,"internal_node_id":"0.0-109.0","subject":"S1C1602","sona":"41433","block":3,"time":"2021-09-05T18:26:21.862Z","response":"2nd","certainty":"high","char":"L","transposition":-3,"order":["shifted","swapped"],"probe_pitches":[-3,-2,-1,-3,3,-2,0,7,4,0,9,4,2,5,2,4],"shifted_pitches":[-3,-2,-1,-3,3,-2,0,6,4,0,9,4,2,5,2,4],"swapped_pitches":[-3,-2,-1,-3,3,-2,0,4,7,0,9,4,2,5,2,4],"shift_direction":-1,"question_num":91,"has_decoy":false},{"rt":2032.5999999977648,"stimulus":"[A] option 1, [L] option 2, [G] neither","key_press":65,"name":"choice","trial_type":"html-keyboard-response","trial_index":120,"time_elapsed":290944,"internal_node_id":"0.0-120.0","subject":"S1C1602","sona":"41433","block":3,"time":"2021-09-05T18:26:21.862Z","response":"1st","certainty":"high","char":"A","transposition":-1,"order":["swapped","shifted"],"probe_pitches":[5,8,3,10,3,0,3,10,0,8,-2,3,0,8,10,0],"shifted_pitches":[5,8,3,10,3,0,3,10,1,8,-2,3,0,8,10,0],"swapped_pitches":[5,8,3,10,3,0,3,0,10,8,-2,3,0,8,10,0],"shift_direction":1,"question_num":101,"has_decoy":false},{"rt":1973.5999999977648,"stimulus":"[A] option 1, [L] option 2, [G] neither","key_press":65,"name":"choice","trial_type":"html-keyboard-response","trial_index":131,"time_elapsed":316192,"internal_node_id":"0.0-131.0","subject":"S1C1602","sona":"41433","block":3,"time":"2021-09-05T18:26:21.862Z","response":"1st","certainty":"high","char":"A","transposition":0,"order":["swapped","shifted"],"probe_pitches":[-2,1,-2,1,-2,1,10,3,6,8,6,10,6,1,3,6],"shifted_pitches":[-2,1,-2,1,-2,1,10,2,6,8,6,10,6,1,3,6],"swapped_pitches":[-2,1,-2,1,-2,1,10,6,3,8,6,10,6,1,3,6],"shift_direction":-1,"question_num":111,"has_decoy":false},{"rt":2503.60000000149,"stimulus":"[A] option 1, [L] option 2, [G] neither","key_press":65,"name":"choice","trial_type":"html-keyboard-response","trial_index":142,"time_elapsed":342589,"internal_node_id":"0.0-142.0","subject":"S1C1602","sona":"41433","block":3,"time":"2021-09-05T18:26:21.862Z","response":"1st","certainty":"high","char":"A","transposition":-2,"order":["swapped","shifted"],"probe_pitches":[9,7,8,3,1,5,4,-2,1,7,-1,-3,6,-1,0,7],"shifted_pitches":[9,7,8,3,1,5,4,-2,2,7,-1,-3,6,-1,0,7],"swapped_pitches":[9,7,8,3,1,5,4,1,-2,7,-1,-3,6,-1,0,7],"shift_direction":1,"question_num":121,"has_decoy":false},{"rt":1352.9000000022352,"stimulus":"[A] option 1, [L] option 2, [G] neither","key_press":76,"name":"choice","trial_type":"html-keyboard-response","trial_index":153,"time_elapsed":366341,"internal_node_id":"0.0-153.0","subject":"S1C1602","sona":"41433","block":3,"time":"2021-09-05T18:26:21.862Z","response":"2nd","certainty":"high","char":"L","transposition":3,"order":["swapped","shifted"],"probe_pitches":[2,-2,-1,2,0,9,2,5,4,-2,-3,9,6,-3,-1,2],"shifted_pitches":[2,-2,-1,2,0,9,2,5,3,-2,-3,9,6,-3,-1,2],"swapped_pitches":[2,-2,-1,2,0,9,2,4,5,-2,-3,9,6,-3,-1,2],"shift_direction":-1,"question_num":131,"has_decoy":false},{"rt":1688.800000000745,"stimulus":"[A] option 1, [L] option 2, [G] neither","key_press":76,"name":"choice","trial_type":"html-keyboard-response","trial_index":164,"time_elapsed":390773,"internal_node_id":"0.0-164.0","subject":"S1C1602","sona":"41433","block":3,"time":"2021-09-05T18:26:21.862Z","response":"2nd","certainty":"high","char":"L","transposition":-2,"order":["shifted","swapped"],"probe_pitches":[3,7,0,3,7,-2,5,-2,3,5,7,3,7,-2,3,-2],"shifted_pitches":[3,7,0,3,7,-2,5,-2,2,5,7,3,7,-2,3,-2],"swapped_pitches":[3,7,0,3,7,-2,5,3,-2,5,7,3,7,-2,3,-2],"shift_direction":-1,"question_num":141,"has_decoy":false},{"rt":434.6000000014901,"stimulus":"[A] option 1, [L] option 2, [G] neither","key_press":76,"name":"choice","trial_type":"html-keyboard-response","trial_index":175,"time_elapsed":416970,"internal_node_id":"0.0-175.0","subject":"S1C1602","sona":"41433","block":3,"time":"2021-09-05T18:26:21.862Z","response":"2nd","certainty":"high","char":"L","transposition":-3,"order":["swapped","shifted"],"probe_pitches":[-3,-1,2,6,9,6,-2,-3,4,-2,5,9,5,-3,6,5],"shifted_pitches":[-3,-1,2,6,9,6,-2,-4,4,-2,5,9,5,-3,6,5],"swapped_pitches":[-3,-1,2,6,9,6,-2,4,-3,-2,5,9,5,-3,6,5],"shift_direction":-1,"question_num":151,"has_decoy":false},{"rt":7252.699999999255,"stimulus":"[A] option 1, [L] option 2, [G] neither","key_press":65,"name":"choice","trial_type":"html-keyboard-response","trial_index":186,"time_elapsed":446748,"internal_node_id":"0.0-186.0","subject":"S1C1602","sona":"41433","block":3,"time":"2021-09-05T18:26:21.862Z","response":"1st","certainty":"high","char":"A","transposition":2,"order":["shifted","swapped"],"probe_pitches":[3,0,5,10,8,-2,5,0,8,10,-2,10,-2,10,5,0],"shifted_pitches":[3,0,5,10,8,-2,5,-1,8,10,-2,10,-2,10,5,0],"swapped_pitches":[3,0,5,10,8,-2,5,8,0,10,-2,10,-2,10,5,0],"shift_direction":-1,"question_num":161,"has_decoy":false},{"rt":2353.89999999851,"stimulus":"[A] option 1, [L] option 2, [G] neither","key_press":76,"name":"choice","trial_type":"html-keyboard-response","trial_index":197,"time_elapsed":471480,"internal_node_id":"0.0-197.0","subject":"S1C1602","sona":"41433","block":3,"time":"2021-09-05T18:26:21.862Z","response":"2nd","certainty":"high","char":"L","transposition":1,"order":["shifted","swapped"],"probe_pitches":[4,8,7,3,7,2,0,-2,8,1,4,-3,8,5,-2,4],"shifted_pitches":[4,8,7,3,7,2,0,-1,8,1,4,-3,8,5,-2,4],"swapped_pitches":[4,8,7,3,7,2,0,8,-2,1,4,-3,8,5,-2,4],"shift_direction":1,"question_num":171,"has_decoy":false},{"rt":1223.5,"stimulus":"[A] option 1, [L] option 2, [G] neither","key_press":76,"name":"choice","trial_type":"html-keyboard-response","trial_index":208,"time_elapsed":498151,"internal_node_id":"0.0-208.0","subject":"S1C1602","sona":"41433","block":3,"time":"2021-09-05T18:26:21.862Z","response":"2nd","certainty":"high","char":"L","transposition":0,"order":["shifted","swapped"],"probe_pitches":[9,4,5,2,-1,0,3,-2,0,9,-3,7,-1,2,9,-2],"shifted_pitches":[9,4,5,2,-1,0,3,-2,1,9,-3,7,-1,2,9,-2],"swapped_pitches":[9,4,5,2,-1,0,3,0,-2,9,-3,7,-1,2,9,-2],"shift_direction":1,"question_num":181,"has_decoy":false},{"rt":3543,"stimulus":"[A] option 1, [L] option 2, [G] neither","key_press":65,"name":"choice","trial_type":"html-keyboard-response","trial_index":219,"time_elapsed":524801,"internal_node_id":"0.0-219.0","subject":"S1C1602","sona":"41433","block":3,"time":"2021-09-05T18:26:21.862Z","response":"1st","certainty":"high","char":"A","transposition":3,"order":["shifted","swapped"],"probe_pitches":[-2,1,6,-2,3,10,8,6,3,10,8,6,1,10,1,-2],"shifted_pitches":[-2,1,6,-2,3,10,8,6,4,10,8,6,1,10,1,-2],"swapped_pitches":[-2,1,6,-2,3,10,8,3,6,10,8,6,1,10,1,-2],"shift_direction":1,"question_num":191,"has_decoy":false}]