[{"rt":1697.800000000745,"stimulus":"[A] option 1, [L] option 2, [G] neither","key_press":65,"name":"choice","trial_type":"html-keyboard-response","trial_index":10,"time_elapsed":28174,"internal_node_id":"0.0-10.0","subject":"S1C1602","sona":"41433","block":2,"time":"2021-09-05T18:15:44.728Z","response":"1st","certainty":"high","char":"A","transposition":-2,"order":["shifted","swapped"],"probe_pitches":[11,8,1,4,8,6,13,4,8,6,8,11,4,13,8,4],"shifted_pitches":[11,8,1,4,8,6,13,4,7,6,8,11,4,13,8,4],"swapped_pitches":[11,8,1,4,8,6,13,8,4,6,8,11,4,13,8,4],"shift_direction":-1,"question_num":1,"has_decoy":false},{"rt":1267.199999999255,"stimulus":"[A] option 1, [L] option 2, [G] neither","key_press":76,"name":"choice","trial_type":"html-keyboard-response","trial_index":21,"time_elapsed":53237,"internal_node_id":"0.0-21.0","subject":"S1C1602","sona":"41433","block":2,"time":"2021-09-05T18:15:44.728Z","response":"2nd","certainty":"high","char":"L","transposition":-3,"order":["swapped","shifted"],"probe_pitches":[5,10,6,3,-1,1,8,9,3,10,11,3,-1,7,-1,8],"shifted_pitches":[5,10,6,3,-1,1,8,9,4,10,11,3,-1,7,-1,8],"swapped_pitches":[5,10,6,3,-1,1,8,3,9,10,11,3,-1,7,-1,8],"shift_direction":1,"question_num":11,"has_decoy":false},{"rt":5406.599999997765,"stimulus":"[A] option 1, [L] option 2, [G] neither","key_press":76,"name":"choice","trial_type":"html-keyboard-response","trial_index":32,"time_elapsed":80961,"internal_node_id":"0.0-32.0","subject":"S1C1602","sona":"41433","block":2,"time":"2021-09-05T18:15:44.728Z","response":"2nd","certainty":"high","char":"L","transposition":1,"order":["swapped","shifted"],"probe_pitches":[5,0,5,7,5,9,11,5,2,11,8,3,0,8,10,2],"shifted_pitches":[5,0,5,7,5,9,11,5,1,11,8,3,0,8,10,2],"swapped_pitches":[5,0,5,7,5,9,11,2,5,11,8,3,0,8,10,2],"shift_direction":-1,"question_num":21,"has_decoy":false},{"rt":1366.699999999255,"stimulus":"[A] option 1, [L] option 2, [G] neither","key_press":65,"name":"choice","trial_type":"html-keyboard-response","trial_index":43,"time_elapsed":106346,"internal_node_id":"0.0-43.0","subject":"S1C1602","sona":"41433","block":2,"time":"2021-09-05T18:15:44.728Z","response":"1st","certainty":"high","char":"A","transposition":1,"order":["shifted","swapped"],"probe_pitches":[11,6,9,13,4,9,4,11,1,4,1,6,9,1,13,1],"shifted_pitches":[11,6,9,13,4,9,4,11,2,4,1,6,9,1,13,1],"swapped_pitches":[11,6,9,13,4,9,4,1,11,4,1,6,9,1,13,1],"shift_direction":1,"question_num":31,"has_decoy":false},{"rt":4365.89999999851,"stimulus":"[A] option 1, [L] option 2, [G] neither","key_press":71,"name":"choice","trial_type":"html-keyboard-response","trial_index":54,"time_elapsed":134177,"internal_node_id":"0.0-54.0","subject":"S1C1602","sona":"41433","block":2,"time":"2021-09-05T18:15:44.728Z","response":"neither","certainty":"high","char":"G","transposition":-3,"order":["shifted","swapped"],"probe_pitches":[13,11,13,6,8,3,11,3,6,8,1,13,6,3,13,11],"shifted_pitches":[13,11,13,6,8,3,11,3,7,8,1,13,6,3,13,11],"swapped_pitches":[13,11,13,6,8,3,11,6,3,8,1,13,6,3,13,11],"shift_direction":1,"question_num":41,"has_decoy":false},{"rt":1836.800000000745,"stimulus":"[A] option 1, [L] option 2, [G] neither","key_press":65,"name":"choice","trial_type":"html-keyboard-response","trial_index":65,"time_elapsed":164136,"internal_node_id":"0.0-65.0","subject":"S1C1602","sona":"41433","block":2,"time":"2021-09-05T18:15:44.728Z","response":"1st","certainty":"high","char":"A","transposition":2,"order":["shifted","swapped"],"probe_pitches":[4,8,10,2,0,9,1,4,0,3,2,0,10,8,6,4],"shifted_pitches":[4,8,10,2,0,9,1,5,0,3,2,0,10,8,6,4],"swapped_pitches":[4,8,10,2,0,9,1,0,4,3,2,0,10,8,6,4],"shift_direction":1,"question_num":51,"has_decoy":false},{"rt":3537.599999997765,"stimulus":"[A] option 1, [L] option 2, [G] neither","key_press":65,"name":"choice","trial_type":"html-keyboard-response","trial_index":76,"time_elapsed":190790,"internal_node_id":"0.0-76.0","subject":"S1C1602","sona":"41433","block":2,"time":"2021-09-05T18:15:44.728Z","response":"1st","certainty":"high","char":"A","transposition":-3,"order":["swapped","shifted"],"probe_pitches":[-1,0,3,-1,7,2,3,1,7,4,2,0,5,2,0,1],"shifted_pitches":[-1,0,3,-1,7,2,3,1,8,4,2,0,5,2,0,1],"swapped_pitches":[-1,0,3,-1,7,2,3,7,1,4,2,0,5,2,0,1],"shift_direction":1,"question_num":61,"has_decoy":false},{"rt":536.3999999985099,"stimulus":"[A] option 1, [L] option 2, [G] neither","key_press":76,"name":"choice","trial_type":"html-keyboard-response","trial_index":87,"time_elapsed":214567,"internal_node_id":"0.0-87.0","subject":"S1C1602","sona":"41433","block":2,"time":"2021-09-05T18:15:44.728Z","response":"2nd","certainty":"high","char":"L","transposition":-3,"order":["shifted","swapped"],"probe_pitches":[11,13,6,8,3,13,11,1,13,11,13,8,3,13,1,13],"shifted_pitches":[11,13,6,8,3,13,11,2,13,11,13,8,3,13,1,13],"swapped_pitches":[11,13,6,8,3,13,11,13,1,11,13,8,3,13,1,13],"shift_direction":1,"question_num":71,"has_decoy":false},{"rt":956,"stimulus":"[A] option 1, [L] option 2, [G] neither","key_press":76,"name":"choice","trial_type":"html-keyboard-response","trial_index":98,"time_elapsed":237979,"internal_node_id":"0.0-98.0","subject":"S1C1602","sona":"41433","block":2,"time":"2021-09-05T18:15:44.728Z","response":"2nd","certainty":"high","char":"L","transposition":2,"order":["swapped","shifted"],"probe_pitches":[4,1,6,9,4,1,11,9,4,11,1,13,9,4,1,13],"shifted_pitches":[4,1,6,9,4,1,11,8,4,11,1,13,9,4,1,13],"swapped_pitches":[4,1,6,9,4,1,11,4,9,11,1,13,9,4,1,13],"shift_direction":-1,"question_num":81,"has_decoy":false},{"rt":1736.6000000014901,"stimulus":"[A] option 1, [L] option 2, [G] neither","key_press":65,"name":"choice","trial_type":"html-keyboard-response","trial_index":109,"time_elapsed":262382,"internal_node_id":"0.0-109.0","subject":"S1C1602","sona":"41433","block":2,"time":"2021-09-05T18:15:44.728Z","response":"1st","certainty":"high","char":"A","transposition":-2,"order":["swapped","shifted"],"probe_pitches":[-1,4,8,7,0,3,8,-1,9,1,5,2,3,9,4,5],"shifted_pitches":[-1,4,8,7,0,3,8,-1,10,1,5,2,3,9,4,5],"swapped_pitches":[-1,4,8,7,0,3,8,9,-1,1,5,2,3,9,4,5],"shift_direction":1,"question_num":91,"has_decoy":false},{"rt":1407.3999999985099,"stimulus":"[A] option 1, [L] option 2, [G] neither","key_press":76,"name":"choice","trial_type":"html-keyboard-response","trial_index":120,"time_elapsed":286704,"internal_node_id":"0.0-120.0","subject":"S1C1602","sona":"41433","block":2,"time":"2021-09-05T18:15:44.728Z","response":"2nd","certainty":"high","char":"L","transposition":-1,"order":["shifted","swapped"],"probe_pitches":[3,6,8,3,1,8,6,8,13,10,13,1,10,1,13,6],"shifted_pitches":[3,6,8,3,1,8,6,7,13,10,13,1,10,1,13,6],"swapped_pitches":[3,6,8,3,1,8,6,13,8,10,13,1,10,1,13,6],"shift_direction":-1,"question_num":101,"has_decoy":false},{"rt":1869.1000000014901,"stimulus":"[A] option 1, [L] option 2, [G] neither","key_press":76,"name":"choice","trial_type":"html-keyboard-response","trial_index":131,"time_elapsed":311032,"internal_node_id":"0.0-131.0","subject":"S1C1602","sona":"41433","block":2,"time":"2021-09-05T18:15:44.728Z","response":"2nd","certainty":"high","char":"L","transposition":-1,"order":["shifted","swapped"],"probe_pitches":[11,5,1,6,8,5,0,10,8,11,8,5,9,4,11,2],"shifted_pitches":[11,5,1,6,8,5,0,10,7,11,8,5,9,4,11,2],"swapped_pitches":[11,5,1,6,8,5,0,8,10,11,8,5,9,4,11,2],"shift_direction":-1,"question_num":111,"has_decoy":false},{"rt":2933.5,"stimulus":"[A] option 1, [L] option 2, [G] neither","key_press":65,"name":"choice","trial_type":"html-keyboard-response","trial_index":142,"time_elapsed":337612,"internal_node_id":"0.0-142.0","subject":"S1C1602","sona":"41433","block":2,"time":"2021-09-05T18:15:44.728Z","response":"1st","certainty":"high","char":"A","transposition":0,"order":["swapped","shifted"],"probe_pitches":[10,5,10,8,1,10,3,1,5,3,13,1,8,10,5,13],"shifted_pitches":[10,5,10,8,1,10,3,1,6,3,13,1,8,10,5,13],"swapped_pitches":[10,5,10,8,1,10,3,5,1,3,13,1,8,10,5,13],"shift_direction":1,"question_num":121,"has_decoy":false},{"rt":1478.8999999985099,"stimulus":"[A] option 1, [L] option 2, [G] neither","key_press":76,"name":"choice","trial_type":"html-keyboard-response","trial_index":153,"time_elapsed":362174,"internal_node_id":"0.0-153.0","subject":"S1C1602","sona":"41433","block":2,"time":"2021-09-05T18:15:44.728Z","response":"2nd","certainty":"high","char":"L","transposition":-2,"order":["shifted","swapped"],"probe_pitches":[5,8,7,10,2,9,2,7,1,2,3,9,10,4,8,1],"shifted_pitches":[5,8,7,10,2,9,2,6,1,2,3,9,10,4,8,1],"swapped_pitches":[5,8,7,10,2,9,2,1,7,2,3,9,10,4,8,1],"shift_direction":-1,"question_num":131,"has_decoy":false},{"rt":2967.2999999970198,"stimulus":"[A] option 1, [L] option 2, [G] neither","key_press":71,"name":"choice","trial_type":"html-keyboard-response","trial_index":164,"time_elapsed":387950,"internal_node_id":"0.0-164.0","subject":"S1C1602","sona":"41433","block":2,"time":"2021-09-05T18:15:44.728Z","response":"neither","certainty":"high","char":"G","transposition":3,"order":["shifted","swapped"],"probe_pitches":[6,1,5,4,7,1,4,8,0,7,10,3,10,2,4,1],"shifted_pitches":[6,1,5,4,7,1,4,9,0,7,10,3,10,2,4,1],"swapped_pitches":[6,1,5,4,7,1,4,0,8,7,10,3,10,2,4,1],"shift_direction":1,"question_num":141,"has_decoy":false},{"rt":1569.800000000745,"stimulus":"[A] option 1, [L] option 2, [G] neither","key_press":65,"name":"choice","trial_type":"html-keyboard-response","trial_index":175,"time_elapsed":540679,"internal_node_id":"0.0-175.0","subject":"S1C1602","sona":"41433","block":2,"time":"2021-09-05T18:15:44.728Z","response":"1st","certainty":"high","char":"A","transposition":0,"order":["swapped","shifted"],"probe_pitches":[10,7,10,9,5,9,7,3,0,6,4,1,6,-1,6,8],"shifted_pitches":[10,7,10,9,5,9,7,2,0,6,4,1,6,-1,6,8],"swapped_pitches":[10,7,10,9,5,9,7,0,3,6,4,1,6,-1,6,8],"shift_direction":-1,"question_num":151,"has_decoy":false},{"rt":763.7000000029802,"stimulus":"[A] option 1, [L] option 2, [G] neither","key_press":76,"name":"choice","trial_type":"html-keyboard-response","trial_index":186,"time_elapsed":563804,"internal_node_id":"0.0-186.0","subject":"S1C1602","sona":"41433","block":2,"time":"2021-09-05T18:15:44.728Z","response":"2nd","certainty":"high","char":"L","transposition":-2,"order":["swapped","shifted"],"probe_pitches":[4,1,8,6,4,11,13,1,11,8,4,11,13,4,1,13],"shifted_pitches":[4,1,8,6,4,11,13,0,11,8,4,11,13,4,1,13],"swapped_pitches":[4,1,8,6,4,11,13,11,1,8,4,11,13,4,1,13],"shift_direction":-1,"question_num":161,"has_decoy":false},{"rt":1444.199999999255,"stimulus":"[A] option 1, [L] option 2, [G] neither","key_press":76,"name":"choice","trial_type":"html-keyboard-response","trial_index":197,"time_elapsed":587983,"internal_node_id":"0.0-197.0","subject":"S1C1602","sona":"41433","block":2,"time":"2021-09-05T18:15:44.728Z","response":"2nd","certainty":"high","char":"L","transposition":3,"order":["swapped","shifted"],"probe_pitches":[6,3,8,10,13,8,1,6,13,3,1,13,10,13,3,6],"shifted_pitches":[6,3,8,10,13,8,1,5,13,3,1,13,10,13,3,6],"swapped_pitches":[6,3,8,10,13,8,1,13,6,3,1,13,10,13,3,6],"shift_direction":-1,"question_num":171,"has_decoy":false},{"rt":626.6000000014901,"stimulus":"[A] option 1, [L] option 2, [G] neither","key_press":76,"name":"choice","trial_type":"html-keyboard-response","trial_index":208,"time_elapsed":611182,"internal_node_id":"0.0-208.0","subject":"S1C1602","sona":"41433","block":2,"time":"2021-09-05T18:15:44.728Z","response":"2nd","certainty":"high","char":"L","transposition":-1,"order":["shifted","swapped"],"probe_pitches":[9,11,4,9,5,4,5,4,8,7,8,1,11,0,5,4],"shifted_pitches":[9,11,4,9,5,4,5,3,8,7,8,1,11,0,5,4],"swapped_pitches":[9,11,4,9,5,4,5,8,4,7,8,1,11,0,5,4],"shift_direction":-1,"question_num":181,"has_decoy":false},{"rt":1666.300000000745,"stimulus":"[A] option 1, [L] option 2, [G] neither","key_press":65,"name":"choice","trial_type":"html-keyboard-response","trial_index":219,"time_elapsed":635390,"internal_node_id":"0.0-219.0","subject":"S1C1602","sona":"41433","block":2,"time":"2021-09-05T18:15:44.728Z","response":"1st","certainty":"high","char":"A","transposition":-1,"order":["swapped","shifted"],"probe_pitches":[3,5,3,5,13,8,1,8,5,3,8,1,10,8,1,10],"shifted_pitches":[3,5,3,5,13,8,1,8,6,3,8,1,10,8,1,10],"swapped_pitches":[3,5,3,5,13,8,1,5,8,3,8,1,10,8,1,10],"shift_direction":1,"question_num":191,"has_decoy":false}]