[{"rt":3999.5,"stimulus":"[A] option 1, [L] option 2, [G] neither","key_press":65,"name":"choice","trial_type":"html-keyboard-response","trial_index":10,"time_elapsed":37052,"internal_node_id":"0.0-10.0","subject":"S1C1602","sona":"41433","block":5,"time":"2021-09-05T18:50:53.942Z","response":"1st","certainty":"high","char":"A","transposition":-2,"order":["shifted","swapped"],"probe_pitches":[7,4,10,5,14,6,12,14,5,4,6,15,11,15,6,8],"shifted_pitches":[7,4,10,5,14,6,12,13,5,4,6,15,11,15,6,8],"swapped_pitches":[7,4,10,5,14,6,12,5,14,4,6,15,11,15,6,8],"shift_direction":-1,"question_num":1,"has_decoy":false},{"rt":2375.5,"stimulus":"[A] option 1, [L] option 2, [G] neither","key_press":71,"name":"choice","trial_type":"html-keyboard-response","trial_index":21,"time_elapsed":61816,"internal_node_id":"0.0-21.0","subject":"S1C1602","sona":"41433","block":5,"time":"2021-09-05T18:50:53.942Z","response":"neither","certainty":"high","char":"G","transposition":0,"order":["swapped","shifted"],"probe_pitches":[6,8,13,6,13,6,13,4,11,8,4,1,11,4,13,11],"shifted_pitches":[6,8,13,6,13,6,13,3,11,8,4,1,11,4,13,11],"swapped_pitches":[6,8,13,6,13,6,13,11,4,8,4,1,11,4,13,11],"shift_direction":-1,"question_num":11,"has_decoy":false},{"rt":3572.10000000149,"stimulus":"[A] option 1, [L] option 2, [G] neither","key_press":65,"name":"choice","trial_type":"html-keyboard-response","trial_index":32,"time_elapsed":88019,"internal_node_id":"0.0-32.0","subject":"S1C1602","sona":"41433","block":5,"time":"2021-09-05T18:50:53.942Z","response":"1st","certainty":"high","char":"A","transposition":1,"order":["shifted","swapped"],"probe_pitches":[3,9,13,5,7,3,9,15,11,9,13,10,11,15,10,13],"shifted_pitches":[3,9,13,5,7,3,9,15,12,9,13,10,11,15,10,13],"swapped_pitches":[3,9,13,5,7,3,9,11,15,9,13,10,11,15,10,13],"shift_direction":1,"question_num":21,"has_decoy":false},{"rt":1420.6000000014901,"stimulus":"[A] option 1, [L] option 2, [G] neither","key_press":76,"name":"choice","trial_type":"html-keyboard-response","trial_index":43,"time_elapsed":114049,"internal_node_id":"0.0-43.0","subject":"S1C1602","sona":"41433","block":5,"time":"2021-09-05T18:50:53.942Z","response":"2nd","certainty":"high","char":"L","transposition":-3,"order":["shifted","swapped"],"probe_pitches":[10,5,10,8,10,13,8,3,13,8,10,5,3,10,3,13],"shifted_pitches":[10,5,10,8,10,13,8,4,13,8,10,5,3,10,3,13],"swapped_pitches":[10,5,10,8,10,13,8,13,3,8,10,5,3,10,3,13],"shift_direction":1,"question_num":31,"has_decoy":false},{"rt":7476,"stimulus":"[A] option 1, [L] option 2, [G] neither","key_press":65,"name":"choice","trial_type":"html-keyboard-response","trial_index":54,"time_elapsed":143875,"internal_node_id":"0.0-54.0","subject":"S1C1602","sona":"41433","block":5,"time":"2021-09-05T18:50:53.942Z","response":"1st","certainty":"high","char":"A","transposition":-1,"order":["swapped","shifted"],"probe_pitches":[5,6,5,4,9,15,7,11,9,8,9,4,12,11,5,7],"shifted_pitches":[5,6,5,4,9,15,7,10,9,8,9,4,12,11,5,7],"swapped_pitches":[5,6,5,4,9,15,7,9,11,8,9,4,12,11,5,7],"shift_direction":-1,"question_num":41,"has_decoy":false},{"rt":3094.10000000149,"stimulus":"[A] option 1, [L] option 2, [G] neither","key_press":65,"name":"choice","trial_type":"html-keyboard-response","trial_index":65,"time_elapsed":169814,"internal_node_id":"0.0-65.0","subject":"S1C1602","sona":"41433","block":5,"time":"2021-09-05T18:50:53.942Z","response":"1st","certainty":"high","char":"A","transposition":-3,"order":["shifted","swapped"],"probe_pitches":[13,11,13,11,4,13,9,1,6,13,4,6,1,4,13,6],"shifted_pitches":[13,11,13,11,4,13,9,0,6,13,4,6,1,4,13,6],"swapped_pitches":[13,11,13,11,4,13,9,6,1,13,4,6,1,4,13,6],"shift_direction":-1,"question_num":51,"has_decoy":false},{"rt":1341.6000000014901,"stimulus":"[A] option 1, [L] option 2, [G] neither","key_press":76,"name":"choice","trial_type":"html-keyboard-response","trial_index":76,"time_elapsed":213096,"internal_node_id":"0.0-76.0","subject":"S1C1602","sona":"41433","block":5,"time":"2021-09-05T18:50:53.942Z","response":"2nd","certainty":"high","char":"L","transposition":-1,"order":["swapped","shifted"],"probe_pitches":[4,7,12,14,8,14,12,4,10,11,10,3,11,7,14,11],"shifted_pitches":[4,7,12,14,8,14,12,4,9,11,10,3,11,7,14,11],"swapped_pitches":[4,7,12,14,8,14,12,10,4,11,10,3,11,7,14,11],"shift_direction":-1,"question_num":61,"has_decoy":false},{"rt":1207.8999999985099,"stimulus":"[A] option 1, [L] option 2, [G] neither","key_press":65,"name":"choice","trial_type":"html-keyboard-response","trial_index":87,"time_elapsed":236670,"internal_node_id":"0.0-87.0","subject":"S1C1602","sona":"41433","block":5,"time":"2021-09-05T18:50:53.942Z","response":"1st","certainty":"high","char":"A","transposition":-3,"order":["shifted","swapped"],"probe_pitches":[9,5,6,5,13,7,15,7,4,9,4,14,3,12,10,5],"shifted_pitches":[9,5,6,5,13,7,15,8,4,9,4,14,3,12,10,5],"swapped_pitches":[9,5,6,5,13,7,15,4,7,9,4,14,3,12,10,5],"shift_direction":1,"question_num":71,"has_decoy":false},{"rt":584.5999999977648,"stimulus":"[A] option 1, [L] option 2, [G] neither","key_press":76,"name":"choice","trial_type":"html-keyboard-response","trial_index":98,"time_elapsed":259721,"internal_node_id":"0.0-98.0","subject":"S1C1602","sona":"41433","block":5,"time":"2021-09-05T18:50:53.942Z","response":"2nd","certainty":"high","char":"L","transposition":-2,"order":["swapped","shifted"],"probe_pitches":[4,8,4,8,11,13,11,13,8,4,8,6,11,4,8,1],"shifted_pitches":[4,8,4,8,11,13,11,13,9,4,8,6,11,4,8,1],"swapped_pitches":[4,8,4,8,11,13,11,8,13,4,8,6,11,4,8,1],"shift_direction":1,"question_num":81,"has_decoy":false},{"rt":2385.599999997765,"stimulus":"[A] option 1, [L] option 2, [G] neither","key_press":76,"name":"choice","trial_type":"html-keyboard-response","trial_index":109,"time_elapsed":284744,"internal_node_id":"0.0-109.0","subject":"S1C1602","sona":"41433","block":5,"time":"2021-09-05T18:50:53.942Z","response":"2nd","certainty":"high","char":"L","transposition":2,"order":["swapped","shifted"],"probe_pitches":[6,10,13,6,10,3,10,13,1,10,3,10,6,10,6,8],"shifted_pitches":[6,10,13,6,10,3,10,13,0,10,3,10,6,10,6,8],"swapped_pitches":[6,10,13,6,10,3,10,1,13,10,3,10,6,10,6,8],"shift_direction":-1,"question_num":91,"has_decoy":false},{"rt":2151.400000002235,"stimulus":"[A] option 1, [L] option 2, [G] neither","key_press":65,"name":"choice","trial_type":"html-keyboard-response","trial_index":120,"time_elapsed":318990,"internal_node_id":"0.0-120.0","subject":"S1C1602","sona":"41433","block":5,"time":"2021-09-05T18:50:53.942Z","response":"1st","certainty":"high","char":"A","transposition":-1,"order":["shifted","swapped"],"probe_pitches":[8,3,8,13,5,3,13,8,3,1,8,5,3,1,10,1],"shifted_pitches":[8,3,8,13,5,3,13,9,3,1,8,5,3,1,10,1],"swapped_pitches":[8,3,8,13,5,3,13,3,8,1,8,5,3,1,10,1],"shift_direction":1,"question_num":101,"has_decoy":false},{"rt":1019.3999999985099,"stimulus":"[A] option 1, [L] option 2, [G] neither","key_press":76,"name":"choice","trial_type":"html-keyboard-response","trial_index":131,"time_elapsed":342888,"internal_node_id":"0.0-131.0","subject":"S1C1602","sona":"41433","block":5,"time":"2021-09-05T18:50:53.942Z","response":"2nd","certainty":"high","char":"L","transposition":0,"order":["shifted","swapped"],"probe_pitches":[6,9,7,8,13,9,3,13,6,12,14,10,3,15,14,8],"shifted_pitches":[6,9,7,8,13,9,3,13,5,12,14,10,3,15,14,8],"swapped_pitches":[6,9,7,8,13,9,3,6,13,12,14,10,3,15,14,8],"shift_direction":-1,"question_num":111,"has_decoy":false},{"rt":2141.7999999970198,"stimulus":"[A] option 1, [L] option 2, [G] neither","key_press":76,"name":"choice","trial_type":"html-keyboard-response","trial_index":142,"time_elapsed":367909,"internal_node_id":"0.0-142.0","subject":"S1C1602","sona":"41433","block":5,"time":"2021-09-05T18:50:53.942Z","response":"2nd","certainty":"high","char":"L","transposition":-2,"order":["shifted","swapped"],"probe_pitches":[11,6,9,1,6,1,4,9,13,1,13,4,13,9,1,11],"shifted_pitches":[11,6,9,1,6,1,4,10,13,1,13,4,13,9,1,11],"swapped_pitches":[11,6,9,1,6,1,4,13,9,1,13,4,13,9,1,11],"shift_direction":1,"question_num":121,"has_decoy":false},{"rt":3632.60000000149,"stimulus":"[A] option 1, [L] option 2, [G] neither","key_press":65,"name":"choice","trial_type":"html-keyboard-response","trial_index":153,"time_elapsed":395598,"internal_node_id":"0.0-153.0","subject":"S1C1602","sona":"41433","block":5,"time":"2021-09-05T18:50:53.942Z","response":"1st","certainty":"high","char":"A","transposition":-2,"order":["swapped","shifted"],"probe_pitches":[9,4,5,8,12,4,11,6,14,4,14,9,14,11,9,14],"shifted_pitches":[9,4,5,8,12,4,11,7,14,4,14,9,14,11,9,14],"swapped_pitches":[9,4,5,8,12,4,11,14,6,4,14,9,14,11,9,14],"shift_direction":1,"question_num":131,"has_decoy":false},{"rt":1020.4000000022352,"stimulus":"[A] option 1, [L] option 2, [G] neither","key_press":76,"name":"choice","trial_type":"html-keyboard-response","trial_index":164,"time_elapsed":420095,"internal_node_id":"0.0-164.0","subject":"S1C1602","sona":"41433","block":5,"time":"2021-09-05T18:50:53.942Z","response":"2nd","certainty":"high","char":"L","transposition":2,"order":["shifted","swapped"],"probe_pitches":[10,13,7,12,8,11,8,6,13,15,3,4,5,8,11,8],"shifted_pitches":[10,13,7,12,8,11,8,6,14,15,3,4,5,8,11,8],"swapped_pitches":[10,13,7,12,8,11,8,13,6,15,3,4,5,8,11,8],"shift_direction":1,"question_num":141,"has_decoy":false},{"rt":2247.7000000029802,"stimulus":"[A] option 1, [L] option 2, [G] neither","key_press":76,"name":"choice","trial_type":"html-keyboard-response","trial_index":175,"time_elapsed":444987,"internal_node_id":"0.0-175.0","subject":"S1C1602","sona":"41433","block":5,"time":"2021-09-05T18:50:53.942Z","response":"2nd","certainty":"high","char":"L","transposition":3,"order":["swapped","shifted"],"probe_pitches":[13,8,6,3,8,3,10,1,13,3,13,1,6,8,3,8],"shifted_pitches":[13,8,6,3,8,3,10,1,12,3,13,1,6,8,3,8],"swapped_pitches":[13,8,6,3,8,3,10,13,1,3,13,1,6,8,3,8],"shift_direction":-1,"question_num":151,"has_decoy":false},{"rt":1193.1000000014901,"stimulus":"[A] option 1, [L] option 2, [G] neither","key_press":76,"name":"choice","trial_type":"html-keyboard-response","trial_index":186,"time_elapsed":468498,"internal_node_id":"0.0-186.0","subject":"S1C1602","sona":"41433","block":5,"time":"2021-09-05T18:50:53.942Z","response":"2nd","certainty":"high","char":"L","transposition":3,"order":["swapped","shifted"],"probe_pitches":[15,13,10,12,9,3,13,5,12,9,4,10,12,10,7,12],"shifted_pitches":[15,13,10,12,9,3,13,6,12,9,4,10,12,10,7,12],"swapped_pitches":[15,13,10,12,9,3,13,12,5,9,4,10,12,10,7,12],"shift_direction":1,"question_num":161,"has_decoy":false},{"rt":1881,"stimulus":"[A] option 1, [L] option 2, [G] neither","key_press":65,"name":"choice","trial_type":"html-keyboard-response","trial_index":197,"time_elapsed":492983,"internal_node_id":"0.0-197.0","subject":"S1C1602","sona":"41433","block":5,"time":"2021-09-05T18:50:53.942Z","response":"1st","certainty":"high","char":"A","transposition":1,"order":["swapped","shifted"],"probe_pitches":[1,3,1,8,3,6,13,11,8,3,1,11,13,11,13,6],"shifted_pitches":[1,3,1,8,3,6,13,11,9,3,1,11,13,11,13,6],"swapped_pitches":[1,3,1,8,3,6,13,8,11,3,1,11,13,11,13,6],"shift_direction":1,"question_num":171,"has_decoy":false},{"rt":446.5,"stimulus":"[A] option 1, [L] option 2, [G] neither","key_press":76,"name":"choice","trial_type":"html-keyboard-response","trial_index":208,"time_elapsed":515806,"internal_node_id":"0.0-208.0","subject":"S1C1602","sona":"41433","block":5,"time":"2021-09-05T18:50:53.942Z","response":"2nd","certainty":"high","char":"L","transposition":-3,"order":["swapped","shifted"],"probe_pitches":[5,3,8,6,8,5,6,8,12,9,8,9,12,10,5,8],"shifted_pitches":[5,3,8,6,8,5,6,8,11,9,8,9,12,10,5,8],"swapped_pitches":[5,3,8,6,8,5,6,12,8,9,8,9,12,10,5,8],"shift_direction":-1,"question_num":181,"has_decoy":false},{"rt":1221,"stimulus":"[A] option 1, [L] option 2, [G] neither","key_press":76,"name":"choice","trial_type":"html-keyboard-response","trial_index":219,"time_elapsed":544969,"internal_node_id":"0.0-219.0","subject":"S1C1602","sona":"41433","block":5,"time":"2021-09-05T18:50:53.942Z","response":"2nd","certainty":"high","char":"L","transposition":-1,"order":["shifted","swapped"],"probe_pitches":[11,13,8,1,6,11,13,8,1,6,13,8,11,3,11,1],"shifted_pitches":[11,13,8,1,6,11,13,8,0,6,13,8,11,3,11,1],"swapped_pitches":[11,13,8,1,6,11,13,1,8,6,13,8,11,3,11,1],"shift_direction":-1,"question_num":191,"has_decoy":false}]