[{"rt":1316.800000000745,"stimulus":"[A] option 1, [L] option 2, [G] neither","key_press":76,"name":"choice","trial_type":"html-keyboard-response","trial_index":10,"time_elapsed":25288,"internal_node_id":"0.0-10.0","subject":"S1C1602","sona":"41433","block":4,"time":"2021-09-05T18:38:44.087Z","response":"2nd","certainty":"high","char":"L","transposition":-2,"order":["swapped","shifted"],"probe_pitches":[5,10,3,2,0,8,2,10,3,4,8,1,4,11,4,0],"shifted_pitches":[5,10,3,2,0,8,2,9,3,4,8,1,4,11,4,0],"swapped_pitches":[5,10,3,2,0,8,2,3,10,4,8,1,4,11,4,0],"shift_direction":-1,"question_num":1,"has_decoy":false},{"rt":1790.199999999255,"stimulus":"[A] option 1, [L] option 2, [G] neither","key_press":65,"name":"choice","trial_type":"html-keyboard-response","trial_index":21,"time_elapsed":49618,"internal_node_id":"0.0-21.0","subject":"S1C1602","sona":"41433","block":4,"time":"2021-09-05T18:38:44.087Z","response":"1st","certainty":"high","char":"A","transposition":-2,"order":["shifted","swapped"],"probe_pitches":[3,5,8,3,8,3,1,3,10,1,10,1,5,8,3,10],"shifted_pitches":[3,5,8,3,8,3,1,4,10,1,10,1,5,8,3,10],"swapped_pitches":[3,5,8,3,8,3,1,10,3,1,10,1,5,8,3,10],"shift_direction":1,"question_num":11,"has_decoy":false},{"rt":1692.199999999255,"stimulus":"[A] option 1, [L] option 2, [G] neither","key_press":76,"name":"choice","trial_type":"html-keyboard-response","trial_index":32,"time_elapsed":73723,"internal_node_id":"0.0-32.0","subject":"S1C1602","sona":"41433","block":4,"time":"2021-09-05T18:38:44.087Z","response":"2nd","certainty":"high","char":"L","transposition":0,"order":["shifted","swapped"],"probe_pitches":[2,0,6,10,4,3,9,6,12,7,9,10,4,5,12,3],"shifted_pitches":[2,0,6,10,4,3,9,6,11,7,9,10,4,5,12,3],"swapped_pitches":[2,0,6,10,4,3,9,12,6,7,9,10,4,5,12,3],"shift_direction":-1,"question_num":21,"has_decoy":false},{"rt":7231,"stimulus":"[A] option 1, [L] option 2, [G] neither","key_press":65,"name":"choice","trial_type":"html-keyboard-response","trial_index":43,"time_elapsed":104253,"internal_node_id":"0.0-43.0","subject":"S1C1602","sona":"41433","block":4,"time":"2021-09-05T18:38:44.087Z","response":"1st","certainty":"high","char":"A","transposition":2,"order":["swapped","shifted"],"probe_pitches":[6,8,10,2,8,9,4,11,2,5,7,0,2,8,2,8],"shifted_pitches":[6,8,10,2,8,9,4,11,3,5,7,0,2,8,2,8],"swapped_pitches":[6,8,10,2,8,9,4,2,11,5,7,0,2,8,2,8],"shift_direction":1,"question_num":31,"has_decoy":false},{"rt":3333.39999999851,"stimulus":"[A] option 1, [L] option 2, [G] neither","key_press":76,"name":"choice","trial_type":"html-keyboard-response","trial_index":54,"time_elapsed":131583,"internal_node_id":"0.0-54.0","subject":"S1C1602","sona":"41433","block":4,"time":"2021-09-05T18:38:44.087Z","response":"2nd","certainty":"high","char":"L","transposition":-3,"order":["swapped","shifted"],"probe_pitches":[6,4,11,4,8,2,11,9,12,0,9,5,0,5,2,8],"shifted_pitches":[6,4,11,4,8,2,11,10,12,0,9,5,0,5,2,8],"swapped_pitches":[6,4,11,4,8,2,11,12,9,0,9,5,0,5,2,8],"shift_direction":1,"question_num":41,"has_decoy":false},{"rt":584,"stimulus":"[A] option 1, [L] option 2, [G] neither","key_press":76,"name":"choice","trial_type":"html-keyboard-response","trial_index":65,"time_elapsed":155175,"internal_node_id":"0.0-65.0","subject":"S1C1602","sona":"41433","block":4,"time":"2021-09-05T18:38:44.087Z","response":"2nd","certainty":"high","char":"L","transposition":-3,"order":["shifted","swapped"],"probe_pitches":[3,6,10,9,11,1,2,10,6,9,3,0,9,11,10,2],"shifted_pitches":[3,6,10,9,11,1,2,10,7,9,3,0,9,11,10,2],"swapped_pitches":[3,6,10,9,11,1,2,6,10,9,3,0,9,11,10,2],"shift_direction":1,"question_num":51,"has_decoy":false},{"rt":981.1000000014901,"stimulus":"[A] option 1, [L] option 2, [G] neither","key_press":65,"name":"choice","trial_type":"html-keyboard-response","trial_index":76,"time_elapsed":181284,"internal_node_id":"0.0-76.0","subject":"S1C1602","sona":"41433","block":4,"time":"2021-09-05T18:38:44.087Z","response":"1st","certainty":"high","char":"A","transposition":3,"order":["shifted","swapped"],"probe_pitches":[7,10,5,0,5,3,0,5,10,0,3,7,10,3,10,7],"shifted_pitches":[7,10,5,0,5,3,0,5,9,0,3,7,10,3,10,7],"swapped_pitches":[7,10,5,0,5,3,0,10,5,0,3,7,10,3,10,7],"shift_direction":-1,"question_num":61,"has_decoy":false},{"rt":1385.5999999977648,"stimulus":"[A] option 1, [L] option 2, [G] neither","key_press":76,"name":"choice","trial_type":"html-keyboard-response","trial_index":87,"time_elapsed":205396,"internal_node_id":"0.0-87.0","subject":"S1C1602","sona":"41433","block":4,"time":"2021-09-05T18:38:44.087Z","response":"2nd","certainty":"high","char":"L","transposition":-3,"order":["swapped","shifted"],"probe_pitches":[3,-2,5,3,10,1,8,5,-2,8,-2,3,-2,3,1,3],"shifted_pitches":[3,-2,5,3,10,1,8,5,-1,8,-2,3,-2,3,1,3],"swapped_pitches":[3,-2,5,3,10,1,8,-2,5,8,-2,3,-2,3,1,3],"shift_direction":1,"question_num":71,"has_decoy":false},{"rt":10840.29999999702,"stimulus":"[A] option 1, [L] option 2, [G] neither","key_press":76,"name":"choice","trial_type":"html-keyboard-response","trial_index":98,"time_elapsed":238637,"internal_node_id":"0.0-98.0","subject":"S1C1602","sona":"41433","block":4,"time":"2021-09-05T18:38:44.087Z","response":"2nd","certainty":"high","char":"L","transposition":0,"order":["swapped","shifted"],"probe_pitches":[10,5,10,5,0,10,5,10,7,5,2,0,10,2,0,5],"shifted_pitches":[10,5,10,5,0,10,5,9,7,5,2,0,10,2,0,5],"swapped_pitches":[10,5,10,5,0,10,5,7,10,5,2,0,10,2,0,5],"shift_direction":-1,"question_num":81,"has_decoy":false},{"rt":3717,"stimulus":"[A] option 1, [L] option 2, [G] neither","key_press":76,"name":"choice","trial_type":"html-keyboard-response","trial_index":109,"time_elapsed":265701,"internal_node_id":"0.0-109.0","subject":"S1C1602","sona":"41433","block":4,"time":"2021-09-05T18:38:44.087Z","response":"2nd","certainty":"high","char":"L","transposition":-1,"order":["swapped","shifted"],"probe_pitches":[0,-2,0,3,10,3,0,-2,8,0,8,3,5,3,8,0],"shifted_pitches":[0,-2,0,3,10,3,0,-1,8,0,8,3,5,3,8,0],"swapped_pitches":[0,-2,0,3,10,3,0,8,-2,0,8,3,5,3,8,0],"shift_direction":1,"question_num":91,"has_decoy":false},{"rt":1545.7999999970198,"stimulus":"[A] option 1, [L] option 2, [G] neither","key_press":65,"name":"choice","trial_type":"html-keyboard-response","trial_index":120,"time_elapsed":290213,"internal_node_id":"0.0-120.0","subject":"S1C1602","sona":"41433","block":4,"time":"2021-09-05T18:38:44.087Z","response":"1st","certainty":"high","char":"A","transposition":-2,"order":["shifted","swapped"],"probe_pitches":[7,11,6,3,1,4,12,1,8,0,4,11,7,1,5,3],"shifted_pitches":[7,11,6,3,1,4,12,2,8,0,4,11,7,1,5,3],"swapped_pitches":[7,11,6,3,1,4,12,8,1,0,4,11,7,1,5,3],"shift_direction":1,"question_num":101,"has_decoy":false},{"rt":1513.1000000014901,"stimulus":"[A] option 1, [L] option 2, [G] neither","key_press":76,"name":"choice","trial_type":"html-keyboard-response","trial_index":131,"time_elapsed":314138,"internal_node_id":"0.0-131.0","subject":"S1C1602","sona":"41433","block":4,"time":"2021-09-05T18:38:44.087Z","response":"2nd","certainty":"high","char":"L","transposition":-1,"order":["swapped","shifted"],"probe_pitches":[3,5,6,7,9,6,8,5,11,0,12,3,1,12,1,12],"shifted_pitches":[3,5,6,7,9,6,8,4,11,0,12,3,1,12,1,12],"swapped_pitches":[3,5,6,7,9,6,8,11,5,0,12,3,1,12,1,12],"shift_direction":-1,"question_num":111,"has_decoy":false},{"rt":2675.699999999255,"stimulus":"[A] option 1, [L] option 2, [G] neither","key_press":65,"name":"choice","trial_type":"html-keyboard-response","trial_index":142,"time_elapsed":339680,"internal_node_id":"0.0-142.0","subject":"S1C1602","sona":"41433","block":4,"time":"2021-09-05T18:38:44.087Z","response":"1st","certainty":"high","char":"A","transposition":1,"order":["shifted","swapped"],"probe_pitches":[5,3,-2,0,3,0,10,-2,5,8,3,0,5,3,-2,5],"shifted_pitches":[5,3,-2,0,3,0,10,-2,4,8,3,0,5,3,-2,5],"swapped_pitches":[5,3,-2,0,3,0,10,5,-2,8,3,0,5,3,-2,5],"shift_direction":-1,"question_num":121,"has_decoy":false},{"rt":1950.699999999255,"stimulus":"[A] option 1, [L] option 2, [G] neither","key_press":65,"name":"choice","trial_type":"html-keyboard-response","trial_index":153,"time_elapsed":365515,"internal_node_id":"0.0-153.0","subject":"S1C1602","sona":"41433","block":4,"time":"2021-09-05T18:38:44.087Z","response":"1st","certainty":"high","char":"A","transposition":-1,"order":["shifted","swapped"],"probe_pitches":[10,5,10,2,5,7,2,0,5,10,2,-2,2,7,-2,0],"shifted_pitches":[10,5,10,2,5,7,2,0,4,10,2,-2,2,7,-2,0],"swapped_pitches":[10,5,10,2,5,7,2,5,0,10,2,-2,2,7,-2,0],"shift_direction":-1,"question_num":131,"has_decoy":false},{"rt":3148,"stimulus":"[A] option 1, [L] option 2, [G] neither","key_press":76,"name":"choice","trial_type":"html-keyboard-response","trial_index":164,"time_elapsed":391112,"internal_node_id":"0.0-164.0","subject":"S1C1602","sona":"41433","block":4,"time":"2021-09-05T18:38:44.087Z","response":"2nd","certainty":"high","char":"L","transposition":3,"order":["swapped","shifted"],"probe_pitches":[10,4,0,1,2,12,1,4,6,10,12,6,2,10,11,7],"shifted_pitches":[10,4,0,1,2,12,1,4,5,10,12,6,2,10,11,7],"swapped_pitches":[10,4,0,1,2,12,1,6,4,10,12,6,2,10,11,7],"shift_direction":-1,"question_num":141,"has_decoy":false},{"rt":1469.800000000745,"stimulus":"[A] option 1, [L] option 2, [G] neither","key_press":76,"name":"choice","trial_type":"html-keyboard-response","trial_index":175,"time_elapsed":419072,"internal_node_id":"0.0-175.0","subject":"S1C1602","sona":"41433","block":4,"time":"2021-09-05T18:38:44.087Z","response":"2nd","certainty":"high","char":"L","transposition":1,"order":["shifted","swapped"],"probe_pitches":[1,2,3,11,2,9,11,7,12,0,9,7,2,10,6,4],"shifted_pitches":[1,2,3,11,2,9,11,8,12,0,9,7,2,10,6,4],"swapped_pitches":[1,2,3,11,2,9,11,12,7,0,9,7,2,10,6,4],"shift_direction":1,"question_num":151,"has_decoy":false},{"rt":2341,"stimulus":"[A] option 1, [L] option 2, [G] neither","key_press":65,"name":"choice","trial_type":"html-keyboard-response","trial_index":186,"time_elapsed":443805,"internal_node_id":"0.0-186.0","subject":"S1C1602","sona":"41433","block":4,"time":"2021-09-05T18:38:44.087Z","response":"1st","certainty":"high","char":"A","transposition":-3,"order":["shifted","swapped"],"probe_pitches":[1,6,10,6,8,3,10,6,8,1,8,6,10,6,-2,10],"shifted_pitches":[1,6,10,6,8,3,10,7,8,1,8,6,10,6,-2,10],"swapped_pitches":[1,6,10,6,8,3,10,8,6,1,8,6,10,6,-2,10],"shift_direction":1,"question_num":161,"has_decoy":false},{"rt":1878.199999999255,"stimulus":"[A] option 1, [L] option 2, [G] neither","key_press":76,"name":"choice","trial_type":"html-keyboard-response","trial_index":197,"time_elapsed":468196,"internal_node_id":"0.0-197.0","subject":"S1C1602","sona":"41433","block":4,"time":"2021-09-05T18:38:44.087Z","response":"2nd","certainty":"high","char":"L","transposition":2,"order":["swapped","shifted"],"probe_pitches":[10,8,6,3,8,1,10,1,6,-2,8,-2,10,1,10,-2],"shifted_pitches":[10,8,6,3,8,1,10,1,7,-2,8,-2,10,1,10,-2],"swapped_pitches":[10,8,6,3,8,1,10,6,1,-2,8,-2,10,1,10,-2],"shift_direction":1,"question_num":171,"has_decoy":false},{"rt":3257.5,"stimulus":"[A] option 1, [L] option 2, [G] neither","key_press":65,"name":"choice","trial_type":"html-keyboard-response","trial_index":208,"time_elapsed":493805,"internal_node_id":"0.0-208.0","subject":"S1C1602","sona":"41433","block":4,"time":"2021-09-05T18:38:44.087Z","response":"1st","certainty":"high","char":"A","transposition":-2,"order":["swapped","shifted"],"probe_pitches":[0,-2,5,3,-2,3,0,7,10,-2,3,-2,5,3,0,3],"shifted_pitches":[0,-2,5,3,-2,3,0,6,10,-2,3,-2,5,3,0,3],"swapped_pitches":[0,-2,5,3,-2,3,0,10,7,-2,3,-2,5,3,0,3],"shift_direction":-1,"question_num":181,"has_decoy":false},{"rt":3638.5,"stimulus":"[A] option 1, [L] option 2, [G] neither","key_press":71,"name":"choice","trial_type":"html-keyboard-response","trial_index":219,"time_elapsed":519898,"internal_node_id":"0.0-219.0","subject":"S1C1602","sona":"41433","block":4,"time":"2021-09-05T18:38:44.087Z","response":"neither","certainty":"high","char":"G","transposition":-1,"order":["shifted","swapped"],"probe_pitches":[10,11,9,11,7,10,4,11,7,3,4,8,7,3,7,4],"shifted_pitches":[10,11,9,11,7,10,4,11,6,3,4,8,7,3,7,4],"swapped_pitches":[10,11,9,11,7,10,4,7,11,3,4,8,7,3,7,4],"shift_direction":-1,"question_num":191,"has_decoy":false}]