[{"rt":8563.300000000745,"stimulus":"[A] option 1, [L] option 2, [G] neither","key_press":65,"name":"choice","trial_type":"html-keyboard-response","trial_index":15,"time_elapsed":102567,"internal_node_id":"0.0-15.0","response":"1st","certainty":"high","char":"A","transposition":-3,"order":["swapped","shifted"],"probe_pitches":[0,5,7,10,7,-2,0,10,5,-2,10,5,2,5,7,0],"shifted_pitches":[0,5,7,10,7,-2,0,10,4,-2,10,5,2,5,7,0],"swapped_pitches":[0,5,7,10,7,-2,0,5,10,-2,10,5,2,5,7,0],"shift_direction":-1,"question_num":1,"has_decoy":false,"subject":"S1C1602","sona":"41433","block":1,"time":"2021-09-05T17:59:51.785Z"},{"rt":5352.599999997765,"stimulus":"[A] option 1, [L] option 2, [G] neither","key_press":76,"name":"choice","trial_type":"html-keyboard-response","trial_index":26,"time_elapsed":132391,"internal_node_id":"0.0-26.0","response":"2nd","certainty":"high","char":"L","transposition":2,"order":["shifted","swapped"],"probe_pitches":[-2,0,7,10,5,3,5,0,3,10,0,3,7,-2,7,5],"shifted_pitches":[-2,0,7,10,5,3,5,0,4,10,0,3,7,-2,7,5],"swapped_pitches":[-2,0,7,10,5,3,5,3,0,10,0,3,7,-2,7,5],"shift_direction":1,"question_num":11,"has_decoy":false,"subject":"S1C1602","sona":"41433","block":1,"time":"2021-09-05T17:59:51.785Z"},{"rt":13010.39999999851,"stimulus":"[A] option 1, [L] option 2, [G] neither","key_press":65,"name":"choice","trial_type":"html-keyboard-response","trial_index":37,"time_elapsed":168615,"internal_node_id":"0.0-37.0","response":"1st","certainty":"high","char":"A","transposition":-2,"order":["swapped","shifted"],"probe_pitches":[2,-2,2,3,10,2,8,5,-2,1,8,3,-1,0,1,8],"shifted_pitches":[2,-2,2,3,10,2,8,6,-2,1,8,3,-1,0,1,8],"swapped_pitches":[2,-2,2,3,10,2,8,-2,5,1,8,3,-1,0,1,8],"shift_direction":1,"question_num":21,"has_decoy":false,"subject":"S1C1602","sona":"41433","block":1,"time":"2021-09-05T17:59:51.785Z"},{"rt":2598.39999999851,"stimulus":"[A] option 1, [L] option 2, [G] neither","key_press":76,"name":"choice","trial_type":"html-keyboard-response","trial_index":48,"time_elapsed":194582,"internal_node_id":"0.0-48.0","response":"2nd","certainty":"high","char":"L","transposition":-2,"order":["swapped","shifted"],"probe_pitches":[6,0,-1,1,4,9,2,10,4,7,9,10,0,7,-2,0],"shifted_pitches":[6,0,-1,1,4,9,2,10,3,7,9,10,0,7,-2,0],"swapped_pitches":[6,0,-1,1,4,9,2,4,10,7,9,10,0,7,-2,0],"shift_direction":-1,"question_num":31,"has_decoy":false,"subject":"S1C1602","sona":"41433","block":1,"time":"2021-09-05T17:59:51.785Z"},{"rt":4788.89999999851,"stimulus":"[A] option 1, [L] option 2, [G] neither","key_press":65,"name":"choice","trial_type":"html-keyboard-response","trial_index":59,"time_elapsed":223034,"internal_node_id":"0.0-59.0","response":"1st","certainty":"high","char":"A","transposition":-1,"order":["swapped","shifted"],"probe_pitches":[-2,3,10,3,1,-2,6,3,10,6,1,6,8,10,3,6],"shifted_pitches":[-2,3,10,3,1,-2,6,2,10,6,1,6,8,10,3,6],"swapped_pitches":[-2,3,10,3,1,-2,6,10,3,6,1,6,8,10,3,6],"shift_direction":-1,"question_num":41,"has_decoy":false,"subject":"S1C1602","sona":"41433","block":1,"time":"2021-09-05T17:59:51.785Z"},{"rt":2463.7000000029802,"stimulus":"[A] option 1, [L] option 2, [G] neither","key_press":76,"name":"choice","trial_type":"html-keyboard-response","trial_index":70,"time_elapsed":249165,"internal_node_id":"0.0-70.0","response":"2nd","certainty":"high","char":"L","transposition":1,"order":["shifted","swapped"],"probe_pitches":[6,10,3,-1,7,1,6,-1,8,1,8,5,3,1,4,9],"shifted_pitches":[6,10,3,-1,7,1,6,0,8,1,8,5,3,1,4,9],"swapped_pitches":[6,10,3,-1,7,1,6,8,-1,1,8,5,3,1,4,9],"shift_direction":1,"question_num":51,"has_decoy":false,"subject":"S1C1602","sona":"41433","block":1,"time":"2021-09-05T17:59:51.785Z"},{"rt":5905.89999999851,"stimulus":"[A] option 1, [L] option 2, [G] neither","key_press":76,"name":"choice","trial_type":"html-keyboard-response","trial_index":81,"time_elapsed":277555,"internal_node_id":"0.0-81.0","response":"2nd","certainty":"high","char":"L","transposition":-3,"order":["shifted","swapped"],"probe_pitches":[-2,-1,6,-2,2,3,-1,7,0,10,1,0,1,2,5,0],"shifted_pitches":[-2,-1,6,-2,2,3,-1,8,0,10,1,0,1,2,5,0],"swapped_pitches":[-2,-1,6,-2,2,3,-1,0,7,10,1,0,1,2,5,0],"shift_direction":1,"question_num":61,"has_decoy":false,"subject":"S1C1602","sona":"41433","block":1,"time":"2021-09-05T17:59:51.785Z"},{"rt":1371.8999999985099,"stimulus":"[A] option 1, [L] option 2, [G] neither","key_press":76,"name":"choice","trial_type":"html-keyboard-response","trial_index":92,"time_elapsed":301869,"internal_node_id":"0.0-92.0","response":"2nd","certainty":"high","char":"L","transposition":-2,"order":["shifted","swapped"],"probe_pitches":[10,8,10,3,5,8,-2,5,0,3,0,-2,3,0,-2,8],"shifted_pitches":[10,8,10,3,5,8,-2,6,0,3,0,-2,3,0,-2,8],"swapped_pitches":[10,8,10,3,5,8,-2,0,5,3,0,-2,3,0,-2,8],"shift_direction":1,"question_num":71,"has_decoy":false,"subject":"S1C1602","sona":"41433","block":1,"time":"2021-09-05T17:59:51.785Z"},{"rt":1369.9000000022352,"stimulus":"[A] option 1, [L] option 2, [G] neither","key_press":76,"name":"choice","trial_type":"html-keyboard-response","trial_index":103,"time_elapsed":327174,"internal_node_id":"0.0-103.0","response":"2nd","certainty":"high","char":"L","transposition":-1,"order":["swapped","shifted"],"probe_pitches":[6,10,3,8,10,5,3,2,10,-1,2,5,7,6,9,10],"shifted_pitches":[6,10,3,8,10,5,3,1,10,-1,2,5,7,6,9,10],"swapped_pitches":[6,10,3,8,10,5,3,10,2,-1,2,5,7,6,9,10],"shift_direction":-1,"question_num":81,"has_decoy":false,"subject":"S1C1602","sona":"41433","block":1,"time":"2021-09-05T17:59:51.785Z"},{"rt":16466.5,"stimulus":"[A] option 1, [L] option 2, [G] neither","key_press":65,"name":"choice","trial_type":"html-keyboard-response","trial_index":114,"time_elapsed":368090,"internal_node_id":"0.0-114.0","response":"1st","certainty":"high","char":"A","transposition":3,"order":["swapped","shifted"],"probe_pitches":[-2,1,-2,1,5,1,3,10,-2,8,3,-2,5,1,-2,3],"shifted_pitches":[-2,1,-2,1,5,1,3,10,-1,8,3,-2,5,1,-2,3],"swapped_pitches":[-2,1,-2,1,5,1,3,-2,10,8,3,-2,5,1,-2,3],"shift_direction":1,"question_num":91,"has_decoy":false,"subject":"S1C1602","sona":"41433","block":1,"time":"2021-09-05T17:59:51.785Z"},{"rt":5476.800000000745,"stimulus":"[A] option 1, [L] option 2, [G] neither","key_press":76,"name":"choice","trial_type":"html-keyboard-response","trial_index":125,"time_elapsed":395986,"internal_node_id":"0.0-125.0","response":"2nd","certainty":"high","char":"L","transposition":0,"order":["shifted","swapped"],"probe_pitches":[8,7,10,8,10,8,-1,7,3,2,6,8,2,1,-1,9],"shifted_pitches":[8,7,10,8,10,8,-1,7,4,2,6,8,2,1,-1,9],"swapped_pitches":[8,7,10,8,10,8,-1,3,7,2,6,8,2,1,-1,9],"shift_direction":1,"question_num":101,"has_decoy":false,"subject":"S1C1602","sona":"41433","block":1,"time":"2021-09-05T17:59:51.785Z"},{"rt":6220.800000000745,"stimulus":"[A] option 1, [L] option 2, [G] neither","key_press":65,"name":"choice","trial_type":"html-keyboard-response","trial_index":136,"time_elapsed":426235,"internal_node_id":"0.0-136.0","response":"1st","certainty":"high","char":"A","transposition":-1,"order":["swapped","shifted"],"probe_pitches":[3,8,10,5,-2,1,10,-2,8,3,-2,5,-2,1,8,5],"shifted_pitches":[3,8,10,5,-2,1,10,-2,9,3,-2,5,-2,1,8,5],"swapped_pitches":[3,8,10,5,-2,1,10,8,-2,3,-2,5,-2,1,8,5],"shift_direction":1,"question_num":111,"has_decoy":false,"subject":"S1C1602","sona":"41433","block":1,"time":"2021-09-05T17:59:51.785Z"},{"rt":38603.599999997765,"stimulus":"[A] option 1, [L] option 2, [G] neither","key_press":65,"name":"choice","trial_type":"html-keyboard-response","trial_index":147,"time_elapsed":526139,"internal_node_id":"0.0-147.0","response":"1st","certainty":"high","char":"A","transposition":-3,"order":["shifted","swapped"],"probe_pitches":[-2,0,-2,2,10,7,-2,2,5,7,2,10,0,2,0,7],"shifted_pitches":[-2,0,-2,2,10,7,-2,2,4,7,2,10,0,2,0,7],"swapped_pitches":[-2,0,-2,2,10,7,-2,5,2,7,2,10,0,2,0,7],"shift_direction":-1,"question_num":121,"has_decoy":false,"subject":"S1C1602","sona":"41433","block":1,"time":"2021-09-05T17:59:51.785Z"},{"rt":1351.699999999255,"stimulus":"[A] option 1, [L] option 2, [G] neither","key_press":65,"name":"choice","trial_type":"html-keyboard-response","trial_index":158,"time_elapsed":567551,"internal_node_id":"0.0-158.0","response":"1st","certainty":"high","char":"A","transposition":2,"order":["shifted","swapped"],"probe_pitches":[8,4,-2,1,2,-2,3,9,6,1,-1,1,9,2,-1,2],"shifted_pitches":[8,4,-2,1,2,-2,3,9,5,1,-1,1,9,2,-1,2],"swapped_pitches":[8,4,-2,1,2,-2,3,6,9,1,-1,1,9,2,-1,2],"shift_direction":-1,"question_num":131,"has_decoy":false,"subject":"S1C1602","sona":"41433","block":1,"time":"2021-09-05T17:59:51.785Z"},{"rt":1132.7999999970198,"stimulus":"[A] option 1, [L] option 2, [G] neither","key_press":76,"name":"choice","trial_type":"html-keyboard-response","trial_index":169,"time_elapsed":591876,"internal_node_id":"0.0-169.0","response":"2nd","certainty":"high","char":"L","transposition":-1,"order":["swapped","shifted"],"probe_pitches":[7,5,6,7,5,2,4,10,8,7,5,6,7,-2,3,10],"shifted_pitches":[7,5,6,7,5,2,4,9,8,7,5,6,7,-2,3,10],"swapped_pitches":[7,5,6,7,5,2,4,8,10,7,5,6,7,-2,3,10],"shift_direction":-1,"question_num":141,"has_decoy":false,"subject":"S1C1602","sona":"41433","block":1,"time":"2021-09-05T17:59:51.785Z"},{"rt":2292.800000000745,"stimulus":"[A] option 1, [L] option 2, [G] neither","key_press":65,"name":"choice","trial_type":"html-keyboard-response","trial_index":180,"time_elapsed":616924,"internal_node_id":"0.0-180.0","response":"1st","certainty":"high","char":"A","transposition":-2,"order":["shifted","swapped"],"probe_pitches":[8,3,6,1,6,8,6,8,3,6,10,1,8,1,6,3],"shifted_pitches":[8,3,6,1,6,8,6,7,3,6,10,1,8,1,6,3],"swapped_pitches":[8,3,6,1,6,8,6,3,8,6,10,1,8,1,6,3],"shift_direction":-1,"question_num":151,"has_decoy":false,"subject":"S1C1602","sona":"41433","block":1,"time":"2021-09-05T17:59:51.785Z"},{"rt":1448.2999999970198,"stimulus":"[A] option 1, [L] option 2, [G] neither","key_press":76,"name":"choice","trial_type":"html-keyboard-response","trial_index":191,"time_elapsed":641521,"internal_node_id":"0.0-191.0","response":"2nd","certainty":"high","char":"L","transposition":0,"order":["swapped","shifted"],"probe_pitches":[5,7,10,5,10,3,0,7,-2,5,7,-2,3,-2,10,5],"shifted_pitches":[5,7,10,5,10,3,0,6,-2,5,7,-2,3,-2,10,5],"swapped_pitches":[5,7,10,5,10,3,0,-2,7,5,7,-2,3,-2,10,5],"shift_direction":-1,"question_num":161,"has_decoy":false,"subject":"S1C1602","sona":"41433","block":1,"time":"2021-09-05T17:59:51.785Z"},{"rt":5556.099999997765,"stimulus":"[A] option 1, [L] option 2, [G] neither","key_press":76,"name":"choice","trial_type":"html-keyboard-response","trial_index":202,"time_elapsed":669821,"internal_node_id":"0.0-202.0","response":"2nd","certainty":"high","char":"L","transposition":1,"order":["shifted","swapped"],"probe_pitches":[5,10,3,0,8,3,-2,8,5,0,-2,3,8,5,8,10],"shifted_pitches":[5,10,3,0,8,3,-2,9,5,0,-2,3,8,5,8,10],"swapped_pitches":[5,10,3,0,8,3,-2,5,8,0,-2,3,8,5,8,10],"shift_direction":1,"question_num":171,"has_decoy":false,"subject":"S1C1602","sona":"41433","block":1,"time":"2021-09-05T17:59:51.785Z"},{"rt":1339.2999999970198,"stimulus":"[A] option 1, [L] option 2, [G] neither","key_press":76,"name":"choice","trial_type":"html-keyboard-response","trial_index":213,"time_elapsed":695331,"internal_node_id":"0.0-213.0","response":"2nd","certainty":"high","char":"L","transposition":3,"order":["shifted","swapped"],"probe_pitches":[-1,1,0,8,3,9,8,4,1,6,10,4,9,7,1,7],"shifted_pitches":[-1,1,0,8,3,9,8,4,2,6,10,4,9,7,1,7],"swapped_pitches":[-1,1,0,8,3,9,8,1,4,6,10,4,9,7,1,7],"shift_direction":1,"question_num":181,"has_decoy":false,"subject":"S1C1602","sona":"41433","block":1,"time":"2021-09-05T17:59:51.785Z"},{"rt":1421,"stimulus":"[A] option 1, [L] option 2, [G] neither","key_press":76,"name":"choice","trial_type":"html-keyboard-response","trial_index":224,"time_elapsed":719895,"internal_node_id":"0.0-224.0","response":"2nd","certainty":"high","char":"L","transposition":-3,"order":["swapped","shifted"],"probe_pitches":[8,5,0,2,6,0,-1,3,8,2,-2,10,3,-2,9,1],"shifted_pitches":[8,5,0,2,6,0,-1,3,7,2,-2,10,3,-2,9,1],"swapped_pitches":[8,5,0,2,6,0,-1,8,3,2,-2,10,3,-2,9,1],"shift_direction":-1,"question_num":191,"has_decoy":false,"subject":"S1C1602","sona":"41433","block":1,"time":"2021-09-05T17:59:51.785Z"}]