[{"rt":1333.300000011921,"stimulus":"[A] option 1, [L] option 2, [G] neither","key_press":76,"name":"choice","trial_type":"html-keyboard-response","trial_index":10,"time_elapsed":38318,"internal_node_id":"0.0-10.0","subject":"S1C0824","sona":"41654","block":6,"time":"2021-09-17T01:42:14.569Z","response":"2nd","certainty":"high","char":"L","transposition":3,"order":["shifted","swapped"],"probe_pitches":[2,-1,6,9,4,-3,2,6],"shifted_pitches":[2,-1,6,10,4,-3,2,6],"swapped_pitches":[2,-1,6,4,9,-3,2,6],"shift_direction":1,"question_num":1,"has_decoy":false},{"rt":416.19999998807907,"stimulus":"[A] option 1, [L] option 2, [G] neither","key_press":65,"name":"choice","trial_type":"html-keyboard-response","trial_index":21,"time_elapsed":54872,"internal_node_id":"0.0-21.0","subject":"S1C0824","sona":"41654","block":6,"time":"2021-09-17T01:42:14.569Z","response":"1st","certainty":"high","char":"A","transposition":-2,"order":["swapped","shifted"],"probe_pitches":[-2,3,6,0,8,-1,6,5],"shifted_pitches":[-2,3,6,0,7,-1,6,5],"swapped_pitches":[-2,3,6,8,0,-1,6,5],"shift_direction":-1,"question_num":11,"has_decoy":false},{"rt":498.60000002384186,"stimulus":"[A] option 1, [L] option 2, [G] neither","key_press":76,"name":"choice","trial_type":"html-keyboard-response","trial_index":32,"time_elapsed":71914,"internal_node_id":"0.0-32.0","subject":"S1C0824","sona":"41654","block":6,"time":"2021-09-17T01:42:14.569Z","response":"2nd","certainty":"high","char":"L","transposition":-2,"order":["shifted","swapped"],"probe_pitches":[-3,2,5,2,9,7,2,0],"shifted_pitches":[-3,2,5,1,9,7,2,0],"swapped_pitches":[-3,2,5,9,2,7,2,0],"shift_direction":-1,"question_num":21,"has_decoy":false},{"rt":3834.5,"stimulus":"[A] option 1, [L] option 2, [G] neither","key_press":76,"name":"choice","trial_type":"html-keyboard-response","trial_index":43,"time_elapsed":91794,"internal_node_id":"0.0-43.0","subject":"S1C0824","sona":"41654","block":6,"time":"2021-09-17T01:42:14.569Z","response":"2nd","certainty":"high","char":"L","transposition":1,"order":["shifted","swapped"],"probe_pitches":[10,8,5,7,1,4,1,9],"shifted_pitches":[10,8,5,7,0,4,1,9],"swapped_pitches":[10,8,5,1,7,4,1,9],"shift_direction":-1,"question_num":31,"has_decoy":false},{"rt":354.5999999642372,"stimulus":"[A] option 1, [L] option 2, [G] neither","key_press":76,"name":"choice","trial_type":"html-keyboard-response","trial_index":54,"time_elapsed":106666,"internal_node_id":"0.0-54.0","subject":"S1C0824","sona":"41654","block":6,"time":"2021-09-17T01:42:14.569Z","response":"2nd","certainty":"high","char":"L","transposition":1,"order":["shifted","swapped"],"probe_pitches":[-3,-1,4,9,2,7,-1,4],"shifted_pitches":[-3,-1,4,9,3,7,-1,4],"swapped_pitches":[-3,-1,4,2,9,7,-1,4],"shift_direction":1,"question_num":41,"has_decoy":false},{"rt":759.3999999761581,"stimulus":"[A] option 1, [L] option 2, [G] neither","key_press":76,"name":"choice","trial_type":"html-keyboard-response","trial_index":65,"time_elapsed":122078,"internal_node_id":"0.0-65.0","subject":"S1C0824","sona":"41654","block":6,"time":"2021-09-17T01:42:14.569Z","response":"2nd","certainty":"high","char":"L","transposition":-1,"order":["shifted","swapped"],"probe_pitches":[-2,4,6,0,1,7,5,4],"shifted_pitches":[-2,4,6,0,2,7,5,4],"swapped_pitches":[-2,4,6,1,0,7,5,4],"shift_direction":1,"question_num":51,"has_decoy":false},{"rt":2351.2999999523163,"stimulus":"[A] option 1, [L] option 2, [G] neither","key_press":71,"name":"choice","trial_type":"html-keyboard-response","trial_index":76,"time_elapsed":138742,"internal_node_id":"0.0-76.0","subject":"S1C0824","sona":"41654","block":6,"time":"2021-09-17T01:42:14.569Z","response":"neither","certainty":"high","char":"G","transposition":0,"order":["shifted","swapped"],"probe_pitches":[7,2,-1,4,7,-3,-1,9],"shifted_pitches":[7,2,-1,4,6,-3,-1,9],"swapped_pitches":[7,2,-1,7,4,-3,-1,9],"shift_direction":-1,"question_num":61,"has_decoy":false},{"rt":3671.5,"stimulus":"[A] option 1, [L] option 2, [G] neither","key_press":65,"name":"choice","trial_type":"html-keyboard-response","trial_index":87,"time_elapsed":157053,"internal_node_id":"0.0-87.0","subject":"S1C0824","sona":"41654","block":6,"time":"2021-09-17T01:42:14.569Z","response":"1st","certainty":"high","char":"A","transposition":-1,"order":["shifted","swapped"],"probe_pitches":[-3,-1,4,2,6,9,6,-1],"shifted_pitches":[-3,-1,4,2,7,9,6,-1],"swapped_pitches":[-3,-1,4,6,2,9,6,-1],"shift_direction":1,"question_num":71,"has_decoy":false},{"rt":473.69999998807907,"stimulus":"[A] option 1, [L] option 2, [G] neither","key_press":76,"name":"choice","trial_type":"html-keyboard-response","trial_index":98,"time_elapsed":171855,"internal_node_id":"0.0-98.0","subject":"S1C0824","sona":"41654","block":6,"time":"2021-09-17T01:42:14.569Z","response":"2nd","certainty":"high","char":"L","transposition":2,"order":["swapped","shifted"],"probe_pitches":[9,4,1,5,-1,7,3,-2],"shifted_pitches":[9,4,1,6,-1,7,3,-2],"swapped_pitches":[9,4,1,-1,5,7,3,-2],"shift_direction":1,"question_num":81,"has_decoy":false},{"rt":534.3000000119209,"stimulus":"[A] option 1, [L] option 2, [G] neither","key_press":76,"name":"choice","trial_type":"html-keyboard-response","trial_index":109,"time_elapsed":186619,"internal_node_id":"0.0-109.0","subject":"S1C0824","sona":"41654","block":6,"time":"2021-09-17T01:42:14.569Z","response":"2nd","certainty":"high","char":"L","transposition":-2,"order":["swapped","shifted"],"probe_pitches":[-3,1,6,4,-1,1,-3,4],"shifted_pitches":[-3,1,6,5,-1,1,-3,4],"swapped_pitches":[-3,1,6,-1,4,1,-3,4],"shift_direction":1,"question_num":91,"has_decoy":false},{"rt":360.10000002384186,"stimulus":"[A] option 1, [L] option 2, [G] neither","key_press":76,"name":"choice","trial_type":"html-keyboard-response","trial_index":120,"time_elapsed":201325,"internal_node_id":"0.0-120.0","subject":"S1C0824","sona":"41654","block":6,"time":"2021-09-17T01:42:14.569Z","response":"2nd","certainty":"high","char":"L","transposition":-1,"order":["swapped","shifted"],"probe_pitches":[9,7,0,-3,4,2,4,2],"shifted_pitches":[9,7,0,-4,4,2,4,2],"swapped_pitches":[9,7,0,4,-3,2,4,2],"shift_direction":-1,"question_num":101,"has_decoy":false},{"rt":1195.5,"stimulus":"[A] option 1, [L] option 2, [G] neither","key_press":65,"name":"choice","trial_type":"html-keyboard-response","trial_index":131,"time_elapsed":217200,"internal_node_id":"0.0-131.0","subject":"S1C0824","sona":"41654","block":6,"time":"2021-09-17T01:42:14.569Z","response":"1st","certainty":"high","char":"A","transposition":2,"order":["swapped","shifted"],"probe_pitches":[9,7,9,7,2,0,7,5],"shifted_pitches":[9,7,9,7,3,0,7,5],"swapped_pitches":[9,7,9,2,7,0,7,5],"shift_direction":1,"question_num":111,"has_decoy":false},{"rt":4198.600000023842,"stimulus":"[A] option 1, [L] option 2, [G] neither","key_press":71,"name":"choice","trial_type":"html-keyboard-response","trial_index":142,"time_elapsed":236283,"internal_node_id":"0.0-142.0","subject":"S1C0824","sona":"41654","block":6,"time":"2021-09-17T01:42:14.569Z","response":"neither","certainty":"high","char":"G","transposition":-1,"order":["shifted","swapped"],"probe_pitches":[-1,4,7,8,2,1,2,10],"shifted_pitches":[-1,4,7,8,3,1,2,10],"swapped_pitches":[-1,4,7,2,8,1,2,10],"shift_direction":1,"question_num":121,"has_decoy":false},{"rt":1933.300000011921,"stimulus":"[A] option 1, [L] option 2, [G] neither","key_press":65,"name":"choice","trial_type":"html-keyboard-response","trial_index":153,"time_elapsed":253280,"internal_node_id":"0.0-153.0","subject":"S1C0824","sona":"41654","block":6,"time":"2021-09-17T01:42:14.569Z","response":"1st","certainty":"high","char":"A","transposition":-2,"order":["swapped","shifted"],"probe_pitches":[7,6,10,5,2,9,2,6],"shifted_pitches":[7,6,10,4,2,9,2,6],"swapped_pitches":[7,6,10,2,5,9,2,6],"shift_direction":-1,"question_num":131,"has_decoy":false},{"rt":3260.699999988079,"stimulus":"[A] option 1, [L] option 2, [G] neither","key_press":76,"name":"choice","trial_type":"html-keyboard-response","trial_index":164,"time_elapsed":271296,"internal_node_id":"0.0-164.0","subject":"S1C0824","sona":"41654","block":6,"time":"2021-09-17T01:42:14.569Z","response":"2nd","certainty":"high","char":"L","transposition":-3,"order":["swapped","shifted"],"probe_pitches":[6,4,-3,1,-1,4,6,-3],"shifted_pitches":[6,4,-3,0,-1,4,6,-3],"swapped_pitches":[6,4,-3,-1,1,4,6,-3],"shift_direction":-1,"question_num":141,"has_decoy":false},{"rt":1284.800000011921,"stimulus":"[A] option 1, [L] option 2, [G] neither","key_press":76,"name":"choice","trial_type":"html-keyboard-response","trial_index":175,"time_elapsed":287511,"internal_node_id":"0.0-175.0","subject":"S1C0824","sona":"41654","block":6,"time":"2021-09-17T01:42:14.569Z","response":"2nd","certainty":"high","char":"L","transposition":0,"order":["shifted","swapped"],"probe_pitches":[7,1,0,1,7,9,6,0],"shifted_pitches":[7,1,0,1,8,9,6,0],"swapped_pitches":[7,1,0,7,1,9,6,0],"shift_direction":1,"question_num":151,"has_decoy":false},{"rt":1339.7000000476837,"stimulus":"[A] option 1, [L] option 2, [G] neither","key_press":65,"name":"choice","trial_type":"html-keyboard-response","trial_index":186,"time_elapsed":320909,"internal_node_id":"0.0-186.0","subject":"S1C0824","sona":"41654","block":6,"time":"2021-09-17T01:42:14.569Z","response":"1st","certainty":"high","char":"A","transposition":3,"order":["swapped","shifted"],"probe_pitches":[7,4,2,8,10,0,8,6],"shifted_pitches":[7,4,2,9,10,0,8,6],"swapped_pitches":[7,4,2,10,8,0,8,6],"shift_direction":1,"question_num":161,"has_decoy":false},{"rt":3845.2000000476837,"stimulus":"[A] option 1, [L] option 2, [G] neither","key_press":76,"name":"choice","trial_type":"html-keyboard-response","trial_index":197,"time_elapsed":412460,"internal_node_id":"0.0-197.0","subject":"S1C0824","sona":"41654","block":6,"time":"2021-09-17T01:42:14.569Z","response":"2nd","certainty":"high","char":"L","transposition":-3,"order":["swapped","shifted"],"probe_pitches":[4,9,4,2,-2,3,5,3],"shifted_pitches":[4,9,4,1,-2,3,5,3],"swapped_pitches":[4,9,4,-2,2,3,5,3],"shift_direction":-1,"question_num":171,"has_decoy":false},{"rt":1551.3999999761581,"stimulus":"[A] option 1, [L] option 2, [G] neither","key_press":76,"name":"choice","trial_type":"html-keyboard-response","trial_index":208,"time_elapsed":428310,"internal_node_id":"0.0-208.0","subject":"S1C0824","sona":"41654","block":6,"time":"2021-09-17T01:42:14.569Z","response":"2nd","certainty":"high","char":"L","transposition":-3,"order":["swapped","shifted"],"probe_pitches":[4,0,-3,0,2,-3,4,7],"shifted_pitches":[4,0,-3,0,1,-3,4,7],"swapped_pitches":[4,0,-3,2,0,-3,4,7],"shift_direction":-1,"question_num":181,"has_decoy":false},{"rt":1254.4000000357628,"stimulus":"[A] option 1, [L] option 2, [G] neither","key_press":71,"name":"choice","trial_type":"html-keyboard-response","trial_index":219,"time_elapsed":443996,"internal_node_id":"0.0-219.0","subject":"S1C0824","sona":"41654","block":6,"time":"2021-09-17T01:42:14.569Z","response":"neither","certainty":"high","char":"G","transposition":-3,"order":["shifted","swapped"],"probe_pitches":[9,4,0,6,1,0,9,1],"shifted_pitches":[9,4,0,5,1,0,9,1],"swapped_pitches":[9,4,0,1,6,0,9,1],"shift_direction":-1,"question_num":191,"has_decoy":false}]