[{"rt":4140,"stimulus":"[A] option 1, [L] option 2, [G] neither","key_press":76,"name":"choice","trial_type":"html-keyboard-response","trial_index":10,"time_elapsed":19633,"internal_node_id":"0.0-10.0","subject":"S1C0824","sona":"41654","block":4,"time":"2021-09-17T01:28:41.174Z","response":"2nd","certainty":"high","char":"L","transposition":2,"order":["swapped","shifted"],"probe_pitches":[-2,3,8,3,5,8,0,-2],"shifted_pitches":[-2,3,8,4,5,8,0,-2],"swapped_pitches":[-2,3,8,5,3,8,0,-2],"shift_direction":1,"question_num":1,"has_decoy":false},{"rt":1580.2000000476837,"stimulus":"[A] option 1, [L] option 2, [G] neither","key_press":65,"name":"choice","trial_type":"html-keyboard-response","trial_index":21,"time_elapsed":37313,"internal_node_id":"0.0-21.0","subject":"S1C0824","sona":"41654","block":4,"time":"2021-09-17T01:28:41.174Z","response":"1st","certainty":"high","char":"A","transposition":-3,"order":["shifted","swapped"],"probe_pitches":[9,10,9,8,5,11,9,10],"shifted_pitches":[9,10,9,8,6,11,9,10],"swapped_pitches":[9,10,9,5,8,11,9,10],"shift_direction":1,"question_num":11,"has_decoy":false},{"rt":1553.6000000238419,"stimulus":"[A] option 1, [L] option 2, [G] neither","key_press":76,"name":"choice","trial_type":"html-keyboard-response","trial_index":32,"time_elapsed":55126,"internal_node_id":"0.0-32.0","subject":"S1C0824","sona":"41654","block":4,"time":"2021-09-17T01:28:41.174Z","response":"2nd","certainty":"high","char":"L","transposition":-1,"order":["shifted","swapped"],"probe_pitches":[3,-2,1,8,3,6,1,10],"shifted_pitches":[3,-2,1,8,4,6,1,10],"swapped_pitches":[3,-2,1,3,8,6,1,10],"shift_direction":1,"question_num":21,"has_decoy":false},{"rt":1447,"stimulus":"[A] option 1, [L] option 2, [G] neither","key_press":76,"name":"choice","trial_type":"html-keyboard-response","trial_index":43,"time_elapsed":75371,"internal_node_id":"0.0-43.0","subject":"S1C0824","sona":"41654","block":4,"time":"2021-09-17T01:28:41.174Z","response":"2nd","certainty":"high","char":"L","transposition":-1,"order":["shifted","swapped"],"probe_pitches":[8,5,9,5,10,3,7,12],"shifted_pitches":[8,5,9,5,11,3,7,12],"swapped_pitches":[8,5,9,10,5,3,7,12],"shift_direction":1,"question_num":31,"has_decoy":false},{"rt":2155.800000011921,"stimulus":"[A] option 1, [L] option 2, [G] neither","key_press":76,"name":"choice","trial_type":"html-keyboard-response","trial_index":54,"time_elapsed":94623,"internal_node_id":"0.0-54.0","subject":"S1C0824","sona":"41654","block":4,"time":"2021-09-17T01:28:41.174Z","response":"2nd","certainty":"high","char":"L","transposition":-3,"order":["swapped","shifted"],"probe_pitches":[3,4,0,1,3,11,7,12],"shifted_pitches":[3,4,0,1,2,11,7,12],"swapped_pitches":[3,4,0,3,1,11,7,12],"shift_direction":-1,"question_num":41,"has_decoy":false},{"rt":2332.5,"stimulus":"[A] option 1, [L] option 2, [G] neither","key_press":76,"name":"choice","trial_type":"html-keyboard-response","trial_index":65,"time_elapsed":114895,"internal_node_id":"0.0-65.0","subject":"S1C0824","sona":"41654","block":4,"time":"2021-09-17T01:28:41.174Z","response":"2nd","certainty":"high","char":"L","transposition":-3,"order":["shifted","swapped"],"probe_pitches":[0,5,0,5,10,3,10,8],"shifted_pitches":[0,5,0,5,11,3,10,8],"swapped_pitches":[0,5,0,10,5,3,10,8],"shift_direction":1,"question_num":51,"has_decoy":false},{"rt":2737.5,"stimulus":"[A] option 1, [L] option 2, [G] neither","key_press":65,"name":"choice","trial_type":"html-keyboard-response","trial_index":76,"time_elapsed":133587,"internal_node_id":"0.0-76.0","subject":"S1C0824","sona":"41654","block":4,"time":"2021-09-17T01:28:41.174Z","response":"1st","certainty":"high","char":"A","transposition":3,"order":["shifted","swapped"],"probe_pitches":[8,10,5,3,-2,1,5,1],"shifted_pitches":[8,10,5,3,-3,1,5,1],"swapped_pitches":[8,10,5,-2,3,1,5,1],"shift_direction":-1,"question_num":61,"has_decoy":false},{"rt":1892.199999988079,"stimulus":"[A] option 1, [L] option 2, [G] neither","key_press":76,"name":"choice","trial_type":"html-keyboard-response","trial_index":87,"time_elapsed":152166,"internal_node_id":"0.0-87.0","subject":"S1C0824","sona":"41654","block":4,"time":"2021-09-17T01:28:41.174Z","response":"2nd","certainty":"high","char":"L","transposition":-2,"order":["swapped","shifted"],"probe_pitches":[-2,0,-2,5,0,7,5,2],"shifted_pitches":[-2,0,-2,4,0,7,5,2],"swapped_pitches":[-2,0,-2,0,5,7,5,2],"shift_direction":-1,"question_num":71,"has_decoy":false},{"rt":2725.899999976158,"stimulus":"[A] option 1, [L] option 2, [G] neither","key_press":71,"name":"choice","trial_type":"html-keyboard-response","trial_index":98,"time_elapsed":171159,"internal_node_id":"0.0-98.0","subject":"S1C0824","sona":"41654","block":4,"time":"2021-09-17T01:28:41.174Z","response":"neither","certainty":"high","char":"G","transposition":-3,"order":["swapped","shifted"],"probe_pitches":[3,5,10,5,7,0,5,10],"shifted_pitches":[3,5,10,4,7,0,5,10],"swapped_pitches":[3,5,10,7,5,0,5,10],"shift_direction":-1,"question_num":81,"has_decoy":false},{"rt":3941.099999964237,"stimulus":"[A] option 1, [L] option 2, [G] neither","key_press":76,"name":"choice","trial_type":"html-keyboard-response","trial_index":109,"time_elapsed":191862,"internal_node_id":"0.0-109.0","subject":"S1C0824","sona":"41654","block":4,"time":"2021-09-17T01:28:41.174Z","response":"2nd","certainty":"high","char":"L","transposition":-2,"order":["swapped","shifted"],"probe_pitches":[7,2,7,11,4,8,7,3],"shifted_pitches":[7,2,7,11,5,8,7,3],"swapped_pitches":[7,2,7,4,11,8,7,3],"shift_direction":1,"question_num":91,"has_decoy":false},{"rt":2112.199999988079,"stimulus":"[A] option 1, [L] option 2, [G] neither","key_press":65,"name":"choice","trial_type":"html-keyboard-response","trial_index":120,"time_elapsed":211856,"internal_node_id":"0.0-120.0","subject":"S1C0824","sona":"41654","block":4,"time":"2021-09-17T01:28:41.174Z","response":"1st","certainty":"high","char":"A","transposition":-1,"order":["shifted","swapped"],"probe_pitches":[1,4,2,1,4,2,9,0],"shifted_pitches":[1,4,2,1,3,2,9,0],"swapped_pitches":[1,4,2,4,1,2,9,0],"shift_direction":-1,"question_num":101,"has_decoy":false},{"rt":1317.300000011921,"stimulus":"[A] option 1, [L] option 2, [G] neither","key_press":65,"name":"choice","trial_type":"html-keyboard-response","trial_index":131,"time_elapsed":228597,"internal_node_id":"0.0-131.0","subject":"S1C0824","sona":"41654","block":4,"time":"2021-09-17T01:28:41.174Z","response":"1st","certainty":"high","char":"A","transposition":-2,"order":["swapped","shifted"],"probe_pitches":[10,5,10,7,5,3,7,0],"shifted_pitches":[10,5,10,8,5,3,7,0],"swapped_pitches":[10,5,10,5,7,3,7,0],"shift_direction":1,"question_num":111,"has_decoy":false},{"rt":5547,"stimulus":"[A] option 1, [L] option 2, [G] neither","key_press":76,"name":"choice","trial_type":"html-keyboard-response","trial_index":142,"time_elapsed":252330,"internal_node_id":"0.0-142.0","subject":"S1C0824","sona":"41654","block":4,"time":"2021-09-17T01:28:41.174Z","response":"2nd","certainty":"high","char":"L","transposition":-1,"order":["swapped","shifted"],"probe_pitches":[5,1,3,-2,5,10,8,1],"shifted_pitches":[5,1,3,-2,4,10,8,1],"swapped_pitches":[5,1,3,5,-2,10,8,1],"shift_direction":-1,"question_num":121,"has_decoy":false},{"rt":730.8000000119209,"stimulus":"[A] option 1, [L] option 2, [G] neither","key_press":76,"name":"choice","trial_type":"html-keyboard-response","trial_index":153,"time_elapsed":268201,"internal_node_id":"0.0-153.0","subject":"S1C0824","sona":"41654","block":4,"time":"2021-09-17T01:28:41.174Z","response":"2nd","certainty":"high","char":"L","transposition":-2,"order":["swapped","shifted"],"probe_pitches":[6,9,11,9,3,11,1,7],"shifted_pitches":[6,9,11,10,3,11,1,7],"swapped_pitches":[6,9,11,3,9,11,1,7],"shift_direction":1,"question_num":131,"has_decoy":false},{"rt":2146.199999988079,"stimulus":"[A] option 1, [L] option 2, [G] neither","key_press":65,"name":"choice","trial_type":"html-keyboard-response","trial_index":164,"time_elapsed":284640,"internal_node_id":"0.0-164.0","subject":"S1C0824","sona":"41654","block":4,"time":"2021-09-17T01:28:41.174Z","response":"1st","certainty":"high","char":"A","transposition":3,"order":["shifted","swapped"],"probe_pitches":[2,1,4,8,10,2,9,1],"shifted_pitches":[2,1,4,7,10,2,9,1],"swapped_pitches":[2,1,4,10,8,2,9,1],"shift_direction":-1,"question_num":141,"has_decoy":false},{"rt":970.3999999761581,"stimulus":"[A] option 1, [L] option 2, [G] neither","key_press":76,"name":"choice","trial_type":"html-keyboard-response","trial_index":175,"time_elapsed":301768,"internal_node_id":"0.0-175.0","subject":"S1C0824","sona":"41654","block":4,"time":"2021-09-17T01:28:41.174Z","response":"2nd","certainty":"high","char":"L","transposition":0,"order":["shifted","swapped"],"probe_pitches":[-2,0,7,2,10,5,7,10],"shifted_pitches":[-2,0,7,1,10,5,7,10],"swapped_pitches":[-2,0,7,10,2,5,7,10],"shift_direction":-1,"question_num":151,"has_decoy":false},{"rt":521.6000000238419,"stimulus":"[A] option 1, [L] option 2, [G] neither","key_press":76,"name":"choice","trial_type":"html-keyboard-response","trial_index":186,"time_elapsed":317463,"internal_node_id":"0.0-186.0","subject":"S1C0824","sona":"41654","block":4,"time":"2021-09-17T01:28:41.174Z","response":"2nd","certainty":"high","char":"L","transposition":2,"order":["swapped","shifted"],"probe_pitches":[5,4,2,7,3,2,10,3],"shifted_pitches":[5,4,2,8,3,2,10,3],"swapped_pitches":[5,4,2,3,7,2,10,3],"shift_direction":1,"question_num":161,"has_decoy":false},{"rt":15063.300000011921,"stimulus":"[A] option 1, [L] option 2, [G] neither","key_press":71,"name":"choice","trial_type":"html-keyboard-response","trial_index":197,"time_elapsed":347700,"internal_node_id":"0.0-197.0","subject":"S1C0824","sona":"41654","block":4,"time":"2021-09-17T01:28:41.174Z","response":"neither","certainty":"high","char":"G","transposition":0,"order":["swapped","shifted"],"probe_pitches":[12,7,12,10,4,0,10,5],"shifted_pitches":[12,7,12,9,4,0,10,5],"swapped_pitches":[12,7,12,4,10,0,10,5],"shift_direction":-1,"question_num":171,"has_decoy":false},{"rt":2239.699999988079,"stimulus":"[A] option 1, [L] option 2, [G] neither","key_press":71,"name":"choice","trial_type":"html-keyboard-response","trial_index":208,"time_elapsed":364140,"internal_node_id":"0.0-208.0","subject":"S1C0824","sona":"41654","block":4,"time":"2021-09-17T01:28:41.174Z","response":"neither","certainty":"high","char":"G","transposition":1,"order":["shifted","swapped"],"probe_pitches":[8,10,3,-2,1,3,8,6],"shifted_pitches":[8,10,3,-2,2,3,8,6],"swapped_pitches":[8,10,3,1,-2,3,8,6],"shift_direction":1,"question_num":181,"has_decoy":false},{"rt":2823.7999999523163,"stimulus":"[A] option 1, [L] option 2, [G] neither","key_press":71,"name":"choice","trial_type":"html-keyboard-response","trial_index":219,"time_elapsed":381924,"internal_node_id":"0.0-219.0","subject":"S1C0824","sona":"41654","block":4,"time":"2021-09-17T01:28:41.174Z","response":"neither","certainty":"high","char":"G","transposition":1,"order":["shifted","swapped"],"probe_pitches":[9,10,12,5,2,3,5,0],"shifted_pitches":[9,10,12,4,2,3,5,0],"swapped_pitches":[9,10,12,2,5,3,5,0],"shift_direction":-1,"question_num":191,"has_decoy":false}]