[{"rt":6987.900000035763,"stimulus":"[A] option 1, [L] option 2, [G] neither","key_press":76,"name":"choice","trial_type":"html-keyboard-response","trial_index":15,"time_elapsed":158310,"internal_node_id":"0.0-15.0","response":"2nd","certainty":"high","char":"L","transposition":2,"order":["shifted","swapped"],"probe_pitches":[14,9,2,4,7,9,11,2],"shifted_pitches":[14,9,2,5,7,9,11,2],"swapped_pitches":[14,9,2,7,4,9,11,2],"shift_direction":1,"question_num":1,"has_decoy":false,"subject":"S1C0824","sona":"41654","block":1,"time":"2021-09-17T00:53:37.654Z"},{"rt":10828.099999964237,"stimulus":"[A] option 1, [L] option 2, [G] neither","key_press":65,"name":"choice","trial_type":"html-keyboard-response","trial_index":26,"time_elapsed":202515,"internal_node_id":"0.0-26.0","response":"1st","certainty":"high","char":"A","transposition":-1,"order":["shifted","swapped"],"probe_pitches":[12,14,12,5,7,2,9,5],"shifted_pitches":[12,14,12,5,8,2,9,5],"swapped_pitches":[12,14,12,7,5,2,9,5],"shift_direction":1,"question_num":11,"has_decoy":false,"subject":"S1C0824","sona":"41654","block":1,"time":"2021-09-17T00:53:37.654Z"},{"rt":1599.300000011921,"stimulus":"[A] option 1, [L] option 2, [G] neither","key_press":76,"name":"choice","trial_type":"html-keyboard-response","trial_index":37,"time_elapsed":219621,"internal_node_id":"0.0-37.0","response":"2nd","certainty":"high","char":"L","transposition":-2,"order":["shifted","swapped"],"probe_pitches":[6,9,2,-3,-1,2,-3,4],"shifted_pitches":[6,9,2,-3,0,2,-3,4],"swapped_pitches":[6,9,2,-1,-3,2,-3,4],"shift_direction":1,"question_num":21,"has_decoy":false,"subject":"S1C0824","sona":"41654","block":1,"time":"2021-09-17T00:53:37.654Z"},{"rt":12504.800000011921,"stimulus":"[A] option 1, [L] option 2, [G] neither","key_press":71,"name":"choice","trial_type":"html-keyboard-response","trial_index":48,"time_elapsed":247288,"internal_node_id":"0.0-48.0","response":"neither","certainty":"high","char":"G","transposition":-3,"order":["swapped","shifted"],"probe_pitches":[7,6,4,0,1,9,3,9],"shifted_pitches":[7,6,4,-1,1,9,3,9],"swapped_pitches":[7,6,4,1,0,9,3,9],"shift_direction":-1,"question_num":31,"has_decoy":false,"subject":"S1C0824","sona":"41654","block":1,"time":"2021-09-17T00:53:37.654Z"},{"rt":1377.6000000238419,"stimulus":"[A] option 1, [L] option 2, [G] neither","key_press":76,"name":"choice","trial_type":"html-keyboard-response","trial_index":59,"time_elapsed":263831,"internal_node_id":"0.0-59.0","response":"2nd","certainty":"high","char":"L","transposition":-1,"order":["shifted","swapped"],"probe_pitches":[-3,0,-2,-1,6,1,4,7],"shifted_pitches":[-3,0,-2,-1,5,1,4,7],"swapped_pitches":[-3,0,-2,6,-1,1,4,7],"shift_direction":-1,"question_num":41,"has_decoy":false,"subject":"S1C0824","sona":"41654","block":1,"time":"2021-09-17T00:53:37.654Z"},{"rt":2201.199999988079,"stimulus":"[A] option 1, [L] option 2, [G] neither","key_press":65,"name":"choice","trial_type":"html-keyboard-response","trial_index":70,"time_elapsed":281610,"internal_node_id":"0.0-70.0","response":"1st","certainty":"high","char":"A","transposition":-1,"order":["swapped","shifted"],"probe_pitches":[14,12,7,4,12,9,2,12],"shifted_pitches":[14,12,7,5,12,9,2,12],"swapped_pitches":[14,12,7,12,4,9,2,12],"shift_direction":1,"question_num":51,"has_decoy":false,"subject":"S1C0824","sona":"41654","block":1,"time":"2021-09-17T00:53:37.654Z"},{"rt":2680.800000011921,"stimulus":"[A] option 1, [L] option 2, [G] neither","key_press":76,"name":"choice","trial_type":"html-keyboard-response","trial_index":81,"time_elapsed":299261,"internal_node_id":"0.0-81.0","response":"2nd","certainty":"high","char":"L","transposition":-2,"order":["swapped","shifted"],"probe_pitches":[9,6,9,5,3,-2,8,1],"shifted_pitches":[9,6,9,5,4,-2,8,1],"swapped_pitches":[9,6,9,3,5,-2,8,1],"shift_direction":1,"question_num":61,"has_decoy":false,"subject":"S1C0824","sona":"41654","block":1,"time":"2021-09-17T00:53:37.654Z"},{"rt":1655.0999999642372,"stimulus":"[A] option 1, [L] option 2, [G] neither","key_press":65,"name":"choice","trial_type":"html-keyboard-response","trial_index":92,"time_elapsed":316554,"internal_node_id":"0.0-92.0","response":"1st","certainty":"high","char":"A","transposition":-2,"order":["swapped","shifted"],"probe_pitches":[14,9,14,12,4,14,12,7],"shifted_pitches":[14,9,14,11,4,14,12,7],"swapped_pitches":[14,9,14,4,12,14,12,7],"shift_direction":-1,"question_num":71,"has_decoy":false,"subject":"S1C0824","sona":"41654","block":1,"time":"2021-09-17T00:53:37.654Z"},{"rt":2342.600000023842,"stimulus":"[A] option 1, [L] option 2, [G] neither","key_press":71,"name":"choice","trial_type":"html-keyboard-response","trial_index":103,"time_elapsed":334404,"internal_node_id":"0.0-103.0","response":"neither","certainty":"high","char":"G","transposition":2,"order":["shifted","swapped"],"probe_pitches":[3,-3,-2,1,9,5,7,-2],"shifted_pitches":[3,-3,-2,2,9,5,7,-2],"swapped_pitches":[3,-3,-2,9,1,5,7,-2],"shift_direction":1,"question_num":81,"has_decoy":false,"subject":"S1C0824","sona":"41654","block":1,"time":"2021-09-17T00:53:37.654Z"},{"rt":1201.5999999642372,"stimulus":"[A] option 1, [L] option 2, [G] neither","key_press":65,"name":"choice","trial_type":"html-keyboard-response","trial_index":114,"time_elapsed":350430,"internal_node_id":"0.0-114.0","response":"1st","certainty":"high","char":"A","transposition":3,"order":["shifted","swapped"],"probe_pitches":[6,4,11,4,2,9,6,11],"shifted_pitches":[6,4,11,3,2,9,6,11],"swapped_pitches":[6,4,11,2,4,9,6,11],"shift_direction":-1,"question_num":91,"has_decoy":false,"subject":"S1C0824","sona":"41654","block":1,"time":"2021-09-17T00:53:37.654Z"},{"rt":2790.699999988079,"stimulus":"[A] option 1, [L] option 2, [G] neither","key_press":76,"name":"choice","trial_type":"html-keyboard-response","trial_index":125,"time_elapsed":368451,"internal_node_id":"0.0-125.0","response":"2nd","certainty":"high","char":"L","transposition":-3,"order":["swapped","shifted"],"probe_pitches":[7,9,5,12,7,14,5,2],"shifted_pitches":[7,9,5,11,7,14,5,2],"swapped_pitches":[7,9,5,7,12,14,5,2],"shift_direction":-1,"question_num":101,"has_decoy":false,"subject":"S1C0824","sona":"41654","block":1,"time":"2021-09-17T00:53:37.654Z"},{"rt":1434.9000000357628,"stimulus":"[A] option 1, [L] option 2, [G] neither","key_press":76,"name":"choice","trial_type":"html-keyboard-response","trial_index":136,"time_elapsed":385126,"internal_node_id":"0.0-136.0","response":"2nd","certainty":"high","char":"L","transposition":3,"order":["swapped","shifted"],"probe_pitches":[-3,2,4,5,7,6,1,6],"shifted_pitches":[-3,2,4,5,8,6,1,6],"swapped_pitches":[-3,2,4,7,5,6,1,6],"shift_direction":1,"question_num":111,"has_decoy":false,"subject":"S1C0824","sona":"41654","block":1,"time":"2021-09-17T00:53:37.654Z"},{"rt":3099.5,"stimulus":"[A] option 1, [L] option 2, [G] neither","key_press":71,"name":"choice","trial_type":"html-keyboard-response","trial_index":147,"time_elapsed":403233,"internal_node_id":"0.0-147.0","response":"neither","certainty":"high","char":"G","transposition":-3,"order":["shifted","swapped"],"probe_pitches":[2,7,0,7,3,5,7,-2],"shifted_pitches":[2,7,0,6,3,5,7,-2],"swapped_pitches":[2,7,0,3,7,5,7,-2],"shift_direction":-1,"question_num":121,"has_decoy":false,"subject":"S1C0824","sona":"41654","block":1,"time":"2021-09-17T00:53:37.654Z"},{"rt":1743.4000000357628,"stimulus":"[A] option 1, [L] option 2, [G] neither","key_press":76,"name":"choice","trial_type":"html-keyboard-response","trial_index":158,"time_elapsed":421759,"internal_node_id":"0.0-158.0","response":"2nd","certainty":"high","char":"L","transposition":-2,"order":["shifted","swapped"],"probe_pitches":[4,9,11,4,6,14,9,14],"shifted_pitches":[4,9,11,4,7,14,9,14],"swapped_pitches":[4,9,11,6,4,14,9,14],"shift_direction":1,"question_num":131,"has_decoy":false,"subject":"S1C0824","sona":"41654","block":1,"time":"2021-09-17T00:53:37.654Z"},{"rt":8390.899999976158,"stimulus":"[A] option 1, [L] option 2, [G] neither","key_press":65,"name":"choice","trial_type":"html-keyboard-response","trial_index":169,"time_elapsed":445760,"internal_node_id":"0.0-169.0","response":"1st","certainty":"high","char":"A","transposition":0,"order":["swapped","shifted"],"probe_pitches":[2,7,2,4,11,9,14,7],"shifted_pitches":[2,7,2,4,12,9,14,7],"swapped_pitches":[2,7,2,11,4,9,14,7],"shift_direction":1,"question_num":141,"has_decoy":false,"subject":"S1C0824","sona":"41654","block":1,"time":"2021-09-17T00:53:37.654Z"},{"rt":1647.2000000476837,"stimulus":"[A] option 1, [L] option 2, [G] neither","key_press":76,"name":"choice","trial_type":"html-keyboard-response","trial_index":180,"time_elapsed":464227,"internal_node_id":"0.0-180.0","response":"2nd","certainty":"high","char":"L","transposition":-3,"order":["shifted","swapped"],"probe_pitches":[5,7,10,7,12,10,5,2],"shifted_pitches":[5,7,10,7,11,10,5,2],"swapped_pitches":[5,7,10,12,7,10,5,2],"shift_direction":-1,"question_num":151,"has_decoy":false,"subject":"S1C0824","sona":"41654","block":1,"time":"2021-09-17T00:53:37.654Z"},{"rt":1507.199999988079,"stimulus":"[A] option 1, [L] option 2, [G] neither","key_press":76,"name":"choice","trial_type":"html-keyboard-response","trial_index":191,"time_elapsed":482363,"internal_node_id":"0.0-191.0","response":"2nd","certainty":"high","char":"L","transposition":0,"order":["shifted","swapped"],"probe_pitches":[0,-2,1,-2,6,9,5,6],"shifted_pitches":[0,-2,1,-2,7,9,5,6],"swapped_pitches":[0,-2,1,6,-2,9,5,6],"shift_direction":1,"question_num":161,"has_decoy":false,"subject":"S1C0824","sona":"41654","block":1,"time":"2021-09-17T00:53:37.654Z"},{"rt":876.3000000119209,"stimulus":"[A] option 1, [L] option 2, [G] neither","key_press":65,"name":"choice","trial_type":"html-keyboard-response","trial_index":202,"time_elapsed":498804,"internal_node_id":"0.0-202.0","response":"1st","certainty":"high","char":"A","transposition":-1,"order":["swapped","shifted"],"probe_pitches":[4,5,9,4,8,9,5,1],"shifted_pitches":[4,5,9,3,8,9,5,1],"swapped_pitches":[4,5,9,8,4,9,5,1],"shift_direction":-1,"question_num":171,"has_decoy":false,"subject":"S1C0824","sona":"41654","block":1,"time":"2021-09-17T00:53:37.654Z"},{"rt":1199.6000000238419,"stimulus":"[A] option 1, [L] option 2, [G] neither","key_press":65,"name":"choice","trial_type":"html-keyboard-response","trial_index":213,"time_elapsed":517468,"internal_node_id":"0.0-213.0","response":"1st","certainty":"high","char":"A","transposition":1,"order":["swapped","shifted"],"probe_pitches":[10,12,7,5,10,14,10,7],"shifted_pitches":[10,12,7,5,9,14,10,7],"swapped_pitches":[10,12,7,10,5,14,10,7],"shift_direction":-1,"question_num":181,"has_decoy":false,"subject":"S1C0824","sona":"41654","block":1,"time":"2021-09-17T00:53:37.654Z"},{"rt":1610.800000011921,"stimulus":"[A] option 1, [L] option 2, [G] neither","key_press":76,"name":"choice","trial_type":"html-keyboard-response","trial_index":224,"time_elapsed":535916,"internal_node_id":"0.0-224.0","response":"2nd","certainty":"high","char":"L","transposition":1,"order":["swapped","shifted"],"probe_pitches":[2,-3,0,2,7,-1,6,5],"shifted_pitches":[2,-3,0,1,7,-1,6,5],"swapped_pitches":[2,-3,0,7,2,-1,6,5],"shift_direction":-1,"question_num":191,"has_decoy":false,"subject":"S1C0824","sona":"41654","block":1,"time":"2021-09-17T00:53:37.654Z"}]