[{"rt":3603.699999988079,"stimulus":"[A] option 1, [L] option 2, [G] neither","key_press":71,"name":"choice","trial_type":"html-keyboard-response","trial_index":10,"time_elapsed":23907,"internal_node_id":"0.0-10.0","subject":"S1C0824","sona":"41654","block":2,"time":"2021-09-17T01:15:08.550Z","response":"neither","certainty":"high","char":"G","transposition":-2,"order":["shifted","swapped"],"probe_pitches":[12,6,10,11,9,14,12,3],"shifted_pitches":[12,6,10,11,8,14,12,3],"swapped_pitches":[12,6,10,9,11,14,12,3],"shift_direction":-1,"question_num":1,"has_decoy":false},{"rt":2738.399999976158,"stimulus":"[A] option 1, [L] option 2, [G] neither","key_press":76,"name":"choice","trial_type":"html-keyboard-response","trial_index":21,"time_elapsed":45478,"internal_node_id":"0.0-21.0","subject":"S1C0824","sona":"41654","block":2,"time":"2021-09-17T01:15:08.550Z","response":"2nd","certainty":"high","char":"L","transposition":-2,"order":["swapped","shifted"],"probe_pitches":[-1,2,9,6,4,2,6,-1],"shifted_pitches":[-1,2,9,5,4,2,6,-1],"swapped_pitches":[-1,2,9,4,6,2,6,-1],"shift_direction":-1,"question_num":11,"has_decoy":false},{"rt":1698.3999999761581,"stimulus":"[A] option 1, [L] option 2, [G] neither","key_press":76,"name":"choice","trial_type":"html-keyboard-response","trial_index":32,"time_elapsed":62945,"internal_node_id":"0.0-32.0","subject":"S1C0824","sona":"41654","block":2,"time":"2021-09-17T01:15:08.550Z","response":"2nd","certainty":"high","char":"L","transposition":-3,"order":["shifted","swapped"],"probe_pitches":[15,11,4,3,6,14,8,12],"shifted_pitches":[15,11,4,3,7,14,8,12],"swapped_pitches":[15,11,4,6,3,14,8,12],"shift_direction":1,"question_num":21,"has_decoy":false},{"rt":1261.300000011921,"stimulus":"[A] option 1, [L] option 2, [G] neither","key_press":65,"name":"choice","trial_type":"html-keyboard-response","trial_index":43,"time_elapsed":85130,"internal_node_id":"0.0-43.0","subject":"S1C0824","sona":"41654","block":2,"time":"2021-09-17T01:15:08.550Z","response":"1st","certainty":"high","char":"A","transposition":-2,"order":["shifted","swapped"],"probe_pitches":[11,9,6,-1,1,4,11,4],"shifted_pitches":[11,9,6,-2,1,4,11,4],"swapped_pitches":[11,9,6,1,-1,4,11,4],"shift_direction":-1,"question_num":31,"has_decoy":false},{"rt":1930.0999999642372,"stimulus":"[A] option 1, [L] option 2, [G] neither","key_press":65,"name":"choice","trial_type":"html-keyboard-response","trial_index":54,"time_elapsed":103479,"internal_node_id":"0.0-54.0","subject":"S1C0824","sona":"41654","block":2,"time":"2021-09-17T01:15:08.550Z","response":"1st","certainty":"high","char":"A","transposition":-1,"order":["swapped","shifted"],"probe_pitches":[10,11,8,6,14,10,7,10],"shifted_pitches":[10,11,8,5,14,10,7,10],"swapped_pitches":[10,11,8,14,6,10,7,10],"shift_direction":-1,"question_num":41,"has_decoy":false},{"rt":1940,"stimulus":"[A] option 1, [L] option 2, [G] neither","key_press":76,"name":"choice","trial_type":"html-keyboard-response","trial_index":65,"time_elapsed":121462,"internal_node_id":"0.0-65.0","subject":"S1C0824","sona":"41654","block":2,"time":"2021-09-17T01:15:08.550Z","response":"2nd","certainty":"high","char":"L","transposition":0,"order":["swapped","shifted"],"probe_pitches":[13,10,8,12,13,3,14,15],"shifted_pitches":[13,10,8,11,13,3,14,15],"swapped_pitches":[13,10,8,13,12,3,14,15],"shift_direction":-1,"question_num":51,"has_decoy":false},{"rt":921221.8999999762,"stimulus":"[A] option 1, [L] option 2, [G] neither","key_press":71,"name":"choice","trial_type":"html-keyboard-response","trial_index":76,"time_elapsed":1060456,"internal_node_id":"0.0-76.0","subject":"S1C0824","sona":"41654","block":2,"time":"2021-09-17T01:15:08.550Z","response":"neither","certainty":"high","char":"G","transposition":2,"order":["swapped","shifted"],"probe_pitches":[9,6,8,11,14,6,3,9],"shifted_pitches":[9,6,8,12,14,6,3,9],"swapped_pitches":[9,6,8,14,11,6,3,9],"shift_direction":1,"question_num":61,"has_decoy":false},{"rt":1024.199999988079,"stimulus":"[A] option 1, [L] option 2, [G] neither","key_press":76,"name":"choice","trial_type":"html-keyboard-response","trial_index":87,"time_elapsed":1077120,"internal_node_id":"0.0-87.0","subject":"S1C0824","sona":"41654","block":2,"time":"2021-09-17T01:15:08.550Z","response":"2nd","certainty":"high","char":"L","transposition":3,"order":["swapped","shifted"],"probe_pitches":[11,9,2,7,4,-1,2,11],"shifted_pitches":[11,9,2,7,5,-1,2,11],"swapped_pitches":[11,9,2,4,7,-1,2,11],"shift_direction":1,"question_num":71,"has_decoy":false},{"rt":1485.5,"stimulus":"[A] option 1, [L] option 2, [G] neither","key_press":76,"name":"choice","trial_type":"html-keyboard-response","trial_index":98,"time_elapsed":1093757,"internal_node_id":"0.0-98.0","subject":"S1C0824","sona":"41654","block":2,"time":"2021-09-17T01:15:08.550Z","response":"2nd","certainty":"high","char":"L","transposition":-1,"order":["shifted","swapped"],"probe_pitches":[-1,1,4,11,8,-1,6,8],"shifted_pitches":[-1,1,4,11,7,-1,6,8],"swapped_pitches":[-1,1,4,8,11,-1,6,8],"shift_direction":-1,"question_num":81,"has_decoy":false},{"rt":382.7999999523163,"stimulus":"[A] option 1, [L] option 2, [G] neither","key_press":76,"name":"choice","trial_type":"html-keyboard-response","trial_index":109,"time_elapsed":1113613,"internal_node_id":"0.0-109.0","subject":"S1C0824","sona":"41654","block":2,"time":"2021-09-17T01:15:08.550Z","response":"2nd","certainty":"high","char":"L","transposition":0,"order":["shifted","swapped"],"probe_pitches":[3,8,6,11,3,6,3,1],"shifted_pitches":[3,8,6,11,4,6,3,1],"swapped_pitches":[3,8,6,3,11,6,3,1],"shift_direction":1,"question_num":91,"has_decoy":false},{"rt":1245.7999999523163,"stimulus":"[A] option 1, [L] option 2, [G] neither","key_press":65,"name":"choice","trial_type":"html-keyboard-response","trial_index":120,"time_elapsed":1132588,"internal_node_id":"0.0-120.0","subject":"S1C0824","sona":"41654","block":2,"time":"2021-09-17T01:15:08.550Z","response":"1st","certainty":"high","char":"A","transposition":-3,"order":["shifted","swapped"],"probe_pitches":[12,6,5,6,15,12,13,11],"shifted_pitches":[12,6,5,6,14,12,13,11],"swapped_pitches":[12,6,5,15,6,12,13,11],"shift_direction":-1,"question_num":101,"has_decoy":false},{"rt":1002.6999999880791,"stimulus":"[A] option 1, [L] option 2, [G] neither","key_press":76,"name":"choice","trial_type":"html-keyboard-response","trial_index":131,"time_elapsed":1148840,"internal_node_id":"0.0-131.0","subject":"S1C0824","sona":"41654","block":2,"time":"2021-09-17T01:15:08.550Z","response":"2nd","certainty":"high","char":"L","transposition":1,"order":["shifted","swapped"],"probe_pitches":[10,9,4,6,12,3,5,3],"shifted_pitches":[10,9,4,6,13,3,5,3],"swapped_pitches":[10,9,4,12,6,3,5,3],"shift_direction":1,"question_num":111,"has_decoy":false},{"rt":565.4000000357628,"stimulus":"[A] option 1, [L] option 2, [G] neither","key_press":76,"name":"choice","trial_type":"html-keyboard-response","trial_index":142,"time_elapsed":1165603,"internal_node_id":"0.0-142.0","subject":"S1C0824","sona":"41654","block":2,"time":"2021-09-17T01:15:08.550Z","response":"2nd","certainty":"high","char":"L","transposition":1,"order":["swapped","shifted"],"probe_pitches":[4,9,4,6,1,-1,9,-1],"shifted_pitches":[4,9,4,7,1,-1,9,-1],"swapped_pitches":[4,9,4,1,6,-1,9,-1],"shift_direction":1,"question_num":121,"has_decoy":false},{"rt":1200.5,"stimulus":"[A] option 1, [L] option 2, [G] neither","key_press":65,"name":"choice","trial_type":"html-keyboard-response","trial_index":153,"time_elapsed":1181997,"internal_node_id":"0.0-153.0","subject":"S1C0824","sona":"41654","block":2,"time":"2021-09-17T01:15:08.550Z","response":"1st","certainty":"high","char":"A","transposition":-3,"order":["shifted","swapped"],"probe_pitches":[1,6,-1,6,8,3,-1,6],"shifted_pitches":[1,6,-1,6,7,3,-1,6],"swapped_pitches":[1,6,-1,8,6,3,-1,6],"shift_direction":-1,"question_num":131,"has_decoy":false},{"rt":656.6999999880791,"stimulus":"[A] option 1, [L] option 2, [G] neither","key_press":76,"name":"choice","trial_type":"html-keyboard-response","trial_index":164,"time_elapsed":1197741,"internal_node_id":"0.0-164.0","subject":"S1C0824","sona":"41654","block":2,"time":"2021-09-17T01:15:08.550Z","response":"2nd","certainty":"high","char":"L","transposition":-1,"order":["swapped","shifted"],"probe_pitches":[1,6,4,6,-1,8,11,6],"shifted_pitches":[1,6,4,5,-1,8,11,6],"swapped_pitches":[1,6,4,-1,6,8,11,6],"shift_direction":-1,"question_num":141,"has_decoy":false},{"rt":1861.3999999761581,"stimulus":"[A] option 1, [L] option 2, [G] neither","key_press":71,"name":"choice","trial_type":"html-keyboard-response","trial_index":175,"time_elapsed":1216913,"internal_node_id":"0.0-175.0","subject":"S1C0824","sona":"41654","block":2,"time":"2021-09-17T01:15:08.550Z","response":"neither","certainty":"high","char":"G","transposition":3,"order":["swapped","shifted"],"probe_pitches":[15,14,9,5,4,3,8,9],"shifted_pitches":[15,14,9,6,4,3,8,9],"swapped_pitches":[15,14,9,4,5,3,8,9],"shift_direction":1,"question_num":151,"has_decoy":false},{"rt":975.2999999523163,"stimulus":"[A] option 1, [L] option 2, [G] neither","key_press":76,"name":"choice","trial_type":"html-keyboard-response","trial_index":186,"time_elapsed":1233195,"internal_node_id":"0.0-186.0","subject":"S1C0824","sona":"41654","block":2,"time":"2021-09-17T01:15:08.550Z","response":"2nd","certainty":"high","char":"L","transposition":-3,"order":["swapped","shifted"],"probe_pitches":[9,6,11,4,-1,2,11,2],"shifted_pitches":[9,6,11,4,0,2,11,2],"swapped_pitches":[9,6,11,-1,4,2,11,2],"shift_direction":1,"question_num":161,"has_decoy":false},{"rt":2544.800000011921,"stimulus":"[A] option 1, [L] option 2, [G] neither","key_press":65,"name":"choice","trial_type":"html-keyboard-response","trial_index":197,"time_elapsed":1251692,"internal_node_id":"0.0-197.0","subject":"S1C0824","sona":"41654","block":2,"time":"2021-09-17T01:15:08.550Z","response":"1st","certainty":"high","char":"A","transposition":-1,"order":["swapped","shifted"],"probe_pitches":[9,13,14,8,9,7,15,3],"shifted_pitches":[9,13,14,8,10,7,15,3],"swapped_pitches":[9,13,14,9,8,7,15,3],"shift_direction":1,"question_num":171,"has_decoy":false},{"rt":2946.699999988079,"stimulus":"[A] option 1, [L] option 2, [G] neither","key_press":76,"name":"choice","trial_type":"html-keyboard-response","trial_index":208,"time_elapsed":1269853,"internal_node_id":"0.0-208.0","subject":"S1C0824","sona":"41654","block":2,"time":"2021-09-17T01:15:08.550Z","response":"2nd","certainty":"high","char":"L","transposition":2,"order":["shifted","swapped"],"probe_pitches":[2,-1,4,11,2,4,9,7],"shifted_pitches":[2,-1,4,12,2,4,9,7],"swapped_pitches":[2,-1,4,2,11,4,9,7],"shift_direction":1,"question_num":181,"has_decoy":false},{"rt":1502.6000000238419,"stimulus":"[A] option 1, [L] option 2, [G] neither","key_press":76,"name":"choice","trial_type":"html-keyboard-response","trial_index":219,"time_elapsed":1286457,"internal_node_id":"0.0-219.0","subject":"S1C0824","sona":"41654","block":2,"time":"2021-09-17T01:15:08.550Z","response":"2nd","certainty":"high","char":"L","transposition":-2,"order":["shifted","swapped"],"probe_pitches":[3,5,8,10,3,5,7,10],"shifted_pitches":[3,5,8,9,3,5,7,10],"swapped_pitches":[3,5,8,3,10,5,7,10],"shift_direction":-1,"question_num":191,"has_decoy":false}]