[{"rt":3181.600000023842,"stimulus":"[A] option 1, [L] option 2, [G] neither","key_press":71,"name":"choice","trial_type":"html-keyboard-response","trial_index":10,"time_elapsed":26143,"internal_node_id":"0.0-10.0","subject":"S1C0824","sona":"41654","block":5,"time":"2021-09-17T01:34:46.546Z","response":"neither","certainty":"high","char":"G","transposition":-3,"order":["shifted","swapped"],"probe_pitches":[5,0,-2,5,2,-1,10,-1],"shifted_pitches":[5,0,-2,5,1,-1,10,-1],"swapped_pitches":[5,0,-2,2,5,-1,10,-1],"shift_direction":-1,"question_num":1,"has_decoy":false},{"rt":1103.800000011921,"stimulus":"[A] option 1, [L] option 2, [G] neither","key_press":76,"name":"choice","trial_type":"html-keyboard-response","trial_index":21,"time_elapsed":41713,"internal_node_id":"0.0-21.0","subject":"S1C0824","sona":"41654","block":5,"time":"2021-09-17T01:34:46.546Z","response":"2nd","certainty":"high","char":"L","transposition":1,"order":["swapped","shifted"],"probe_pitches":[14,10,7,5,10,2,12,2],"shifted_pitches":[14,10,7,4,10,2,12,2],"swapped_pitches":[14,10,7,10,5,2,12,2],"shift_direction":-1,"question_num":11,"has_decoy":false},{"rt":898.9000000357628,"stimulus":"[A] option 1, [L] option 2, [G] neither","key_press":76,"name":"choice","trial_type":"html-keyboard-response","trial_index":32,"time_elapsed":57924,"internal_node_id":"0.0-32.0","subject":"S1C0824","sona":"41654","block":5,"time":"2021-09-17T01:34:46.546Z","response":"2nd","certainty":"high","char":"L","transposition":-3,"order":["swapped","shifted"],"probe_pitches":[9,8,6,8,1,9,0,5],"shifted_pitches":[9,8,6,7,1,9,0,5],"swapped_pitches":[9,8,6,1,8,9,0,5],"shift_direction":-1,"question_num":21,"has_decoy":false},{"rt":1395.0999999642372,"stimulus":"[A] option 1, [L] option 2, [G] neither","key_press":76,"name":"choice","trial_type":"html-keyboard-response","trial_index":43,"time_elapsed":73908,"internal_node_id":"0.0-43.0","subject":"S1C0824","sona":"41654","block":5,"time":"2021-09-17T01:34:46.546Z","response":"2nd","certainty":"high","char":"L","transposition":3,"order":["shifted","swapped"],"probe_pitches":[9,8,2,-2,7,1,-2,8],"shifted_pitches":[9,8,2,-2,6,1,-2,8],"swapped_pitches":[9,8,2,7,-2,1,-2,8],"shift_direction":-1,"question_num":31,"has_decoy":false},{"rt":1679.300000011921,"stimulus":"[A] option 1, [L] option 2, [G] neither","key_press":76,"name":"choice","trial_type":"html-keyboard-response","trial_index":54,"time_elapsed":90127,"internal_node_id":"0.0-54.0","subject":"S1C0824","sona":"41654","block":5,"time":"2021-09-17T01:34:46.546Z","response":"2nd","certainty":"high","char":"L","transposition":-1,"order":["shifted","swapped"],"probe_pitches":[14,12,14,12,7,5,14,9],"shifted_pitches":[14,12,14,11,7,5,14,9],"swapped_pitches":[14,12,14,7,12,5,14,9],"shift_direction":-1,"question_num":41,"has_decoy":false},{"rt":1338.6000000238419,"stimulus":"[A] option 1, [L] option 2, [G] neither","key_press":76,"name":"choice","trial_type":"html-keyboard-response","trial_index":65,"time_elapsed":106378,"internal_node_id":"0.0-65.0","subject":"S1C0824","sona":"41654","block":5,"time":"2021-09-17T01:34:46.546Z","response":"2nd","certainty":"high","char":"L","transposition":1,"order":["shifted","swapped"],"probe_pitches":[0,5,6,0,1,-1,4,5],"shifted_pitches":[0,5,6,0,2,-1,4,5],"swapped_pitches":[0,5,6,1,0,-1,4,5],"shift_direction":1,"question_num":51,"has_decoy":false},{"rt":518.3999999761581,"stimulus":"[A] option 1, [L] option 2, [G] neither","key_press":76,"name":"choice","trial_type":"html-keyboard-response","trial_index":76,"time_elapsed":122342,"internal_node_id":"0.0-76.0","subject":"S1C0824","sona":"41654","block":5,"time":"2021-09-17T01:34:46.546Z","response":"2nd","certainty":"high","char":"L","transposition":3,"order":["shifted","swapped"],"probe_pitches":[7,5,2,10,12,14,5,12],"shifted_pitches":[7,5,2,9,12,14,5,12],"swapped_pitches":[7,5,2,12,10,14,5,12],"shift_direction":-1,"question_num":61,"has_decoy":false},{"rt":1394.8999999761581,"stimulus":"[A] option 1, [L] option 2, [G] neither","key_press":65,"name":"choice","trial_type":"html-keyboard-response","trial_index":87,"time_elapsed":138418,"internal_node_id":"0.0-87.0","subject":"S1C0824","sona":"41654","block":5,"time":"2021-09-17T01:34:46.546Z","response":"1st","certainty":"high","char":"A","transposition":0,"order":["swapped","shifted"],"probe_pitches":[11,7,9,4,2,11,2,11],"shifted_pitches":[11,7,9,4,3,11,2,11],"swapped_pitches":[11,7,9,2,4,11,2,11],"shift_direction":1,"question_num":71,"has_decoy":false},{"rt":745.5,"stimulus":"[A] option 1, [L] option 2, [G] neither","key_press":76,"name":"choice","trial_type":"html-keyboard-response","trial_index":98,"time_elapsed":154104,"internal_node_id":"0.0-98.0","subject":"S1C0824","sona":"41654","block":5,"time":"2021-09-17T01:34:46.546Z","response":"2nd","certainty":"high","char":"L","transposition":-2,"order":["shifted","swapped"],"probe_pitches":[2,4,7,14,9,4,12,9],"shifted_pitches":[2,4,7,14,8,4,12,9],"swapped_pitches":[2,4,7,9,14,4,12,9],"shift_direction":-1,"question_num":81,"has_decoy":false},{"rt":743.8000000119209,"stimulus":"[A] option 1, [L] option 2, [G] neither","key_press":76,"name":"choice","trial_type":"html-keyboard-response","trial_index":109,"time_elapsed":169638,"internal_node_id":"0.0-109.0","subject":"S1C0824","sona":"41654","block":5,"time":"2021-09-17T01:34:46.546Z","response":"2nd","certainty":"high","char":"L","transposition":-2,"order":["shifted","swapped"],"probe_pitches":[14,9,5,12,7,9,14,12],"shifted_pitches":[14,9,5,12,8,9,14,12],"swapped_pitches":[14,9,5,7,12,9,14,12],"shift_direction":1,"question_num":91,"has_decoy":false},{"rt":508.39999997615814,"stimulus":"[A] option 1, [L] option 2, [G] neither","key_press":65,"name":"choice","trial_type":"html-keyboard-response","trial_index":120,"time_elapsed":184490,"internal_node_id":"0.0-120.0","subject":"S1C0824","sona":"41654","block":5,"time":"2021-09-17T01:34:46.546Z","response":"1st","certainty":"high","char":"A","transposition":-2,"order":["shifted","swapped"],"probe_pitches":[8,9,6,8,4,9,-2,10],"shifted_pitches":[8,9,6,8,5,9,-2,10],"swapped_pitches":[8,9,6,4,8,9,-2,10],"shift_direction":1,"question_num":101,"has_decoy":false},{"rt":387.30000001192093,"stimulus":"[A] option 1, [L] option 2, [G] neither","key_press":65,"name":"choice","trial_type":"html-keyboard-response","trial_index":131,"time_elapsed":235632,"internal_node_id":"0.0-131.0","subject":"S1C0824","sona":"41654","block":5,"time":"2021-09-17T01:34:46.546Z","response":"1st","certainty":"high","char":"A","transposition":-2,"order":["swapped","shifted"],"probe_pitches":[7,1,7,3,9,0,8,10],"shifted_pitches":[7,1,7,4,9,0,8,10],"swapped_pitches":[7,1,7,9,3,0,8,10],"shift_direction":1,"question_num":111,"has_decoy":false},{"rt":921.5999999642372,"stimulus":"[A] option 1, [L] option 2, [G] neither","key_press":71,"name":"choice","trial_type":"html-keyboard-response","trial_index":142,"time_elapsed":250790,"internal_node_id":"0.0-142.0","subject":"S1C0824","sona":"41654","block":5,"time":"2021-09-17T01:34:46.546Z","response":"neither","certainty":"high","char":"G","transposition":2,"order":["shifted","swapped"],"probe_pitches":[4,-2,3,1,4,10,-1,4],"shifted_pitches":[4,-2,3,0,4,10,-1,4],"swapped_pitches":[4,-2,3,4,1,10,-1,4],"shift_direction":-1,"question_num":121,"has_decoy":false},{"rt":2232.399999976158,"stimulus":"[A] option 1, [L] option 2, [G] neither","key_press":65,"name":"choice","trial_type":"html-keyboard-response","trial_index":153,"time_elapsed":267365,"internal_node_id":"0.0-153.0","subject":"S1C0824","sona":"41654","block":5,"time":"2021-09-17T01:34:46.546Z","response":"1st","certainty":"high","char":"A","transposition":-1,"order":["shifted","swapped"],"probe_pitches":[4,7,14,12,7,14,9,2],"shifted_pitches":[4,7,14,12,6,14,9,2],"swapped_pitches":[4,7,14,7,12,14,9,2],"shift_direction":-1,"question_num":131,"has_decoy":false},{"rt":354.60000002384186,"stimulus":"[A] option 1, [L] option 2, [G] neither","key_press":65,"name":"choice","trial_type":"html-keyboard-response","trial_index":164,"time_elapsed":282078,"internal_node_id":"0.0-164.0","subject":"S1C0824","sona":"41654","block":5,"time":"2021-09-17T01:34:46.546Z","response":"1st","certainty":"high","char":"A","transposition":-1,"order":["swapped","shifted"],"probe_pitches":[9,8,4,2,8,5,2,4],"shifted_pitches":[9,8,4,3,8,5,2,4],"swapped_pitches":[9,8,4,8,2,5,2,4],"shift_direction":1,"question_num":141,"has_decoy":false},{"rt":877.1999999880791,"stimulus":"[A] option 1, [L] option 2, [G] neither","key_press":65,"name":"choice","trial_type":"html-keyboard-response","trial_index":175,"time_elapsed":297641,"internal_node_id":"0.0-175.0","subject":"S1C0824","sona":"41654","block":5,"time":"2021-09-17T01:34:46.546Z","response":"1st","certainty":"high","char":"A","transposition":2,"order":["swapped","shifted"],"probe_pitches":[4,9,2,6,14,11,4,14],"shifted_pitches":[4,9,2,7,14,11,4,14],"swapped_pitches":[4,9,2,14,6,11,4,14],"shift_direction":1,"question_num":151,"has_decoy":false},{"rt":724.1999999880791,"stimulus":"[A] option 1, [L] option 2, [G] neither","key_press":76,"name":"choice","trial_type":"html-keyboard-response","trial_index":186,"time_elapsed":313087,"internal_node_id":"0.0-186.0","subject":"S1C0824","sona":"41654","block":5,"time":"2021-09-17T01:34:46.546Z","response":"2nd","certainty":"high","char":"L","transposition":0,"order":["swapped","shifted"],"probe_pitches":[6,1,6,7,1,6,1,10],"shifted_pitches":[6,1,6,8,1,6,1,10],"swapped_pitches":[6,1,6,1,7,6,1,10],"shift_direction":1,"question_num":161,"has_decoy":false},{"rt":829.2999999523163,"stimulus":"[A] option 1, [L] option 2, [G] neither","key_press":76,"name":"choice","trial_type":"html-keyboard-response","trial_index":197,"time_elapsed":328088,"internal_node_id":"0.0-197.0","subject":"S1C0824","sona":"41654","block":5,"time":"2021-09-17T01:34:46.546Z","response":"2nd","certainty":"high","char":"L","transposition":-1,"order":["swapped","shifted"],"probe_pitches":[3,7,8,7,-2,-1,-2,8],"shifted_pitches":[3,7,8,7,-3,-1,-2,8],"swapped_pitches":[3,7,8,-2,7,-1,-2,8],"shift_direction":-1,"question_num":171,"has_decoy":false},{"rt":1094,"stimulus":"[A] option 1, [L] option 2, [G] neither","key_press":65,"name":"choice","trial_type":"html-keyboard-response","trial_index":208,"time_elapsed":344248,"internal_node_id":"0.0-208.0","subject":"S1C0824","sona":"41654","block":5,"time":"2021-09-17T01:34:46.546Z","response":"1st","certainty":"high","char":"A","transposition":-3,"order":["swapped","shifted"],"probe_pitches":[11,14,9,7,4,2,4,2],"shifted_pitches":[11,14,9,7,5,2,4,2],"swapped_pitches":[11,14,9,4,7,2,4,2],"shift_direction":1,"question_num":181,"has_decoy":false},{"rt":3719.599999964237,"stimulus":"[A] option 1, [L] option 2, [G] neither","key_press":71,"name":"choice","trial_type":"html-keyboard-response","trial_index":219,"time_elapsed":362745,"internal_node_id":"0.0-219.0","subject":"S1C0824","sona":"41654","block":5,"time":"2021-09-17T01:34:46.546Z","response":"neither","certainty":"high","char":"G","transposition":-3,"order":["swapped","shifted"],"probe_pitches":[14,9,4,2,6,11,14,6],"shifted_pitches":[14,9,4,3,6,11,14,6],"swapped_pitches":[14,9,4,6,2,11,14,6],"shift_direction":1,"question_num":191,"has_decoy":false}]