[{"rt":3219,"stimulus":"[A] option 1, [L] option 2, [G] neither","key_press":65,"name":"choice","trial_type":"html-keyboard-response","trial_index":10,"time_elapsed":52014,"internal_node_id":"0.0-10.0","subject":"S1C0824","sona":"41654","block":3,"time":"2021-09-17T01:22:15.551Z","response":"1st","certainty":"high","char":"A","transposition":2,"order":["shifted","swapped"],"probe_pitches":[10,5,8,10,12,3,0,5],"shifted_pitches":[10,5,8,10,13,3,0,5],"swapped_pitches":[10,5,8,12,10,3,0,5],"shift_direction":1,"question_num":1,"has_decoy":false},{"rt":1408.800000011921,"stimulus":"[A] option 1, [L] option 2, [G] neither","key_press":76,"name":"choice","trial_type":"html-keyboard-response","trial_index":21,"time_elapsed":68491,"internal_node_id":"0.0-21.0","subject":"S1C0824","sona":"41654","block":3,"time":"2021-09-17T01:22:15.551Z","response":"2nd","certainty":"high","char":"L","transposition":1,"order":["swapped","shifted"],"probe_pitches":[10,11,9,4,2,5,4,8],"shifted_pitches":[10,11,9,4,3,5,4,8],"swapped_pitches":[10,11,9,2,4,5,4,8],"shift_direction":1,"question_num":11,"has_decoy":false},{"rt":1575.300000011921,"stimulus":"[A] option 1, [L] option 2, [G] neither","key_press":65,"name":"choice","trial_type":"html-keyboard-response","trial_index":32,"time_elapsed":86306,"internal_node_id":"0.0-32.0","subject":"S1C0824","sona":"41654","block":3,"time":"2021-09-17T01:22:15.551Z","response":"1st","certainty":"high","char":"A","transposition":-1,"order":["swapped","shifted"],"probe_pitches":[7,9,5,9,1,6,7,3],"shifted_pitches":[7,9,5,10,1,6,7,3],"swapped_pitches":[7,9,5,1,9,6,7,3],"shift_direction":1,"question_num":21,"has_decoy":false},{"rt":1144.800000011921,"stimulus":"[A] option 1, [L] option 2, [G] neither","key_press":65,"name":"choice","trial_type":"html-keyboard-response","trial_index":43,"time_elapsed":103123,"internal_node_id":"0.0-43.0","subject":"S1C0824","sona":"41654","block":3,"time":"2021-09-17T01:22:15.551Z","response":"1st","certainty":"high","char":"A","transposition":-2,"order":["swapped","shifted"],"probe_pitches":[12,9,5,7,2,5,7,0],"shifted_pitches":[12,9,5,8,2,5,7,0],"swapped_pitches":[12,9,5,2,7,5,7,0],"shift_direction":1,"question_num":31,"has_decoy":false},{"rt":1203.6000000238419,"stimulus":"[A] option 1, [L] option 2, [G] neither","key_press":76,"name":"choice","trial_type":"html-keyboard-response","trial_index":54,"time_elapsed":119293,"internal_node_id":"0.0-54.0","subject":"S1C0824","sona":"41654","block":3,"time":"2021-09-17T01:22:15.551Z","response":"2nd","certainty":"high","char":"L","transposition":1,"order":["swapped","shifted"],"probe_pitches":[2,7,5,2,0,7,10,7],"shifted_pitches":[2,7,5,1,0,7,10,7],"swapped_pitches":[2,7,5,0,2,7,10,7],"shift_direction":-1,"question_num":41,"has_decoy":false},{"rt":6429.400000035763,"stimulus":"[A] option 1, [L] option 2, [G] neither","key_press":76,"name":"choice","trial_type":"html-keyboard-response","trial_index":65,"time_elapsed":141286,"internal_node_id":"0.0-65.0","subject":"S1C0824","sona":"41654","block":3,"time":"2021-09-17T01:22:15.551Z","response":"2nd","certainty":"high","char":"L","transposition":-3,"order":["swapped","shifted"],"probe_pitches":[2,5,7,9,0,7,2,7],"shifted_pitches":[2,5,7,8,0,7,2,7],"swapped_pitches":[2,5,7,0,9,7,2,7],"shift_direction":-1,"question_num":51,"has_decoy":false},{"rt":1086.699999988079,"stimulus":"[A] option 1, [L] option 2, [G] neither","key_press":76,"name":"choice","trial_type":"html-keyboard-response","trial_index":76,"time_elapsed":158215,"internal_node_id":"0.0-76.0","subject":"S1C0824","sona":"41654","block":3,"time":"2021-09-17T01:22:15.551Z","response":"2nd","certainty":"high","char":"L","transposition":-2,"order":["swapped","shifted"],"probe_pitches":[0,2,7,0,2,5,10,2],"shifted_pitches":[0,2,7,0,1,5,10,2],"swapped_pitches":[0,2,7,2,0,5,10,2],"shift_direction":-1,"question_num":61,"has_decoy":false},{"rt":5018.100000023842,"stimulus":"[A] option 1, [L] option 2, [G] neither","key_press":71,"name":"choice","trial_type":"html-keyboard-response","trial_index":87,"time_elapsed":179314,"internal_node_id":"0.0-87.0","subject":"S1C0824","sona":"41654","block":3,"time":"2021-09-17T01:22:15.551Z","response":"neither","certainty":"high","char":"G","transposition":-1,"order":["shifted","swapped"],"probe_pitches":[3,5,12,10,8,5,8,0],"shifted_pitches":[3,5,12,10,7,5,8,0],"swapped_pitches":[3,5,12,8,10,5,8,0],"shift_direction":-1,"question_num":71,"has_decoy":false},{"rt":1962.5,"stimulus":"[A] option 1, [L] option 2, [G] neither","key_press":76,"name":"choice","trial_type":"html-keyboard-response","trial_index":98,"time_elapsed":195970,"internal_node_id":"0.0-98.0","subject":"S1C0824","sona":"41654","block":3,"time":"2021-09-17T01:22:15.551Z","response":"2nd","certainty":"high","char":"L","transposition":-2,"order":["shifted","swapped"],"probe_pitches":[6,10,7,8,11,1,5,8],"shifted_pitches":[6,10,7,9,11,1,5,8],"swapped_pitches":[6,10,7,11,8,1,5,8],"shift_direction":1,"question_num":81,"has_decoy":false},{"rt":1504.5,"stimulus":"[A] option 1, [L] option 2, [G] neither","key_press":65,"name":"choice","trial_type":"html-keyboard-response","trial_index":109,"time_elapsed":212407,"internal_node_id":"0.0-109.0","subject":"S1C0824","sona":"41654","block":3,"time":"2021-09-17T01:22:15.551Z","response":"1st","certainty":"high","char":"A","transposition":-3,"order":["swapped","shifted"],"probe_pitches":[9,3,7,11,4,3,0,11],"shifted_pitches":[9,3,7,11,5,3,0,11],"swapped_pitches":[9,3,7,4,11,3,0,11],"shift_direction":1,"question_num":91,"has_decoy":false},{"rt":5351.900000035763,"stimulus":"[A] option 1, [L] option 2, [G] neither","key_press":65,"name":"choice","trial_type":"html-keyboard-response","trial_index":120,"time_elapsed":232991,"internal_node_id":"0.0-120.0","subject":"S1C0824","sona":"41654","block":3,"time":"2021-09-17T01:22:15.551Z","response":"1st","certainty":"high","char":"A","transposition":-1,"order":["shifted","swapped"],"probe_pitches":[4,9,7,2,4,9,0,9],"shifted_pitches":[4,9,7,2,5,9,0,9],"swapped_pitches":[4,9,7,4,2,9,0,9],"shift_direction":1,"question_num":101,"has_decoy":false},{"rt":2350.5,"stimulus":"[A] option 1, [L] option 2, [G] neither","key_press":71,"name":"choice","trial_type":"html-keyboard-response","trial_index":131,"time_elapsed":252996,"internal_node_id":"0.0-131.0","subject":"S1C0824","sona":"41654","block":3,"time":"2021-09-17T01:22:15.551Z","response":"neither","certainty":"high","char":"G","transposition":-3,"order":["shifted","swapped"],"probe_pitches":[9,4,9,2,0,9,2,7],"shifted_pitches":[9,4,9,3,0,9,2,7],"swapped_pitches":[9,4,9,0,2,9,2,7],"shift_direction":1,"question_num":111,"has_decoy":false},{"rt":1865.699999988079,"stimulus":"[A] option 1, [L] option 2, [G] neither","key_press":76,"name":"choice","trial_type":"html-keyboard-response","trial_index":142,"time_elapsed":270015,"internal_node_id":"0.0-142.0","subject":"S1C0824","sona":"41654","block":3,"time":"2021-09-17T01:22:15.551Z","response":"2nd","certainty":"high","char":"L","transposition":0,"order":["shifted","swapped"],"probe_pitches":[9,3,8,11,5,0,5,-1],"shifted_pitches":[9,3,8,11,4,0,5,-1],"swapped_pitches":[9,3,8,5,11,0,5,-1],"shift_direction":-1,"question_num":121,"has_decoy":false},{"rt":662.3999999761581,"stimulus":"[A] option 1, [L] option 2, [G] neither","key_press":76,"name":"choice","trial_type":"html-keyboard-response","trial_index":153,"time_elapsed":286716,"internal_node_id":"0.0-153.0","subject":"S1C0824","sona":"41654","block":3,"time":"2021-09-17T01:22:15.551Z","response":"2nd","certainty":"high","char":"L","transposition":-1,"order":["shifted","swapped"],"probe_pitches":[3,0,3,-1,2,6,4,9],"shifted_pitches":[3,0,3,-1,1,6,4,9],"swapped_pitches":[3,0,3,2,-1,6,4,9],"shift_direction":-1,"question_num":131,"has_decoy":false},{"rt":4011.100000023842,"stimulus":"[A] option 1, [L] option 2, [G] neither","key_press":65,"name":"choice","trial_type":"html-keyboard-response","trial_index":164,"time_elapsed":308240,"internal_node_id":"0.0-164.0","subject":"S1C0824","sona":"41654","block":3,"time":"2021-09-17T01:22:15.551Z","response":"1st","certainty":"high","char":"A","transposition":2,"order":["swapped","shifted"],"probe_pitches":[6,4,1,3,8,6,-1,9],"shifted_pitches":[6,4,1,2,8,6,-1,9],"swapped_pitches":[6,4,1,8,3,6,-1,9],"shift_direction":-1,"question_num":141,"has_decoy":false},{"rt":22079.5,"stimulus":"[A] option 1, [L] option 2, [G] neither","key_press":71,"name":"choice","trial_type":"html-keyboard-response","trial_index":175,"time_elapsed":346371,"internal_node_id":"0.0-175.0","subject":"S1C0824","sona":"41654","block":3,"time":"2021-09-17T01:22:15.551Z","response":"neither","certainty":"high","char":"G","transposition":3,"order":["swapped","shifted"],"probe_pitches":[5,0,7,10,3,7,5,12],"shifted_pitches":[5,0,7,11,3,7,5,12],"swapped_pitches":[5,0,7,3,10,7,5,12],"shift_direction":1,"question_num":151,"has_decoy":false},{"rt":3919.099999964237,"stimulus":"[A] option 1, [L] option 2, [G] neither","key_press":65,"name":"choice","trial_type":"html-keyboard-response","trial_index":186,"time_elapsed":365586,"internal_node_id":"0.0-186.0","subject":"S1C0824","sona":"41654","block":3,"time":"2021-09-17T01:22:15.551Z","response":"1st","certainty":"high","char":"A","transposition":-2,"order":["shifted","swapped"],"probe_pitches":[8,3,6,8,-1,4,8,9],"shifted_pitches":[8,3,6,7,-1,4,8,9],"swapped_pitches":[8,3,6,-1,8,4,8,9],"shift_direction":-1,"question_num":161,"has_decoy":false},{"rt":3008.800000011921,"stimulus":"[A] option 1, [L] option 2, [G] neither","key_press":71,"name":"choice","trial_type":"html-keyboard-response","trial_index":197,"time_elapsed":384003,"internal_node_id":"0.0-197.0","subject":"S1C0824","sona":"41654","block":3,"time":"2021-09-17T01:22:15.551Z","response":"neither","certainty":"high","char":"G","transposition":3,"order":["swapped","shifted"],"probe_pitches":[0,1,5,11,7,0,1,7],"shifted_pitches":[0,1,5,11,6,0,1,7],"swapped_pitches":[0,1,5,7,11,0,1,7],"shift_direction":-1,"question_num":171,"has_decoy":false},{"rt":541.9000000357628,"stimulus":"[A] option 1, [L] option 2, [G] neither","key_press":76,"name":"choice","trial_type":"html-keyboard-response","trial_index":208,"time_elapsed":401746,"internal_node_id":"0.0-208.0","subject":"S1C0824","sona":"41654","block":3,"time":"2021-09-17T01:22:15.551Z","response":"2nd","certainty":"high","char":"L","transposition":-3,"order":["shifted","swapped"],"probe_pitches":[7,6,1,7,11,10,5,2],"shifted_pitches":[7,6,1,8,11,10,5,2],"swapped_pitches":[7,6,1,11,7,10,5,2],"shift_direction":1,"question_num":181,"has_decoy":false},{"rt":2376.099999964237,"stimulus":"[A] option 1, [L] option 2, [G] neither","key_press":76,"name":"choice","trial_type":"html-keyboard-response","trial_index":219,"time_elapsed":421530,"internal_node_id":"0.0-219.0","subject":"S1C0824","sona":"41654","block":3,"time":"2021-09-17T01:22:15.551Z","response":"2nd","certainty":"high","char":"L","transposition":0,"order":["shifted","swapped"],"probe_pitches":[0,5,0,3,10,7,10,5],"shifted_pitches":[0,5,0,3,9,7,10,5],"swapped_pitches":[0,5,0,10,3,7,10,5],"shift_direction":-1,"question_num":191,"has_decoy":false}]