[{"rt":2225.39999999851,"stimulus":"[A] option 1, [L] option 2, [G] neither","key_press":76,"name":"choice","trial_type":"html-keyboard-response","trial_index":15,"time_elapsed":34075,"internal_node_id":"0.0-15.0","response":"2nd","certainty":"high","char":"L","transposition":-2,"order":["shifted","swapped"],"probe_pitches":[0,3,2,0,7,11,0,8,9,11,5,0],"shifted_pitches":[0,3,2,0,7,11,1,8,9,11,5,0],"swapped_pitches":[0,3,2,0,7,0,11,8,9,11,5,0],"shift_direction":1,"question_num":1,"has_decoy":false,"subject":"S1C1230","sona":"41683","block":1,"time":"2021-09-17T23:05:08.826Z"},{"rt":2097.89999999851,"stimulus":"[A] option 1, [L] option 2, [G] neither","key_press":65,"name":"choice","trial_type":"html-keyboard-response","trial_index":26,"time_elapsed":55100,"internal_node_id":"0.0-26.0","response":"1st","certainty":"high","char":"A","transposition":-1,"order":["swapped","shifted"],"probe_pitches":[6,10,11,7,0,2,9,6,-1,11,9,0],"shifted_pitches":[6,10,11,7,0,3,9,6,-1,11,9,0],"swapped_pitches":[6,10,11,7,0,9,2,6,-1,11,9,0],"shift_direction":1,"question_num":11,"has_decoy":false,"subject":"S1C1230","sona":"41683","block":1,"time":"2021-09-17T23:05:08.826Z"},{"rt":1565.1999999955297,"stimulus":"[A] option 1, [L] option 2, [G] neither","key_press":65,"name":"choice","trial_type":"html-keyboard-response","trial_index":37,"time_elapsed":75826,"internal_node_id":"0.0-37.0","response":"1st","certainty":"high","char":"A","transposition":-1,"order":["shifted","swapped"],"probe_pitches":[0,5,1,5,8,5,1,-1,8,10,1,3],"shifted_pitches":[0,5,1,5,8,4,1,-1,8,10,1,3],"swapped_pitches":[0,5,1,5,8,1,5,-1,8,10,1,3],"shift_direction":-1,"question_num":21,"has_decoy":false,"subject":"S1C1230","sona":"41683","block":1,"time":"2021-09-17T23:05:08.826Z"},{"rt":2477.7000000029802,"stimulus":"[A] option 1, [L] option 2, [G] neither","key_press":76,"name":"choice","trial_type":"html-keyboard-response","trial_index":48,"time_elapsed":96882,"internal_node_id":"0.0-48.0","response":"2nd","certainty":"high","char":"L","transposition":-3,"order":["swapped","shifted"],"probe_pitches":[2,5,0,2,5,10,2,0,10,7,-2,0],"shifted_pitches":[2,5,0,2,5,9,2,0,10,7,-2,0],"swapped_pitches":[2,5,0,2,5,2,10,0,10,7,-2,0],"shift_direction":-1,"question_num":31,"has_decoy":false,"subject":"S1C1230","sona":"41683","block":1,"time":"2021-09-17T23:05:08.826Z"},{"rt":1381.3999999985099,"stimulus":"[A] option 1, [L] option 2, [G] neither","key_press":76,"name":"choice","trial_type":"html-keyboard-response","trial_index":59,"time_elapsed":118591,"internal_node_id":"0.0-59.0","response":"2nd","certainty":"high","char":"L","transposition":-1,"order":["shifted","swapped"],"probe_pitches":[3,8,1,6,8,1,10,8,1,10,-2,3],"shifted_pitches":[3,8,1,6,8,1,9,8,1,10,-2,3],"swapped_pitches":[3,8,1,6,8,10,1,8,1,10,-2,3],"shift_direction":-1,"question_num":41,"has_decoy":false,"subject":"S1C1230","sona":"41683","block":1,"time":"2021-09-17T23:05:08.826Z"},{"rt":1149.5,"stimulus":"[A] option 1, [L] option 2, [G] neither","key_press":71,"name":"choice","trial_type":"html-keyboard-response","trial_index":70,"time_elapsed":138932,"internal_node_id":"0.0-70.0","response":"neither","certainty":"high","char":"G","transposition":-3,"order":["shifted","swapped"],"probe_pitches":[-1,0,1,-1,4,3,10,2,11,6,4,8],"shifted_pitches":[-1,0,1,-1,4,3,9,2,11,6,4,8],"swapped_pitches":[-1,0,1,-1,4,10,3,2,11,6,4,8],"shift_direction":-1,"question_num":51,"has_decoy":false,"subject":"S1C1230","sona":"41683","block":1,"time":"2021-09-17T23:05:08.826Z"},{"rt":2094,"stimulus":"[A] option 1, [L] option 2, [G] neither","key_press":76,"name":"choice","trial_type":"html-keyboard-response","trial_index":81,"time_elapsed":159192,"internal_node_id":"0.0-81.0","response":"2nd","certainty":"high","char":"L","transposition":1,"order":["swapped","shifted"],"probe_pitches":[3,9,7,11,9,2,5,0,8,0,10,9],"shifted_pitches":[3,9,7,11,9,2,6,0,8,0,10,9],"swapped_pitches":[3,9,7,11,9,5,2,0,8,0,10,9],"shift_direction":1,"question_num":61,"has_decoy":false,"subject":"S1C1230","sona":"41683","block":1,"time":"2021-09-17T23:05:08.826Z"},{"rt":1775.1000000014901,"stimulus":"[A] option 1, [L] option 2, [G] neither","key_press":76,"name":"choice","trial_type":"html-keyboard-response","trial_index":92,"time_elapsed":181609,"internal_node_id":"0.0-92.0","response":"2nd","certainty":"high","char":"L","transposition":2,"order":["shifted","swapped"],"probe_pitches":[5,0,-2,5,10,0,5,3,-2,5,8,3],"shifted_pitches":[5,0,-2,5,10,-1,5,3,-2,5,8,3],"swapped_pitches":[5,0,-2,5,10,5,0,3,-2,5,8,3],"shift_direction":-1,"question_num":71,"has_decoy":false,"subject":"S1C1230","sona":"41683","block":1,"time":"2021-09-17T23:05:08.826Z"},{"rt":1433.2999999970198,"stimulus":"[A] option 1, [L] option 2, [G] neither","key_press":76,"name":"choice","trial_type":"html-keyboard-response","trial_index":103,"time_elapsed":201757,"internal_node_id":"0.0-103.0","response":"2nd","certainty":"high","char":"L","transposition":0,"order":["swapped","shifted"],"probe_pitches":[10,8,10,8,10,8,3,1,-2,8,5,-2],"shifted_pitches":[10,8,10,8,10,8,4,1,-2,8,5,-2],"swapped_pitches":[10,8,10,8,10,3,8,1,-2,8,5,-2],"shift_direction":1,"question_num":81,"has_decoy":false,"subject":"S1C1230","sona":"41683","block":1,"time":"2021-09-17T23:05:08.826Z"},{"rt":1493.1999999955297,"stimulus":"[A] option 1, [L] option 2, [G] neither","key_press":65,"name":"choice","trial_type":"html-keyboard-response","trial_index":114,"time_elapsed":222186,"internal_node_id":"0.0-114.0","response":"1st","certainty":"high","char":"A","transposition":3,"order":["swapped","shifted"],"probe_pitches":[3,4,5,9,0,1,11,3,-1,6,1,5],"shifted_pitches":[3,4,5,9,0,1,10,3,-1,6,1,5],"swapped_pitches":[3,4,5,9,0,11,1,3,-1,6,1,5],"shift_direction":-1,"question_num":91,"has_decoy":false,"subject":"S1C1230","sona":"41683","block":1,"time":"2021-09-17T23:05:08.826Z"},{"rt":1451.0999999940395,"stimulus":"[A] option 1, [L] option 2, [G] neither","key_press":76,"name":"choice","trial_type":"html-keyboard-response","trial_index":125,"time_elapsed":246620,"internal_node_id":"0.0-125.0","response":"2nd","certainty":"high","char":"L","transposition":3,"order":["swapped","shifted"],"probe_pitches":[2,7,5,2,5,10,0,5,-2,2,5,-2],"shifted_pitches":[2,7,5,2,5,10,1,5,-2,2,5,-2],"swapped_pitches":[2,7,5,2,5,0,10,5,-2,2,5,-2],"shift_direction":1,"question_num":101,"has_decoy":false,"subject":"S1C1230","sona":"41683","block":1,"time":"2021-09-17T23:05:08.826Z"},{"rt":1837.1000000014901,"stimulus":"[A] option 1, [L] option 2, [G] neither","key_press":65,"name":"choice","trial_type":"html-keyboard-response","trial_index":136,"time_elapsed":267938,"internal_node_id":"0.0-136.0","response":"1st","certainty":"high","char":"A","transposition":-3,"order":["swapped","shifted"],"probe_pitches":[0,5,0,-2,5,8,3,10,5,8,3,-2],"shifted_pitches":[0,5,0,-2,5,8,4,10,5,8,3,-2],"swapped_pitches":[0,5,0,-2,5,3,8,10,5,8,3,-2],"shift_direction":1,"question_num":111,"has_decoy":false,"subject":"S1C1230","sona":"41683","block":1,"time":"2021-09-17T23:05:08.826Z"},{"rt":1996.4000000059605,"stimulus":"[A] option 1, [L] option 2, [G] neither","key_press":65,"name":"choice","trial_type":"html-keyboard-response","trial_index":147,"time_elapsed":289570,"internal_node_id":"0.0-147.0","response":"1st","certainty":"high","char":"A","transposition":1,"order":["shifted","swapped"],"probe_pitches":[-2,0,-2,3,-2,7,5,10,0,5,10,5],"shifted_pitches":[-2,0,-2,3,-2,8,5,10,0,5,10,5],"swapped_pitches":[-2,0,-2,3,-2,5,7,10,0,5,10,5],"shift_direction":1,"question_num":121,"has_decoy":false,"subject":"S1C1230","sona":"41683","block":1,"time":"2021-09-17T23:05:08.826Z"},{"rt":2252.2999999970198,"stimulus":"[A] option 1, [L] option 2, [G] neither","key_press":76,"name":"choice","trial_type":"html-keyboard-response","trial_index":158,"time_elapsed":311863,"internal_node_id":"0.0-158.0","response":"2nd","certainty":"high","char":"L","transposition":-1,"order":["swapped","shifted"],"probe_pitches":[-2,1,-2,1,-2,1,3,10,8,-2,6,-2],"shifted_pitches":[-2,1,-2,1,-2,0,3,10,8,-2,6,-2],"swapped_pitches":[-2,1,-2,1,-2,3,1,10,8,-2,6,-2],"shift_direction":-1,"question_num":131,"has_decoy":false,"subject":"S1C1230","sona":"41683","block":1,"time":"2021-09-17T23:05:08.826Z"},{"rt":1954.2999999970198,"stimulus":"[A] option 1, [L] option 2, [G] neither","key_press":76,"name":"choice","trial_type":"html-keyboard-response","trial_index":169,"time_elapsed":333000,"internal_node_id":"0.0-169.0","response":"2nd","certainty":"high","char":"L","transposition":-2,"order":["shifted","swapped"],"probe_pitches":[3,0,3,5,0,3,7,10,5,0,5,7],"shifted_pitches":[3,0,3,5,0,3,6,10,5,0,5,7],"swapped_pitches":[3,0,3,5,0,7,3,10,5,0,5,7],"shift_direction":-1,"question_num":141,"has_decoy":false,"subject":"S1C1230","sona":"41683","block":1,"time":"2021-09-17T23:05:08.826Z"},{"rt":3163.10000000149,"stimulus":"[A] option 1, [L] option 2, [G] neither","key_press":71,"name":"choice","trial_type":"html-keyboard-response","trial_index":180,"time_elapsed":355211,"internal_node_id":"0.0-180.0","response":"neither","certainty":"high","char":"G","transposition":0,"order":["swapped","shifted"],"probe_pitches":[11,8,3,9,10,1,3,8,5,11,10,6],"shifted_pitches":[11,8,3,9,10,2,3,8,5,11,10,6],"swapped_pitches":[11,8,3,9,10,3,1,8,5,11,10,6],"shift_direction":1,"question_num":151,"has_decoy":false,"subject":"S1C1230","sona":"41683","block":1,"time":"2021-09-17T23:05:08.826Z"},{"rt":1185.1999999955297,"stimulus":"[A] option 1, [L] option 2, [G] neither","key_press":76,"name":"choice","trial_type":"html-keyboard-response","trial_index":191,"time_elapsed":377010,"internal_node_id":"0.0-191.0","response":"2nd","certainty":"high","char":"L","transposition":-2,"order":["shifted","swapped"],"probe_pitches":[4,2,8,6,10,1,4,10,2,4,7,3],"shifted_pitches":[4,2,8,6,10,1,5,10,2,4,7,3],"swapped_pitches":[4,2,8,6,10,4,1,10,2,4,7,3],"shift_direction":1,"question_num":161,"has_decoy":false,"subject":"S1C1230","sona":"41683","block":1,"time":"2021-09-17T23:05:08.826Z"},{"rt":1359.2999999970198,"stimulus":"[A] option 1, [L] option 2, [G] neither","key_press":76,"name":"choice","trial_type":"html-keyboard-response","trial_index":202,"time_elapsed":397301,"internal_node_id":"0.0-202.0","response":"2nd","certainty":"high","char":"L","transposition":2,"order":["shifted","swapped"],"probe_pitches":[8,9,6,5,0,8,3,0,1,11,-1,2],"shifted_pitches":[8,9,6,5,0,7,3,0,1,11,-1,2],"swapped_pitches":[8,9,6,5,0,3,8,0,1,11,-1,2],"shift_direction":-1,"question_num":171,"has_decoy":false,"subject":"S1C1230","sona":"41683","block":1,"time":"2021-09-17T23:05:08.826Z"},{"rt":1152.3999999985099,"stimulus":"[A] option 1, [L] option 2, [G] neither","key_press":65,"name":"choice","trial_type":"html-keyboard-response","trial_index":213,"time_elapsed":418263,"internal_node_id":"0.0-213.0","response":"1st","certainty":"high","char":"A","transposition":-3,"order":["swapped","shifted"],"probe_pitches":[7,2,3,2,3,9,2,6,3,7,9,10],"shifted_pitches":[7,2,3,2,3,8,2,6,3,7,9,10],"swapped_pitches":[7,2,3,2,3,2,9,6,3,7,9,10],"shift_direction":-1,"question_num":181,"has_decoy":false,"subject":"S1C1230","sona":"41683","block":1,"time":"2021-09-17T23:05:08.826Z"},{"rt":1431.3000000044703,"stimulus":"[A] option 1, [L] option 2, [G] neither","key_press":76,"name":"choice","trial_type":"html-keyboard-response","trial_index":224,"time_elapsed":439059,"internal_node_id":"0.0-224.0","response":"2nd","certainty":"high","char":"L","transposition":-2,"order":["shifted","swapped"],"probe_pitches":[3,5,3,5,1,-2,5,10,3,1,8,10],"shifted_pitches":[3,5,3,5,1,-1,5,10,3,1,8,10],"swapped_pitches":[3,5,3,5,1,5,-2,10,3,1,8,10],"shift_direction":1,"question_num":191,"has_decoy":false,"subject":"S1C1230","sona":"41683","block":1,"time":"2021-09-17T23:05:08.826Z"}]