[{"rt":2583.89999999851,"stimulus":"[A] option 1, [L] option 2, [G] neither","key_press":65,"name":"choice","trial_type":"html-keyboard-response","trial_index":10,"time_elapsed":24743,"internal_node_id":"0.0-10.0","subject":"S1C1230","sona":"41683","block":2,"time":"2021-09-17T23:12:52.892Z","response":"1st","certainty":"high","char":"A","transposition":-1,"order":["shifted","swapped"],"probe_pitches":[9,4,11,6,14,11,9,4,11,9,2,6],"shifted_pitches":[9,4,11,6,14,11,10,4,11,9,2,6],"swapped_pitches":[9,4,11,6,14,9,11,4,11,9,2,6],"shift_direction":1,"question_num":1,"has_decoy":false},{"rt":2411.10000000149,"stimulus":"[A] option 1, [L] option 2, [G] neither","key_press":76,"name":"choice","trial_type":"html-keyboard-response","trial_index":21,"time_elapsed":46735,"internal_node_id":"0.0-21.0","subject":"S1C1230","sona":"41683","block":2,"time":"2021-09-17T23:12:52.892Z","response":"2nd","certainty":"high","char":"L","transposition":1,"order":["swapped","shifted"],"probe_pitches":[4,9,11,14,7,9,14,2,14,7,11,7],"shifted_pitches":[4,9,11,14,7,9,15,2,14,7,11,7],"swapped_pitches":[4,9,11,14,7,14,9,2,14,7,11,7],"shift_direction":1,"question_num":11,"has_decoy":false},{"rt":2795.10000000149,"stimulus":"[A] option 1, [L] option 2, [G] neither","key_press":76,"name":"choice","trial_type":"html-keyboard-response","trial_index":32,"time_elapsed":69674,"internal_node_id":"0.0-32.0","subject":"S1C1230","sona":"41683","block":2,"time":"2021-09-17T23:12:52.892Z","response":"2nd","certainty":"high","char":"L","transposition":3,"order":["shifted","swapped"],"probe_pitches":[2,5,12,14,7,2,9,7,14,9,7,9],"shifted_pitches":[2,5,12,14,7,3,9,7,14,9,7,9],"swapped_pitches":[2,5,12,14,7,9,2,7,14,9,7,9],"shift_direction":1,"question_num":21,"has_decoy":false},{"rt":1832.8999999985099,"stimulus":"[A] option 1, [L] option 2, [G] neither","key_press":65,"name":"choice","trial_type":"html-keyboard-response","trial_index":43,"time_elapsed":94264,"internal_node_id":"0.0-43.0","subject":"S1C1230","sona":"41683","block":2,"time":"2021-09-17T23:12:52.892Z","response":"1st","certainty":"high","char":"A","transposition":-1,"order":["swapped","shifted"],"probe_pitches":[4,9,4,6,4,6,9,11,6,2,11,6],"shifted_pitches":[4,9,4,6,4,5,9,11,6,2,11,6],"swapped_pitches":[4,9,4,6,4,9,6,11,6,2,11,6],"shift_direction":-1,"question_num":31,"has_decoy":false},{"rt":1872.8000000044703,"stimulus":"[A] option 1, [L] option 2, [G] neither","key_press":76,"name":"choice","trial_type":"html-keyboard-response","trial_index":54,"time_elapsed":116464,"internal_node_id":"0.0-54.0","subject":"S1C1230","sona":"41683","block":2,"time":"2021-09-17T23:12:52.892Z","response":"2nd","certainty":"high","char":"L","transposition":-2,"order":["shifted","swapped"],"probe_pitches":[4,2,9,12,14,12,7,2,12,4,9,4],"shifted_pitches":[4,2,9,12,14,12,6,2,12,4,9,4],"swapped_pitches":[4,2,9,12,14,7,12,2,12,4,9,4],"shift_direction":-1,"question_num":41,"has_decoy":false},{"rt":1169.2999999970198,"stimulus":"[A] option 1, [L] option 2, [G] neither","key_press":65,"name":"choice","trial_type":"html-keyboard-response","trial_index":65,"time_elapsed":138381,"internal_node_id":"0.0-65.0","subject":"S1C1230","sona":"41683","block":2,"time":"2021-09-17T23:12:52.892Z","response":"1st","certainty":"high","char":"A","transposition":-1,"order":["swapped","shifted"],"probe_pitches":[-1,5,8,0,7,0,1,7,-2,8,1,3],"shifted_pitches":[-1,5,8,0,7,0,2,7,-2,8,1,3],"swapped_pitches":[-1,5,8,0,7,1,0,7,-2,8,1,3],"shift_direction":1,"question_num":51,"has_decoy":false},{"rt":4056.1999999955297,"stimulus":"[A] option 1, [L] option 2, [G] neither","key_press":71,"name":"choice","trial_type":"html-keyboard-response","trial_index":76,"time_elapsed":162109,"internal_node_id":"0.0-76.0","subject":"S1C1230","sona":"41683","block":2,"time":"2021-09-17T23:12:52.892Z","response":"neither","certainty":"high","char":"G","transposition":3,"order":["swapped","shifted"],"probe_pitches":[6,7,6,9,3,9,0,2,8,7,-1,0],"shifted_pitches":[6,7,6,9,3,9,1,2,8,7,-1,0],"swapped_pitches":[6,7,6,9,3,0,9,2,8,7,-1,0],"shift_direction":1,"question_num":61,"has_decoy":false},{"rt":3051.8000000044703,"stimulus":"[A] option 1, [L] option 2, [G] neither","key_press":65,"name":"choice","trial_type":"html-keyboard-response","trial_index":87,"time_elapsed":185632,"internal_node_id":"0.0-87.0","subject":"S1C1230","sona":"41683","block":2,"time":"2021-09-17T23:12:52.892Z","response":"1st","certainty":"high","char":"A","transposition":-3,"order":["swapped","shifted"],"probe_pitches":[1,-2,-1,0,-2,6,4,7,8,-1,9,3],"shifted_pitches":[1,-2,-1,0,-2,6,5,7,8,-1,9,3],"swapped_pitches":[1,-2,-1,0,-2,4,6,7,8,-1,9,3],"shift_direction":1,"question_num":71,"has_decoy":false},{"rt":1418.5999999940395,"stimulus":"[A] option 1, [L] option 2, [G] neither","key_press":76,"name":"choice","trial_type":"html-keyboard-response","trial_index":98,"time_elapsed":217840,"internal_node_id":"0.0-98.0","subject":"S1C1230","sona":"41683","block":2,"time":"2021-09-17T23:12:52.892Z","response":"2nd","certainty":"high","char":"L","transposition":-2,"order":["shifted","swapped"],"probe_pitches":[10,6,2,-2,0,8,1,6,2,9,2,1],"shifted_pitches":[10,6,2,-2,0,7,1,6,2,9,2,1],"swapped_pitches":[10,6,2,-2,0,1,8,6,2,9,2,1],"shift_direction":-1,"question_num":81,"has_decoy":false},{"rt":3656.60000000149,"stimulus":"[A] option 1, [L] option 2, [G] neither","key_press":65,"name":"choice","trial_type":"html-keyboard-response","trial_index":109,"time_elapsed":242504,"internal_node_id":"0.0-109.0","subject":"S1C1230","sona":"41683","block":2,"time":"2021-09-17T23:12:52.892Z","response":"1st","certainty":"high","char":"A","transposition":0,"order":["shifted","swapped"],"probe_pitches":[7,5,0,7,10,3,2,-1,-2,3,7,-2],"shifted_pitches":[7,5,0,7,10,4,2,-1,-2,3,7,-2],"swapped_pitches":[7,5,0,7,10,2,3,-1,-2,3,7,-2],"shift_direction":1,"question_num":91,"has_decoy":false},{"rt":1873.7999999970198,"stimulus":"[A] option 1, [L] option 2, [G] neither","key_press":76,"name":"choice","trial_type":"html-keyboard-response","trial_index":120,"time_elapsed":264739,"internal_node_id":"0.0-120.0","subject":"S1C1230","sona":"41683","block":2,"time":"2021-09-17T23:12:52.892Z","response":"2nd","certainty":"high","char":"L","transposition":-3,"order":["shifted","swapped"],"probe_pitches":[14,11,7,11,14,11,2,4,11,4,14,9],"shifted_pitches":[14,11,7,11,14,11,1,4,11,4,14,9],"swapped_pitches":[14,11,7,11,14,2,11,4,11,4,14,9],"shift_direction":-1,"question_num":101,"has_decoy":false},{"rt":1744.5,"stimulus":"[A] option 1, [L] option 2, [G] neither","key_press":65,"name":"choice","trial_type":"html-keyboard-response","trial_index":131,"time_elapsed":286735,"internal_node_id":"0.0-131.0","subject":"S1C1230","sona":"41683","block":2,"time":"2021-09-17T23:12:52.892Z","response":"1st","certainty":"high","char":"A","transposition":2,"order":["shifted","swapped"],"probe_pitches":[10,7,0,7,2,0,5,1,4,-1,9,-2],"shifted_pitches":[10,7,0,7,2,0,6,1,4,-1,9,-2],"swapped_pitches":[10,7,0,7,2,5,0,1,4,-1,9,-2],"shift_direction":1,"question_num":111,"has_decoy":false},{"rt":1903.7999999970198,"stimulus":"[A] option 1, [L] option 2, [G] neither","key_press":76,"name":"choice","trial_type":"html-keyboard-response","trial_index":142,"time_elapsed":308365,"internal_node_id":"0.0-142.0","subject":"S1C1230","sona":"41683","block":2,"time":"2021-09-17T23:12:52.892Z","response":"2nd","certainty":"high","char":"L","transposition":0,"order":["shifted","swapped"],"probe_pitches":[14,9,4,12,14,12,4,9,2,12,4,7],"shifted_pitches":[14,9,4,12,14,11,4,9,2,12,4,7],"swapped_pitches":[14,9,4,12,14,4,12,9,2,12,4,7],"shift_direction":-1,"question_num":121,"has_decoy":false},{"rt":1536.8999999985099,"stimulus":"[A] option 1, [L] option 2, [G] neither","key_press":71,"name":"choice","trial_type":"html-keyboard-response","trial_index":153,"time_elapsed":329297,"internal_node_id":"0.0-153.0","subject":"S1C1230","sona":"41683","block":2,"time":"2021-09-17T23:12:52.892Z","response":"neither","certainty":"high","char":"G","transposition":-3,"order":["swapped","shifted"],"probe_pitches":[12,7,5,2,10,7,12,14,10,12,14,7],"shifted_pitches":[12,7,5,2,10,7,11,14,10,12,14,7],"swapped_pitches":[12,7,5,2,10,12,7,14,10,12,14,7],"shift_direction":-1,"question_num":131,"has_decoy":false},{"rt":1499.6999999955297,"stimulus":"[A] option 1, [L] option 2, [G] neither","key_press":65,"name":"choice","trial_type":"html-keyboard-response","trial_index":164,"time_elapsed":350364,"internal_node_id":"0.0-164.0","subject":"S1C1230","sona":"41683","block":2,"time":"2021-09-17T23:12:52.892Z","response":"1st","certainty":"high","char":"A","transposition":2,"order":["swapped","shifted"],"probe_pitches":[5,9,7,12,14,9,2,7,5,9,14,5],"shifted_pitches":[5,9,7,12,14,10,2,7,5,9,14,5],"swapped_pitches":[5,9,7,12,14,2,9,7,5,9,14,5],"shift_direction":1,"question_num":141,"has_decoy":false},{"rt":1639.3000000044703,"stimulus":"[A] option 1, [L] option 2, [G] neither","key_press":65,"name":"choice","trial_type":"html-keyboard-response","trial_index":175,"time_elapsed":371229,"internal_node_id":"0.0-175.0","subject":"S1C1230","sona":"41683","block":2,"time":"2021-09-17T23:12:52.892Z","response":"1st","certainty":"high","char":"A","transposition":-1,"order":["shifted","swapped"],"probe_pitches":[7,9,8,5,4,1,7,9,7,10,-2,6],"shifted_pitches":[7,9,8,5,4,0,7,9,7,10,-2,6],"swapped_pitches":[7,9,8,5,4,7,1,9,7,10,-2,6],"shift_direction":-1,"question_num":151,"has_decoy":false},{"rt":1846.0999999940395,"stimulus":"[A] option 1, [L] option 2, [G] neither","key_press":65,"name":"choice","trial_type":"html-keyboard-response","trial_index":186,"time_elapsed":392199,"internal_node_id":"0.0-186.0","subject":"S1C1230","sona":"41683","block":2,"time":"2021-09-17T23:12:52.892Z","response":"1st","certainty":"high","char":"A","transposition":-2,"order":["swapped","shifted"],"probe_pitches":[14,12,5,2,10,5,12,2,14,10,7,10],"shifted_pitches":[14,12,5,2,10,6,12,2,14,10,7,10],"swapped_pitches":[14,12,5,2,10,12,5,2,14,10,7,10],"shift_direction":1,"question_num":161,"has_decoy":false},{"rt":1483.6999999955297,"stimulus":"[A] option 1, [L] option 2, [G] neither","key_press":71,"name":"choice","trial_type":"html-keyboard-response","trial_index":197,"time_elapsed":414946,"internal_node_id":"0.0-197.0","subject":"S1C1230","sona":"41683","block":2,"time":"2021-09-17T23:12:52.892Z","response":"neither","certainty":"high","char":"G","transposition":-3,"order":["swapped","shifted"],"probe_pitches":[3,4,7,6,-1,9,2,7,4,7,6,9],"shifted_pitches":[3,4,7,6,-1,8,2,7,4,7,6,9],"swapped_pitches":[3,4,7,6,-1,2,9,7,4,7,6,9],"shift_direction":-1,"question_num":171,"has_decoy":false},{"rt":1693.1000000014901,"stimulus":"[A] option 1, [L] option 2, [G] neither","key_press":76,"name":"choice","trial_type":"html-keyboard-response","trial_index":208,"time_elapsed":436084,"internal_node_id":"0.0-208.0","subject":"S1C1230","sona":"41683","block":2,"time":"2021-09-17T23:12:52.892Z","response":"2nd","certainty":"high","char":"L","transposition":1,"order":["swapped","shifted"],"probe_pitches":[2,4,-1,5,1,8,4,6,9,10,4,10],"shifted_pitches":[2,4,-1,5,1,8,3,6,9,10,4,10],"swapped_pitches":[2,4,-1,5,1,4,8,6,9,10,4,10],"shift_direction":-1,"question_num":181,"has_decoy":false},{"rt":1703.8000000044703,"stimulus":"[A] option 1, [L] option 2, [G] neither","key_press":65,"name":"choice","trial_type":"html-keyboard-response","trial_index":219,"time_elapsed":460506,"internal_node_id":"0.0-219.0","subject":"S1C1230","sona":"41683","block":2,"time":"2021-09-17T23:12:52.892Z","response":"1st","certainty":"high","char":"A","transposition":-2,"order":["shifted","swapped"],"probe_pitches":[6,10,7,8,0,10,7,-2,6,5,6,-1],"shifted_pitches":[6,10,7,8,0,9,7,-2,6,5,6,-1],"swapped_pitches":[6,10,7,8,0,7,10,-2,6,5,6,-1],"shift_direction":-1,"question_num":191,"has_decoy":false}]