[{"rt":1683.3999999985099,"stimulus":"[A] option 1, [L] option 2, [G] neither","key_press":76,"name":"choice","trial_type":"html-keyboard-response","trial_index":10,"time_elapsed":28049,"internal_node_id":"0.0-10.0","subject":"S1C1230","sona":"41683","block":3,"time":"2021-09-17T23:21:30.513Z","response":"2nd","certainty":"high","char":"L","transposition":0,"order":["swapped","shifted"],"probe_pitches":[6,11,6,4,-1,9,2,4,2,9,-1,2],"shifted_pitches":[6,11,6,4,-1,10,2,4,2,9,-1,2],"swapped_pitches":[6,11,6,4,-1,2,9,4,2,9,-1,2],"shift_direction":1,"question_num":1,"has_decoy":false},{"rt":4519.70000000298,"stimulus":"[A] option 1, [L] option 2, [G] neither","key_press":76,"name":"choice","trial_type":"html-keyboard-response","trial_index":21,"time_elapsed":58677,"internal_node_id":"0.0-21.0","subject":"S1C1230","sona":"41683","block":3,"time":"2021-09-17T23:21:30.513Z","response":"2nd","certainty":"high","char":"L","transposition":-1,"order":["swapped","shifted"],"probe_pitches":[0,3,2,6,9,7,6,11,-1,9,7,-1],"shifted_pitches":[0,3,2,6,9,7,5,11,-1,9,7,-1],"swapped_pitches":[0,3,2,6,9,6,7,11,-1,9,7,-1],"shift_direction":-1,"question_num":11,"has_decoy":false},{"rt":1573,"stimulus":"[A] option 1, [L] option 2, [G] neither","key_press":76,"name":"choice","trial_type":"html-keyboard-response","trial_index":32,"time_elapsed":79779,"internal_node_id":"0.0-32.0","subject":"S1C1230","sona":"41683","block":3,"time":"2021-09-17T23:21:30.513Z","response":"2nd","certainty":"high","char":"L","transposition":-3,"order":["swapped","shifted"],"probe_pitches":[10,9,4,0,9,7,2,11,2,0,11,0],"shifted_pitches":[10,9,4,0,9,8,2,11,2,0,11,0],"swapped_pitches":[10,9,4,0,9,2,7,11,2,0,11,0],"shift_direction":1,"question_num":21,"has_decoy":false},{"rt":1422.1000000014901,"stimulus":"[A] option 1, [L] option 2, [G] neither","key_press":76,"name":"choice","trial_type":"html-keyboard-response","trial_index":43,"time_elapsed":102849,"internal_node_id":"0.0-43.0","subject":"S1C1230","sona":"41683","block":3,"time":"2021-09-17T23:21:30.513Z","response":"2nd","certainty":"high","char":"L","transposition":-3,"order":["swapped","shifted"],"probe_pitches":[1,-1,6,-1,4,11,1,8,-1,4,8,4],"shifted_pitches":[1,-1,6,-1,4,11,2,8,-1,4,8,4],"swapped_pitches":[1,-1,6,-1,4,1,11,8,-1,4,8,4],"shift_direction":1,"question_num":31,"has_decoy":false},{"rt":2421.2000000029802,"stimulus":"[A] option 1, [L] option 2, [G] neither","key_press":71,"name":"choice","trial_type":"html-keyboard-response","trial_index":54,"time_elapsed":125246,"internal_node_id":"0.0-54.0","subject":"S1C1230","sona":"41683","block":3,"time":"2021-09-17T23:21:30.513Z","response":"neither","certainty":"high","char":"G","transposition":0,"order":["swapped","shifted"],"probe_pitches":[7,11,7,3,7,10,2,6,8,4,6,2],"shifted_pitches":[7,11,7,3,7,10,1,6,8,4,6,2],"swapped_pitches":[7,11,7,3,7,2,10,6,8,4,6,2],"shift_direction":-1,"question_num":41,"has_decoy":false},{"rt":1513.1999999955297,"stimulus":"[A] option 1, [L] option 2, [G] neither","key_press":76,"name":"choice","trial_type":"html-keyboard-response","trial_index":65,"time_elapsed":157997,"internal_node_id":"0.0-65.0","subject":"S1C1230","sona":"41683","block":3,"time":"2021-09-17T23:21:30.513Z","response":"2nd","certainty":"high","char":"L","transposition":3,"order":["shifted","swapped"],"probe_pitches":[2,-1,2,0,7,8,3,5,8,5,0,-1],"shifted_pitches":[2,-1,2,0,7,9,3,5,8,5,0,-1],"swapped_pitches":[2,-1,2,0,7,3,8,5,8,5,0,-1],"shift_direction":1,"question_num":51,"has_decoy":false},{"rt":2457.7999999970198,"stimulus":"[A] option 1, [L] option 2, [G] neither","key_press":65,"name":"choice","trial_type":"html-keyboard-response","trial_index":76,"time_elapsed":188329,"internal_node_id":"0.0-76.0","subject":"S1C1230","sona":"41683","block":3,"time":"2021-09-17T23:21:30.513Z","response":"1st","certainty":"high","char":"A","transposition":2,"order":["shifted","swapped"],"probe_pitches":[2,4,-1,2,9,6,2,9,2,11,6,2],"shifted_pitches":[2,4,-1,2,9,6,3,9,2,11,6,2],"swapped_pitches":[2,4,-1,2,9,2,6,9,2,11,6,2],"shift_direction":1,"question_num":61,"has_decoy":false},{"rt":2593.5,"stimulus":"[A] option 1, [L] option 2, [G] neither","key_press":76,"name":"choice","trial_type":"html-keyboard-response","trial_index":87,"time_elapsed":213681,"internal_node_id":"0.0-87.0","subject":"S1C1230","sona":"41683","block":3,"time":"2021-09-17T23:21:30.513Z","response":"2nd","certainty":"high","char":"L","transposition":-2,"order":["shifted","swapped"],"probe_pitches":[0,1,8,5,2,-1,5,7,0,9,8,-1],"shifted_pitches":[0,1,8,5,2,-1,6,7,0,9,8,-1],"swapped_pitches":[0,1,8,5,2,5,-1,7,0,9,8,-1],"shift_direction":1,"question_num":71,"has_decoy":false},{"rt":2000.9000000059605,"stimulus":"[A] option 1, [L] option 2, [G] neither","key_press":65,"name":"choice","trial_type":"html-keyboard-response","trial_index":98,"time_elapsed":237084,"internal_node_id":"0.0-98.0","subject":"S1C1230","sona":"41683","block":3,"time":"2021-09-17T23:21:30.513Z","response":"1st","certainty":"high","char":"A","transposition":-3,"order":["swapped","shifted"],"probe_pitches":[6,8,4,8,1,6,8,1,-1,6,4,1],"shifted_pitches":[6,8,4,8,1,7,8,1,-1,6,4,1],"swapped_pitches":[6,8,4,8,1,8,6,1,-1,6,4,1],"shift_direction":1,"question_num":81,"has_decoy":false},{"rt":1562.2999999970198,"stimulus":"[A] option 1, [L] option 2, [G] neither","key_press":76,"name":"choice","trial_type":"html-keyboard-response","trial_index":109,"time_elapsed":259594,"internal_node_id":"0.0-109.0","subject":"S1C1230","sona":"41683","block":3,"time":"2021-09-17T23:21:30.513Z","response":"2nd","certainty":"high","char":"L","transposition":-3,"order":["shifted","swapped"],"probe_pitches":[9,11,6,11,5,2,8,10,2,4,6,10],"shifted_pitches":[9,11,6,11,5,3,8,10,2,4,6,10],"swapped_pitches":[9,11,6,11,5,8,2,10,2,4,6,10],"shift_direction":1,"question_num":91,"has_decoy":false},{"rt":1716.7000000029802,"stimulus":"[A] option 1, [L] option 2, [G] neither","key_press":76,"name":"choice","trial_type":"html-keyboard-response","trial_index":120,"time_elapsed":280635,"internal_node_id":"0.0-120.0","subject":"S1C1230","sona":"41683","block":3,"time":"2021-09-17T23:21:30.513Z","response":"2nd","certainty":"high","char":"L","transposition":-2,"order":["shifted","swapped"],"probe_pitches":[-1,3,5,6,1,3,2,1,2,5,9,7],"shifted_pitches":[-1,3,5,6,1,4,2,1,2,5,9,7],"swapped_pitches":[-1,3,5,6,1,2,3,1,2,5,9,7],"shift_direction":1,"question_num":101,"has_decoy":false},{"rt":3313.6999999955297,"stimulus":"[A] option 1, [L] option 2, [G] neither","key_press":76,"name":"choice","trial_type":"html-keyboard-response","trial_index":131,"time_elapsed":305063,"internal_node_id":"0.0-131.0","subject":"S1C1230","sona":"41683","block":3,"time":"2021-09-17T23:21:30.513Z","response":"2nd","certainty":"high","char":"L","transposition":3,"order":["shifted","swapped"],"probe_pitches":[-1,1,6,8,11,1,-1,3,6,11,3,11],"shifted_pitches":[-1,1,6,8,11,0,-1,3,6,11,3,11],"swapped_pitches":[-1,1,6,8,11,-1,1,3,6,11,3,11],"shift_direction":-1,"question_num":111,"has_decoy":false},{"rt":4287.5,"stimulus":"[A] option 1, [L] option 2, [G] neither","key_press":65,"name":"choice","trial_type":"html-keyboard-response","trial_index":142,"time_elapsed":332384,"internal_node_id":"0.0-142.0","subject":"S1C1230","sona":"41683","block":3,"time":"2021-09-17T23:21:30.513Z","response":"1st","certainty":"high","char":"A","transposition":-1,"order":["shifted","swapped"],"probe_pitches":[6,9,4,1,9,6,4,-1,9,1,-1,1],"shifted_pitches":[6,9,4,1,9,6,3,-1,9,1,-1,1],"swapped_pitches":[6,9,4,1,9,4,6,-1,9,1,-1,1],"shift_direction":-1,"question_num":121,"has_decoy":false},{"rt":1357.1999999955297,"stimulus":"[A] option 1, [L] option 2, [G] neither","key_press":76,"name":"choice","trial_type":"html-keyboard-response","trial_index":153,"time_elapsed":356786,"internal_node_id":"0.0-153.0","subject":"S1C1230","sona":"41683","block":3,"time":"2021-09-17T23:21:30.513Z","response":"2nd","certainty":"high","char":"L","transposition":1,"order":["swapped","shifted"],"probe_pitches":[-1,0,3,7,-1,0,3,9,0,1,9,-1],"shifted_pitches":[-1,0,3,7,-1,0,2,9,0,1,9,-1],"swapped_pitches":[-1,0,3,7,-1,3,0,9,0,1,9,-1],"shift_direction":-1,"question_num":131,"has_decoy":false},{"rt":1461.7000000029802,"stimulus":"[A] option 1, [L] option 2, [G] neither","key_press":65,"name":"choice","trial_type":"html-keyboard-response","trial_index":164,"time_elapsed":378559,"internal_node_id":"0.0-164.0","subject":"S1C1230","sona":"41683","block":3,"time":"2021-09-17T23:21:30.513Z","response":"1st","certainty":"high","char":"A","transposition":-2,"order":["shifted","swapped"],"probe_pitches":[3,6,-1,1,-1,1,11,8,3,1,3,1],"shifted_pitches":[3,6,-1,1,-1,0,11,8,3,1,3,1],"swapped_pitches":[3,6,-1,1,-1,11,1,8,3,1,3,1],"shift_direction":-1,"question_num":141,"has_decoy":false},{"rt":6093.29999999702,"stimulus":"[A] option 1, [L] option 2, [G] neither","key_press":76,"name":"choice","trial_type":"html-keyboard-response","trial_index":175,"time_elapsed":411669,"internal_node_id":"0.0-175.0","subject":"S1C1230","sona":"41683","block":3,"time":"2021-09-17T23:21:30.513Z","response":"2nd","certainty":"high","char":"L","transposition":2,"order":["shifted","swapped"],"probe_pitches":[9,11,5,2,6,11,2,5,1,9,8,-1],"shifted_pitches":[9,11,5,2,6,10,2,5,1,9,8,-1],"swapped_pitches":[9,11,5,2,6,2,11,5,1,9,8,-1],"shift_direction":-1,"question_num":151,"has_decoy":false},{"rt":2448.60000000149,"stimulus":"[A] option 1, [L] option 2, [G] neither","key_press":76,"name":"choice","trial_type":"html-keyboard-response","trial_index":186,"time_elapsed":436157,"internal_node_id":"0.0-186.0","subject":"S1C1230","sona":"41683","block":3,"time":"2021-09-17T23:21:30.513Z","response":"2nd","certainty":"high","char":"L","transposition":1,"order":["swapped","shifted"],"probe_pitches":[7,2,9,4,-1,2,7,11,7,11,4,9],"shifted_pitches":[7,2,9,4,-1,2,6,11,7,11,4,9],"swapped_pitches":[7,2,9,4,-1,7,2,11,7,11,4,9],"shift_direction":-1,"question_num":161,"has_decoy":false},{"rt":2516.7999999970198,"stimulus":"[A] option 1, [L] option 2, [G] neither","key_press":65,"name":"choice","trial_type":"html-keyboard-response","trial_index":197,"time_elapsed":458600,"internal_node_id":"0.0-197.0","subject":"S1C1230","sona":"41683","block":3,"time":"2021-09-17T23:21:30.513Z","response":"1st","certainty":"high","char":"A","transposition":-1,"order":["swapped","shifted"],"probe_pitches":[11,9,11,9,6,1,9,4,-1,9,11,6],"shifted_pitches":[11,9,11,9,6,1,10,4,-1,9,11,6],"swapped_pitches":[11,9,11,9,6,9,1,4,-1,9,11,6],"shift_direction":1,"question_num":171,"has_decoy":false},{"rt":4497.4000000059605,"stimulus":"[A] option 1, [L] option 2, [G] neither","key_press":65,"name":"choice","trial_type":"html-keyboard-response","trial_index":208,"time_elapsed":485551,"internal_node_id":"0.0-208.0","subject":"S1C1230","sona":"41683","block":3,"time":"2021-09-17T23:21:30.513Z","response":"1st","certainty":"high","char":"A","transposition":-2,"order":["shifted","swapped"],"probe_pitches":[11,9,7,-1,4,2,7,4,-1,4,11,2],"shifted_pitches":[11,9,7,-1,4,1,7,4,-1,4,11,2],"swapped_pitches":[11,9,7,-1,4,7,2,4,-1,4,11,2],"shift_direction":-1,"question_num":181,"has_decoy":false},{"rt":2667.39999999851,"stimulus":"[A] option 1, [L] option 2, [G] neither","key_press":76,"name":"choice","trial_type":"html-keyboard-response","trial_index":219,"time_elapsed":507780,"internal_node_id":"0.0-219.0","subject":"S1C1230","sona":"41683","block":3,"time":"2021-09-17T23:21:30.513Z","response":"2nd","certainty":"high","char":"L","transposition":-1,"order":["swapped","shifted"],"probe_pitches":[11,8,10,11,9,6,8,4,8,10,8,6],"shifted_pitches":[11,8,10,11,9,6,7,4,8,10,8,6],"swapped_pitches":[11,8,10,11,9,8,6,4,8,10,8,6],"shift_direction":-1,"question_num":191,"has_decoy":false}]