[{"rt":6076.39999999851,"stimulus":"[A] option 1, [L] option 2, [G] neither","key_press":65,"name":"choice","trial_type":"html-keyboard-response","trial_index":10,"time_elapsed":29232,"internal_node_id":"0.0-10.0","subject":"S1C1230","sona":"41683","block":4,"time":"2021-09-17T23:29:10.109Z","response":"1st","certainty":"high","char":"A","transposition":-2,"order":["swapped","shifted"],"probe_pitches":[9,4,9,1,6,1,-1,9,4,9,-3,-1],"shifted_pitches":[9,4,9,1,6,0,-1,9,4,9,-3,-1],"swapped_pitches":[9,4,9,1,6,-1,1,9,4,9,-3,-1],"shift_direction":-1,"question_num":1,"has_decoy":false},{"rt":2166.8000000044703,"stimulus":"[A] option 1, [L] option 2, [G] neither","key_press":76,"name":"choice","trial_type":"html-keyboard-response","trial_index":21,"time_elapsed":53473,"internal_node_id":"0.0-21.0","subject":"S1C1230","sona":"41683","block":4,"time":"2021-09-17T23:29:10.109Z","response":"2nd","certainty":"high","char":"L","transposition":-2,"order":["swapped","shifted"],"probe_pitches":[0,4,9,4,8,7,1,10,0,10,0,10],"shifted_pitches":[0,4,9,4,8,6,1,10,0,10,0,10],"swapped_pitches":[0,4,9,4,8,1,7,10,0,10,0,10],"shift_direction":-1,"question_num":11,"has_decoy":false},{"rt":2556.3000000044703,"stimulus":"[A] option 1, [L] option 2, [G] neither","key_press":65,"name":"choice","trial_type":"html-keyboard-response","trial_index":32,"time_elapsed":75457,"internal_node_id":"0.0-32.0","subject":"S1C1230","sona":"41683","block":4,"time":"2021-09-17T23:29:10.109Z","response":"1st","certainty":"high","char":"A","transposition":-1,"order":["shifted","swapped"],"probe_pitches":[6,7,1,9,1,6,4,2,7,0,3,8],"shifted_pitches":[6,7,1,9,1,6,5,2,7,0,3,8],"swapped_pitches":[6,7,1,9,1,4,6,2,7,0,3,8],"shift_direction":1,"question_num":21,"has_decoy":false},{"rt":1936.7999999970198,"stimulus":"[A] option 1, [L] option 2, [G] neither","key_press":65,"name":"choice","trial_type":"html-keyboard-response","trial_index":43,"time_elapsed":96902,"internal_node_id":"0.0-43.0","subject":"S1C1230","sona":"41683","block":4,"time":"2021-09-17T23:29:10.109Z","response":"1st","certainty":"high","char":"A","transposition":0,"order":["swapped","shifted"],"probe_pitches":[4,2,7,9,0,4,9,-3,4,9,4,2],"shifted_pitches":[4,2,7,9,0,5,9,-3,4,9,4,2],"swapped_pitches":[4,2,7,9,0,9,4,-3,4,9,4,2],"shift_direction":1,"question_num":31,"has_decoy":false},{"rt":1668.1999999955297,"stimulus":"[A] option 1, [L] option 2, [G] neither","key_press":76,"name":"choice","trial_type":"html-keyboard-response","trial_index":54,"time_elapsed":119268,"internal_node_id":"0.0-54.0","subject":"S1C1230","sona":"41683","block":4,"time":"2021-09-17T23:29:10.109Z","response":"2nd","certainty":"high","char":"L","transposition":-3,"order":["shifted","swapped"],"probe_pitches":[9,4,0,-3,4,7,2,0,7,0,-3,0],"shifted_pitches":[9,4,0,-3,4,7,3,0,7,0,-3,0],"swapped_pitches":[9,4,0,-3,4,2,7,0,7,0,-3,0],"shift_direction":1,"question_num":41,"has_decoy":false},{"rt":1575,"stimulus":"[A] option 1, [L] option 2, [G] neither","key_press":76,"name":"choice","trial_type":"html-keyboard-response","trial_index":65,"time_elapsed":140173,"internal_node_id":"0.0-65.0","subject":"S1C1230","sona":"41683","block":4,"time":"2021-09-17T23:29:10.109Z","response":"2nd","certainty":"high","char":"L","transposition":2,"order":["swapped","shifted"],"probe_pitches":[0,4,8,6,4,2,-2,9,4,9,0,4],"shifted_pitches":[0,4,8,6,4,3,-2,9,4,9,0,4],"swapped_pitches":[0,4,8,6,4,-2,2,9,4,9,0,4],"shift_direction":1,"question_num":51,"has_decoy":false},{"rt":2440.5999999940395,"stimulus":"[A] option 1, [L] option 2, [G] neither","key_press":65,"name":"choice","trial_type":"html-keyboard-response","trial_index":76,"time_elapsed":162153,"internal_node_id":"0.0-76.0","subject":"S1C1230","sona":"41683","block":4,"time":"2021-09-17T23:29:10.109Z","response":"1st","certainty":"high","char":"A","transposition":1,"order":["swapped","shifted"],"probe_pitches":[9,7,9,7,9,4,1,2,8,2,10,4],"shifted_pitches":[9,7,9,7,9,4,0,2,8,2,10,4],"swapped_pitches":[9,7,9,7,9,1,4,2,8,2,10,4],"shift_direction":-1,"question_num":61,"has_decoy":false},{"rt":1519.3999999985099,"stimulus":"[A] option 1, [L] option 2, [G] neither","key_press":76,"name":"choice","trial_type":"html-keyboard-response","trial_index":87,"time_elapsed":183985,"internal_node_id":"0.0-87.0","subject":"S1C1230","sona":"41683","block":4,"time":"2021-09-17T23:29:10.109Z","response":"2nd","certainty":"high","char":"L","transposition":3,"order":["shifted","swapped"],"probe_pitches":[2,3,6,2,-1,1,9,10,0,10,7,-1],"shifted_pitches":[2,3,6,2,-1,1,8,10,0,10,7,-1],"swapped_pitches":[2,3,6,2,-1,9,1,10,0,10,7,-1],"shift_direction":-1,"question_num":71,"has_decoy":false},{"rt":2517.39999999851,"stimulus":"[A] option 1, [L] option 2, [G] neither","key_press":65,"name":"choice","trial_type":"html-keyboard-response","trial_index":98,"time_elapsed":205574,"internal_node_id":"0.0-98.0","subject":"S1C1230","sona":"41683","block":4,"time":"2021-09-17T23:29:10.109Z","response":"1st","certainty":"high","char":"A","transposition":-1,"order":["swapped","shifted"],"probe_pitches":[6,1,6,-1,1,4,-1,9,1,-1,-3,1],"shifted_pitches":[6,1,6,-1,1,4,0,9,1,-1,-3,1],"swapped_pitches":[6,1,6,-1,1,-1,4,9,1,-1,-3,1],"shift_direction":1,"question_num":81,"has_decoy":false},{"rt":1535.2000000029802,"stimulus":"[A] option 1, [L] option 2, [G] neither","key_press":76,"name":"choice","trial_type":"html-keyboard-response","trial_index":109,"time_elapsed":227014,"internal_node_id":"0.0-109.0","subject":"S1C1230","sona":"41683","block":4,"time":"2021-09-17T23:29:10.109Z","response":"2nd","certainty":"high","char":"L","transposition":-1,"order":["shifted","swapped"],"probe_pitches":[-2,1,-1,3,5,3,1,10,9,6,-1,5],"shifted_pitches":[-2,1,-1,3,5,4,1,10,9,6,-1,5],"swapped_pitches":[-2,1,-1,3,5,1,3,10,9,6,-1,5],"shift_direction":1,"question_num":91,"has_decoy":false},{"rt":1654.5,"stimulus":"[A] option 1, [L] option 2, [G] neither","key_press":65,"name":"choice","trial_type":"html-keyboard-response","trial_index":120,"time_elapsed":247821,"internal_node_id":"0.0-120.0","subject":"S1C1230","sona":"41683","block":4,"time":"2021-09-17T23:29:10.109Z","response":"1st","certainty":"high","char":"A","transposition":2,"order":["shifted","swapped"],"probe_pitches":[-3,2,9,7,2,0,7,-3,5,7,-3,2],"shifted_pitches":[-3,2,9,7,2,0,6,-3,5,7,-3,2],"swapped_pitches":[-3,2,9,7,2,7,0,-3,5,7,-3,2],"shift_direction":-1,"question_num":101,"has_decoy":false},{"rt":1814,"stimulus":"[A] option 1, [L] option 2, [G] neither","key_press":76,"name":"choice","trial_type":"html-keyboard-response","trial_index":131,"time_elapsed":269283,"internal_node_id":"0.0-131.0","subject":"S1C1230","sona":"41683","block":4,"time":"2021-09-17T23:29:10.109Z","response":"2nd","certainty":"high","char":"L","transposition":1,"order":["shifted","swapped"],"probe_pitches":[2,-1,-3,2,6,-1,-3,4,6,-3,2,6],"shifted_pitches":[2,-1,-3,2,6,-1,-4,4,6,-3,2,6],"swapped_pitches":[2,-1,-3,2,6,-3,-1,4,6,-3,2,6],"shift_direction":-1,"question_num":111,"has_decoy":false},{"rt":1772.2999999970198,"stimulus":"[A] option 1, [L] option 2, [G] neither","key_press":71,"name":"choice","trial_type":"html-keyboard-response","trial_index":142,"time_elapsed":291034,"internal_node_id":"0.0-142.0","subject":"S1C1230","sona":"41683","block":4,"time":"2021-09-17T23:29:10.109Z","response":"neither","certainty":"high","char":"G","transposition":-3,"order":["swapped","shifted"],"probe_pitches":[0,6,4,5,0,6,8,-2,4,8,-1,4],"shifted_pitches":[0,6,4,5,0,6,7,-2,4,8,-1,4],"swapped_pitches":[0,6,4,5,0,8,6,-2,4,8,-1,4],"shift_direction":-1,"question_num":121,"has_decoy":false},{"rt":1588.3999999985099,"stimulus":"[A] option 1, [L] option 2, [G] neither","key_press":65,"name":"choice","trial_type":"html-keyboard-response","trial_index":153,"time_elapsed":314873,"internal_node_id":"0.0-153.0","subject":"S1C1230","sona":"41683","block":4,"time":"2021-09-17T23:29:10.109Z","response":"1st","certainty":"high","char":"A","transposition":-2,"order":["shifted","swapped"],"probe_pitches":[8,7,10,6,9,2,6,8,10,-2,4,8],"shifted_pitches":[8,7,10,6,9,1,6,8,10,-2,4,8],"swapped_pitches":[8,7,10,6,9,6,2,8,10,-2,4,8],"shift_direction":-1,"question_num":131,"has_decoy":false},{"rt":1608.2999999970198,"stimulus":"[A] option 1, [L] option 2, [G] neither","key_press":76,"name":"choice","trial_type":"html-keyboard-response","trial_index":164,"time_elapsed":335916,"internal_node_id":"0.0-164.0","subject":"S1C1230","sona":"41683","block":4,"time":"2021-09-17T23:29:10.109Z","response":"2nd","certainty":"high","char":"L","transposition":-1,"order":["swapped","shifted"],"probe_pitches":[9,4,2,-3,2,-3,-1,9,6,9,2,9],"shifted_pitches":[9,4,2,-3,2,-4,-1,9,6,9,2,9],"swapped_pitches":[9,4,2,-3,2,-1,-3,9,6,9,2,9],"shift_direction":-1,"question_num":141,"has_decoy":false},{"rt":2700.8000000044703,"stimulus":"[A] option 1, [L] option 2, [G] neither","key_press":76,"name":"choice","trial_type":"html-keyboard-response","trial_index":175,"time_elapsed":357846,"internal_node_id":"0.0-175.0","subject":"S1C1230","sona":"41683","block":4,"time":"2021-09-17T23:29:10.109Z","response":"2nd","certainty":"high","char":"L","transposition":-2,"order":["shifted","swapped"],"probe_pitches":[0,-3,2,0,2,0,5,-3,7,9,7,-3],"shifted_pitches":[0,-3,2,0,2,-1,5,-3,7,9,7,-3],"swapped_pitches":[0,-3,2,0,2,5,0,-3,7,9,7,-3],"shift_direction":-1,"question_num":151,"has_decoy":false},{"rt":1927.6000000014901,"stimulus":"[A] option 1, [L] option 2, [G] neither","key_press":76,"name":"choice","trial_type":"html-keyboard-response","trial_index":186,"time_elapsed":383271,"internal_node_id":"0.0-186.0","subject":"S1C1230","sona":"41683","block":4,"time":"2021-09-17T23:29:10.109Z","response":"2nd","certainty":"high","char":"L","transposition":-3,"order":["swapped","shifted"],"probe_pitches":[5,7,0,7,8,7,1,6,5,0,4,7],"shifted_pitches":[5,7,0,7,8,7,2,6,5,0,4,7],"swapped_pitches":[5,7,0,7,8,1,7,6,5,0,4,7],"shift_direction":1,"question_num":161,"has_decoy":false},{"rt":1544.2999999970198,"stimulus":"[A] option 1, [L] option 2, [G] neither","key_press":76,"name":"choice","trial_type":"html-keyboard-response","trial_index":197,"time_elapsed":407531,"internal_node_id":"0.0-197.0","subject":"S1C1230","sona":"41683","block":4,"time":"2021-09-17T23:29:10.109Z","response":"2nd","certainty":"high","char":"L","transposition":-3,"order":["shifted","swapped"],"probe_pitches":[9,7,4,2,-3,2,9,4,-3,4,-1,7],"shifted_pitches":[9,7,4,2,-3,2,10,4,-3,4,-1,7],"swapped_pitches":[9,7,4,2,-3,9,2,4,-3,4,-1,7],"shift_direction":1,"question_num":171,"has_decoy":false},{"rt":4702.19999999553,"stimulus":"[A] option 1, [L] option 2, [G] neither","key_press":65,"name":"choice","trial_type":"html-keyboard-response","trial_index":208,"time_elapsed":431600,"internal_node_id":"0.0-208.0","subject":"S1C1230","sona":"41683","block":4,"time":"2021-09-17T23:29:10.109Z","response":"1st","certainty":"high","char":"A","transposition":3,"order":["swapped","shifted"],"probe_pitches":[9,7,2,4,2,4,7,-1,9,2,7,2],"shifted_pitches":[9,7,2,4,2,5,7,-1,9,2,7,2],"swapped_pitches":[9,7,2,4,2,7,4,-1,9,2,7,2],"shift_direction":1,"question_num":181,"has_decoy":false},{"rt":1513.8999999985099,"stimulus":"[A] option 1, [L] option 2, [G] neither","key_press":76,"name":"choice","trial_type":"html-keyboard-response","trial_index":219,"time_elapsed":452504,"internal_node_id":"0.0-219.0","subject":"S1C1230","sona":"41683","block":4,"time":"2021-09-17T23:29:10.109Z","response":"2nd","certainty":"high","char":"L","transposition":0,"order":["shifted","swapped"],"probe_pitches":[2,3,0,5,-2,8,-1,0,4,0,5,7],"shifted_pitches":[2,3,0,5,-2,9,-1,0,4,0,5,7],"swapped_pitches":[2,3,0,5,-2,-1,8,0,4,0,5,7],"shift_direction":1,"question_num":191,"has_decoy":false}]