[{"rt":5132.60000000149,"stimulus":"[A] option 1, [L] option 2, [G] neither","key_press":65,"name":"choice","trial_type":"html-keyboard-response","trial_index":10,"time_elapsed":26191,"internal_node_id":"0.0-10.0","subject":"S1C1230","sona":"41683","block":6,"time":"2021-09-17T23:45:40.792Z","response":"1st","certainty":"high","char":"A","transposition":-3,"order":["swapped","shifted"],"probe_pitches":[11,8,7,8,11,1,10,3,2,8,7,1],"shifted_pitches":[11,8,7,8,11,0,10,3,2,8,7,1],"swapped_pitches":[11,8,7,8,11,10,1,3,2,8,7,1],"shift_direction":-1,"question_num":1,"has_decoy":false},{"rt":1205.8999999985099,"stimulus":"[A] option 1, [L] option 2, [G] neither","key_press":65,"name":"choice","trial_type":"html-keyboard-response","trial_index":21,"time_elapsed":46142,"internal_node_id":"0.0-21.0","subject":"S1C1230","sona":"41683","block":6,"time":"2021-09-17T23:45:40.792Z","response":"1st","certainty":"high","char":"A","transposition":-1,"order":["swapped","shifted"],"probe_pitches":[7,2,1,9,6,11,3,4,3,8,1,7],"shifted_pitches":[7,2,1,9,6,10,3,4,3,8,1,7],"swapped_pitches":[7,2,1,9,6,3,11,4,3,8,1,7],"shift_direction":-1,"question_num":11,"has_decoy":false},{"rt":1384.7999999970198,"stimulus":"[A] option 1, [L] option 2, [G] neither","key_press":65,"name":"choice","trial_type":"html-keyboard-response","trial_index":32,"time_elapsed":68482,"internal_node_id":"0.0-32.0","subject":"S1C1230","sona":"41683","block":6,"time":"2021-09-17T23:45:40.792Z","response":"1st","certainty":"high","char":"A","transposition":-1,"order":["shifted","swapped"],"probe_pitches":[7,3,0,3,7,5,0,3,0,7,0,10],"shifted_pitches":[7,3,0,3,7,5,-1,3,0,7,0,10],"swapped_pitches":[7,3,0,3,7,0,5,3,0,7,0,10],"shift_direction":-1,"question_num":21,"has_decoy":false},{"rt":1548.8999999985099,"stimulus":"[A] option 1, [L] option 2, [G] neither","key_press":76,"name":"choice","trial_type":"html-keyboard-response","trial_index":43,"time_elapsed":89162,"internal_node_id":"0.0-43.0","subject":"S1C1230","sona":"41683","block":6,"time":"2021-09-17T23:45:40.792Z","response":"2nd","certainty":"high","char":"L","transposition":-2,"order":["swapped","shifted"],"probe_pitches":[9,10,5,9,3,12,5,7,13,10,2,5],"shifted_pitches":[9,10,5,9,3,12,6,7,13,10,2,5],"swapped_pitches":[9,10,5,9,3,5,12,7,13,10,2,5],"shift_direction":1,"question_num":31,"has_decoy":false},{"rt":1747.5,"stimulus":"[A] option 1, [L] option 2, [G] neither","key_press":71,"name":"choice","trial_type":"html-keyboard-response","trial_index":54,"time_elapsed":109907,"internal_node_id":"0.0-54.0","subject":"S1C1230","sona":"41683","block":6,"time":"2021-09-17T23:45:40.792Z","response":"neither","certainty":"high","char":"G","transposition":-1,"order":["swapped","shifted"],"probe_pitches":[8,5,0,5,0,8,5,12,5,10,3,10],"shifted_pitches":[8,5,0,5,0,8,6,12,5,10,3,10],"swapped_pitches":[8,5,0,5,0,5,8,12,5,10,3,10],"shift_direction":1,"question_num":41,"has_decoy":false},{"rt":5708,"stimulus":"[A] option 1, [L] option 2, [G] neither","key_press":76,"name":"choice","trial_type":"html-keyboard-response","trial_index":65,"time_elapsed":135152,"internal_node_id":"0.0-65.0","subject":"S1C1230","sona":"41683","block":6,"time":"2021-09-17T23:45:40.792Z","response":"2nd","certainty":"high","char":"L","transposition":2,"order":["shifted","swapped"],"probe_pitches":[12,10,12,6,3,2,12,1,9,6,1,6],"shifted_pitches":[12,10,12,6,3,2,11,1,9,6,1,6],"swapped_pitches":[12,10,12,6,3,12,2,1,9,6,1,6],"shift_direction":-1,"question_num":51,"has_decoy":false},{"rt":3157.60000000149,"stimulus":"[A] option 1, [L] option 2, [G] neither","key_press":65,"name":"choice","trial_type":"html-keyboard-response","trial_index":76,"time_elapsed":157706,"internal_node_id":"0.0-76.0","subject":"S1C1230","sona":"41683","block":6,"time":"2021-09-17T23:45:40.792Z","response":"1st","certainty":"high","char":"A","transposition":-2,"order":["swapped","shifted"],"probe_pitches":[4,3,8,10,3,10,6,8,11,5,8,4],"shifted_pitches":[4,3,8,10,3,10,7,8,11,5,8,4],"swapped_pitches":[4,3,8,10,3,6,10,8,11,5,8,4],"shift_direction":1,"question_num":61,"has_decoy":false},{"rt":11062.09999999404,"stimulus":"[A] option 1, [L] option 2, [G] neither","key_press":65,"name":"choice","trial_type":"html-keyboard-response","trial_index":87,"time_elapsed":196646,"internal_node_id":"0.0-87.0","subject":"S1C1230","sona":"41683","block":6,"time":"2021-09-17T23:45:40.792Z","response":"1st","certainty":"high","char":"A","transposition":-3,"order":["shifted","swapped"],"probe_pitches":[12,10,7,5,3,10,5,0,12,3,5,0],"shifted_pitches":[12,10,7,5,3,9,5,0,12,3,5,0],"swapped_pitches":[12,10,7,5,3,5,10,0,12,3,5,0],"shift_direction":-1,"question_num":71,"has_decoy":false},{"rt":1956,"stimulus":"[A] option 1, [L] option 2, [G] neither","key_press":65,"name":"choice","trial_type":"html-keyboard-response","trial_index":98,"time_elapsed":222047,"internal_node_id":"0.0-98.0","subject":"S1C1230","sona":"41683","block":6,"time":"2021-09-17T23:45:40.792Z","response":"1st","certainty":"high","char":"A","transposition":1,"order":["shifted","swapped"],"probe_pitches":[0,5,7,5,0,2,5,12,7,12,10,0],"shifted_pitches":[0,5,7,5,0,3,5,12,7,12,10,0],"swapped_pitches":[0,5,7,5,0,5,2,12,7,12,10,0],"shift_direction":1,"question_num":81,"has_decoy":false},{"rt":4330.39999999851,"stimulus":"[A] option 1, [L] option 2, [G] neither","key_press":65,"name":"choice","trial_type":"html-keyboard-response","trial_index":109,"time_elapsed":246565,"internal_node_id":"0.0-109.0","subject":"S1C1230","sona":"41683","block":6,"time":"2021-09-17T23:45:40.792Z","response":"1st","certainty":"high","char":"A","transposition":-2,"order":["shifted","swapped"],"probe_pitches":[9,12,7,2,7,9,5,0,5,7,12,0],"shifted_pitches":[9,12,7,2,7,9,6,0,5,7,12,0],"swapped_pitches":[9,12,7,2,7,5,9,0,5,7,12,0],"shift_direction":1,"question_num":91,"has_decoy":false},{"rt":1778.2000000029802,"stimulus":"[A] option 1, [L] option 2, [G] neither","key_press":76,"name":"choice","trial_type":"html-keyboard-response","trial_index":120,"time_elapsed":271251,"internal_node_id":"0.0-120.0","subject":"S1C1230","sona":"41683","block":6,"time":"2021-09-17T23:45:40.792Z","response":"2nd","certainty":"high","char":"L","transposition":2,"order":["swapped","shifted"],"probe_pitches":[5,7,2,0,5,7,2,5,2,10,7,12],"shifted_pitches":[5,7,2,0,5,7,3,5,2,10,7,12],"swapped_pitches":[5,7,2,0,5,2,7,5,2,10,7,12],"shift_direction":1,"question_num":101,"has_decoy":false},{"rt":1905.1999999955297,"stimulus":"[A] option 1, [L] option 2, [G] neither","key_press":71,"name":"choice","trial_type":"html-keyboard-response","trial_index":131,"time_elapsed":295267,"internal_node_id":"0.0-131.0","subject":"S1C1230","sona":"41683","block":6,"time":"2021-09-17T23:45:40.792Z","response":"neither","certainty":"high","char":"G","transposition":3,"order":["swapped","shifted"],"probe_pitches":[9,12,9,4,7,0,2,7,12,2,0,2],"shifted_pitches":[9,12,9,4,7,-1,2,7,12,2,0,2],"swapped_pitches":[9,12,9,4,7,2,0,7,12,2,0,2],"shift_direction":-1,"question_num":111,"has_decoy":false},{"rt":4235.70000000298,"stimulus":"[A] option 1, [L] option 2, [G] neither","key_press":65,"name":"choice","trial_type":"html-keyboard-response","trial_index":142,"time_elapsed":321319,"internal_node_id":"0.0-142.0","subject":"S1C1230","sona":"41683","block":6,"time":"2021-09-17T23:45:40.792Z","response":"1st","certainty":"high","char":"A","transposition":-1,"order":["swapped","shifted"],"probe_pitches":[1,5,1,3,9,1,7,13,3,9,11,12],"shifted_pitches":[1,5,1,3,9,1,8,13,3,9,11,12],"swapped_pitches":[1,5,1,3,9,7,1,13,3,9,11,12],"shift_direction":1,"question_num":121,"has_decoy":false},{"rt":3871.10000000149,"stimulus":"[A] option 1, [L] option 2, [G] neither","key_press":71,"name":"choice","trial_type":"html-keyboard-response","trial_index":153,"time_elapsed":349772,"internal_node_id":"0.0-153.0","subject":"S1C1230","sona":"41683","block":6,"time":"2021-09-17T23:45:40.792Z","response":"neither","certainty":"high","char":"G","transposition":3,"order":["shifted","swapped"],"probe_pitches":[2,3,1,8,13,8,10,7,4,3,13,5],"shifted_pitches":[2,3,1,8,13,9,10,7,4,3,13,5],"swapped_pitches":[2,3,1,8,13,10,8,7,4,3,13,5],"shift_direction":1,"question_num":131,"has_decoy":false},{"rt":2937.8000000044703,"stimulus":"[A] option 1, [L] option 2, [G] neither","key_press":76,"name":"choice","trial_type":"html-keyboard-response","trial_index":164,"time_elapsed":376476,"internal_node_id":"0.0-164.0","subject":"S1C1230","sona":"41683","block":6,"time":"2021-09-17T23:45:40.792Z","response":"2nd","certainty":"high","char":"L","transposition":0,"order":["swapped","shifted"],"probe_pitches":[2,5,12,9,7,12,5,0,5,0,2,0],"shifted_pitches":[2,5,12,9,7,11,5,0,5,0,2,0],"swapped_pitches":[2,5,12,9,7,5,12,0,5,0,2,0],"shift_direction":-1,"question_num":141,"has_decoy":false},{"rt":1915,"stimulus":"[A] option 1, [L] option 2, [G] neither","key_press":76,"name":"choice","trial_type":"html-keyboard-response","trial_index":175,"time_elapsed":400062,"internal_node_id":"0.0-175.0","subject":"S1C1230","sona":"41683","block":6,"time":"2021-09-17T23:45:40.792Z","response":"2nd","certainty":"high","char":"L","transposition":-3,"order":["shifted","swapped"],"probe_pitches":[1,5,4,8,12,4,1,13,7,5,1,7],"shifted_pitches":[1,5,4,8,12,3,1,13,7,5,1,7],"swapped_pitches":[1,5,4,8,12,1,4,13,7,5,1,7],"shift_direction":-1,"question_num":151,"has_decoy":false},{"rt":4259,"stimulus":"[A] option 1, [L] option 2, [G] neither","key_press":76,"name":"choice","trial_type":"html-keyboard-response","trial_index":186,"time_elapsed":424982,"internal_node_id":"0.0-186.0","subject":"S1C1230","sona":"41683","block":6,"time":"2021-09-17T23:45:40.792Z","response":"2nd","certainty":"high","char":"L","transposition":0,"order":["shifted","swapped"],"probe_pitches":[12,6,12,6,12,10,3,1,6,1,5,3],"shifted_pitches":[12,6,12,6,12,10,4,1,6,1,5,3],"swapped_pitches":[12,6,12,6,12,3,10,1,6,1,5,3],"shift_direction":1,"question_num":161,"has_decoy":false},{"rt":7521.39999999851,"stimulus":"[A] option 1, [L] option 2, [G] neither","key_press":65,"name":"choice","trial_type":"html-keyboard-response","trial_index":197,"time_elapsed":456421,"internal_node_id":"0.0-197.0","subject":"S1C1230","sona":"41683","block":6,"time":"2021-09-17T23:45:40.792Z","response":"1st","certainty":"high","char":"A","transposition":1,"order":["shifted","swapped"],"probe_pitches":[9,7,10,13,10,6,13,1,2,11,2,9],"shifted_pitches":[9,7,10,13,10,5,13,1,2,11,2,9],"swapped_pitches":[9,7,10,13,10,13,6,1,2,11,2,9],"shift_direction":-1,"question_num":171,"has_decoy":false},{"rt":5561.60000000149,"stimulus":"[A] option 1, [L] option 2, [G] neither","key_press":76,"name":"choice","trial_type":"html-keyboard-response","trial_index":208,"time_elapsed":485433,"internal_node_id":"0.0-208.0","subject":"S1C1230","sona":"41683","block":6,"time":"2021-09-17T23:45:40.792Z","response":"2nd","certainty":"high","char":"L","transposition":-3,"order":["shifted","swapped"],"probe_pitches":[4,0,4,2,9,12,4,7,9,2,7,9],"shifted_pitches":[4,0,4,2,9,11,4,7,9,2,7,9],"swapped_pitches":[4,0,4,2,9,4,12,7,9,2,7,9],"shift_direction":-1,"question_num":181,"has_decoy":false},{"rt":2768.89999999851,"stimulus":"[A] option 1, [L] option 2, [G] neither","key_press":76,"name":"choice","trial_type":"html-keyboard-response","trial_index":219,"time_elapsed":514843,"internal_node_id":"0.0-219.0","subject":"S1C1230","sona":"41683","block":6,"time":"2021-09-17T23:45:40.792Z","response":"2nd","certainty":"high","char":"L","transposition":-2,"order":["swapped","shifted"],"probe_pitches":[0,3,10,8,12,8,10,5,12,8,5,10],"shifted_pitches":[0,3,10,8,12,8,11,5,12,8,5,10],"swapped_pitches":[0,3,10,8,12,10,8,5,12,8,5,10],"shift_direction":1,"question_num":191,"has_decoy":false}]