[{"rt":1526.1000000014901,"stimulus":"[A] option 1, [L] option 2, [G] neither","key_press":76,"name":"choice","trial_type":"html-keyboard-response","trial_index":10,"time_elapsed":23826,"internal_node_id":"0.0-10.0","subject":"S1C1230","sona":"41683","block":5,"time":"2021-09-17T23:37:01.561Z","response":"2nd","certainty":"high","char":"L","transposition":-1,"order":["swapped","shifted"],"probe_pitches":[0,2,0,2,0,5,7,0,9,7,9,2],"shifted_pitches":[0,2,0,2,0,5,6,0,9,7,9,2],"swapped_pitches":[0,2,0,2,0,7,5,0,9,7,9,2],"shift_direction":-1,"question_num":1,"has_decoy":false},{"rt":1494.2999999970198,"stimulus":"[A] option 1, [L] option 2, [G] neither","key_press":65,"name":"choice","trial_type":"html-keyboard-response","trial_index":21,"time_elapsed":46361,"internal_node_id":"0.0-21.0","subject":"S1C1230","sona":"41683","block":5,"time":"2021-09-17T23:37:01.561Z","response":"1st","certainty":"high","char":"A","transposition":3,"order":["shifted","swapped"],"probe_pitches":[5,3,9,2,4,6,2,11,10,2,9,3],"shifted_pitches":[5,3,9,2,4,7,2,11,10,2,9,3],"swapped_pitches":[5,3,9,2,4,2,6,11,10,2,9,3],"shift_direction":1,"question_num":11,"has_decoy":false},{"rt":1319,"stimulus":"[A] option 1, [L] option 2, [G] neither","key_press":71,"name":"choice","trial_type":"html-keyboard-response","trial_index":32,"time_elapsed":70151,"internal_node_id":"0.0-32.0","subject":"S1C1230","sona":"41683","block":5,"time":"2021-09-17T23:37:01.561Z","response":"neither","certainty":"high","char":"G","transposition":2,"order":["swapped","shifted"],"probe_pitches":[5,8,6,7,12,10,13,14,4,14,11,3],"shifted_pitches":[5,8,6,7,12,9,13,14,4,14,11,3],"swapped_pitches":[5,8,6,7,12,13,10,14,4,14,11,3],"shift_direction":-1,"question_num":21,"has_decoy":false},{"rt":14482.70000000298,"stimulus":"[A] option 1, [L] option 2, [G] neither","key_press":65,"name":"choice","trial_type":"html-keyboard-response","trial_index":43,"time_elapsed":107481,"internal_node_id":"0.0-43.0","subject":"S1C1230","sona":"41683","block":5,"time":"2021-09-17T23:37:01.561Z","response":"1st","certainty":"high","char":"A","transposition":1,"order":["shifted","swapped"],"probe_pitches":[7,5,12,5,12,2,10,12,7,2,7,2],"shifted_pitches":[7,5,12,5,12,1,10,12,7,2,7,2],"swapped_pitches":[7,5,12,5,12,10,2,12,7,2,7,2],"shift_direction":-1,"question_num":31,"has_decoy":false},{"rt":1554.1000000014901,"stimulus":"[A] option 1, [L] option 2, [G] neither","key_press":76,"name":"choice","trial_type":"html-keyboard-response","trial_index":54,"time_elapsed":128802,"internal_node_id":"0.0-54.0","subject":"S1C1230","sona":"41683","block":5,"time":"2021-09-17T23:37:01.561Z","response":"2nd","certainty":"high","char":"L","transposition":-3,"order":["swapped","shifted"],"probe_pitches":[10,8,3,11,7,10,5,2,7,12,8,14],"shifted_pitches":[10,8,3,11,7,10,6,2,7,12,8,14],"swapped_pitches":[10,8,3,11,7,5,10,2,7,12,8,14],"shift_direction":1,"question_num":41,"has_decoy":false},{"rt":1828,"stimulus":"[A] option 1, [L] option 2, [G] neither","key_press":65,"name":"choice","trial_type":"html-keyboard-response","trial_index":65,"time_elapsed":150932,"internal_node_id":"0.0-65.0","subject":"S1C1230","sona":"41683","block":5,"time":"2021-09-17T23:37:01.561Z","response":"1st","certainty":"high","char":"A","transposition":-2,"order":["shifted","swapped"],"probe_pitches":[7,11,8,10,3,13,5,3,12,7,11,9],"shifted_pitches":[7,11,8,10,3,13,4,3,12,7,11,9],"swapped_pitches":[7,11,8,10,3,5,13,3,12,7,11,9],"shift_direction":-1,"question_num":51,"has_decoy":false},{"rt":1810.6999999955297,"stimulus":"[A] option 1, [L] option 2, [G] neither","key_press":76,"name":"choice","trial_type":"html-keyboard-response","trial_index":76,"time_elapsed":172868,"internal_node_id":"0.0-76.0","subject":"S1C1230","sona":"41683","block":5,"time":"2021-09-17T23:37:01.561Z","response":"2nd","certainty":"high","char":"L","transposition":-1,"order":["shifted","swapped"],"probe_pitches":[12,8,6,2,10,12,2,6,10,11,6,8],"shifted_pitches":[12,8,6,2,10,12,1,6,10,11,6,8],"swapped_pitches":[12,8,6,2,10,2,12,6,10,11,6,8],"shift_direction":-1,"question_num":61,"has_decoy":false},{"rt":1471.1999999955297,"stimulus":"[A] option 1, [L] option 2, [G] neither","key_press":76,"name":"choice","trial_type":"html-keyboard-response","trial_index":87,"time_elapsed":195840,"internal_node_id":"0.0-87.0","subject":"S1C1230","sona":"41683","block":5,"time":"2021-09-17T23:37:01.561Z","response":"2nd","certainty":"high","char":"L","transposition":2,"order":["swapped","shifted"],"probe_pitches":[3,5,12,10,7,10,5,7,5,0,10,0],"shifted_pitches":[3,5,12,10,7,10,6,7,5,0,10,0],"swapped_pitches":[3,5,12,10,7,5,10,7,5,0,10,0],"shift_direction":1,"question_num":71,"has_decoy":false},{"rt":1518.8999999985099,"stimulus":"[A] option 1, [L] option 2, [G] neither","key_press":65,"name":"choice","trial_type":"html-keyboard-response","trial_index":98,"time_elapsed":216848,"internal_node_id":"0.0-98.0","subject":"S1C1230","sona":"41683","block":5,"time":"2021-09-17T23:37:01.561Z","response":"1st","certainty":"high","char":"A","transposition":-2,"order":["shifted","swapped"],"probe_pitches":[12,10,5,3,10,12,3,0,12,8,5,0],"shifted_pitches":[12,10,5,3,10,12,2,0,12,8,5,0],"swapped_pitches":[12,10,5,3,10,3,12,0,12,8,5,0],"shift_direction":-1,"question_num":81,"has_decoy":false},{"rt":1956.3999999985099,"stimulus":"[A] option 1, [L] option 2, [G] neither","key_press":71,"name":"choice","trial_type":"html-keyboard-response","trial_index":109,"time_elapsed":238022,"internal_node_id":"0.0-109.0","subject":"S1C1230","sona":"41683","block":5,"time":"2021-09-17T23:37:01.561Z","response":"neither","certainty":"high","char":"G","transposition":-3,"order":["shifted","swapped"],"probe_pitches":[10,5,12,8,12,8,10,0,8,10,3,12],"shifted_pitches":[10,5,12,8,12,9,10,0,8,10,3,12],"swapped_pitches":[10,5,12,8,12,10,8,0,8,10,3,12],"shift_direction":1,"question_num":91,"has_decoy":false},{"rt":1758.3999999985099,"stimulus":"[A] option 1, [L] option 2, [G] neither","key_press":76,"name":"choice","trial_type":"html-keyboard-response","trial_index":120,"time_elapsed":258864,"internal_node_id":"0.0-120.0","subject":"S1C1230","sona":"41683","block":5,"time":"2021-09-17T23:37:01.561Z","response":"2nd","certainty":"high","char":"L","transposition":-1,"order":["swapped","shifted"],"probe_pitches":[3,5,3,10,3,10,12,5,7,12,0,10],"shifted_pitches":[3,5,3,10,3,10,13,5,7,12,0,10],"swapped_pitches":[3,5,3,10,3,12,10,5,7,12,0,10],"shift_direction":1,"question_num":101,"has_decoy":false},{"rt":1547,"stimulus":"[A] option 1, [L] option 2, [G] neither","key_press":71,"name":"choice","trial_type":"html-keyboard-response","trial_index":131,"time_elapsed":280270,"internal_node_id":"0.0-131.0","subject":"S1C1230","sona":"41683","block":5,"time":"2021-09-17T23:37:01.561Z","response":"neither","certainty":"high","char":"G","transposition":-3,"order":["shifted","swapped"],"probe_pitches":[7,2,7,2,9,0,2,4,0,7,2,9],"shifted_pitches":[7,2,7,2,9,0,1,4,0,7,2,9],"swapped_pitches":[7,2,7,2,9,2,0,4,0,7,2,9],"shift_direction":-1,"question_num":111,"has_decoy":false},{"rt":1554.1999999955297,"stimulus":"[A] option 1, [L] option 2, [G] neither","key_press":76,"name":"choice","trial_type":"html-keyboard-response","trial_index":142,"time_elapsed":301925,"internal_node_id":"0.0-142.0","subject":"S1C1230","sona":"41683","block":5,"time":"2021-09-17T23:37:01.561Z","response":"2nd","certainty":"high","char":"L","transposition":-3,"order":["shifted","swapped"],"probe_pitches":[4,7,8,12,6,10,5,4,10,5,14,2],"shifted_pitches":[4,7,8,12,6,11,5,4,10,5,14,2],"swapped_pitches":[4,7,8,12,6,5,10,4,10,5,14,2],"shift_direction":1,"question_num":121,"has_decoy":false},{"rt":8442.60000000149,"stimulus":"[A] option 1, [L] option 2, [G] neither","key_press":76,"name":"choice","trial_type":"html-keyboard-response","trial_index":153,"time_elapsed":330205,"internal_node_id":"0.0-153.0","subject":"S1C1230","sona":"41683","block":5,"time":"2021-09-17T23:37:01.561Z","response":"2nd","certainty":"high","char":"L","transposition":-2,"order":["swapped","shifted"],"probe_pitches":[2,6,3,11,10,12,7,3,14,2,10,6],"shifted_pitches":[2,6,3,11,10,12,8,3,14,2,10,6],"swapped_pitches":[2,6,3,11,10,7,12,3,14,2,10,6],"shift_direction":1,"question_num":131,"has_decoy":false},{"rt":1456.5,"stimulus":"[A] option 1, [L] option 2, [G] neither","key_press":65,"name":"choice","trial_type":"html-keyboard-response","trial_index":164,"time_elapsed":351812,"internal_node_id":"0.0-164.0","subject":"S1C1230","sona":"41683","block":5,"time":"2021-09-17T23:37:01.561Z","response":"1st","certainty":"high","char":"A","transposition":-1,"order":["swapped","shifted"],"probe_pitches":[11,9,6,2,5,11,4,8,2,8,13,14],"shifted_pitches":[11,9,6,2,5,10,4,8,2,8,13,14],"swapped_pitches":[11,9,6,2,5,4,11,8,2,8,13,14],"shift_direction":-1,"question_num":141,"has_decoy":false},{"rt":5060.39999999851,"stimulus":"[A] option 1, [L] option 2, [G] neither","key_press":76,"name":"choice","trial_type":"html-keyboard-response","trial_index":175,"time_elapsed":380835,"internal_node_id":"0.0-175.0","subject":"S1C1230","sona":"41683","block":5,"time":"2021-09-17T23:37:01.561Z","response":"2nd","certainty":"high","char":"L","transposition":0,"order":["swapped","shifted"],"probe_pitches":[7,10,7,12,10,5,0,7,10,0,7,2],"shifted_pitches":[7,10,7,12,10,6,0,7,10,0,7,2],"swapped_pitches":[7,10,7,12,10,0,5,7,10,0,7,2],"shift_direction":1,"question_num":151,"has_decoy":false},{"rt":1452.2999999970198,"stimulus":"[A] option 1, [L] option 2, [G] neither","key_press":65,"name":"choice","trial_type":"html-keyboard-response","trial_index":186,"time_elapsed":403152,"internal_node_id":"0.0-186.0","subject":"S1C1230","sona":"41683","block":5,"time":"2021-09-17T23:37:01.561Z","response":"1st","certainty":"high","char":"A","transposition":-2,"order":["swapped","shifted"],"probe_pitches":[7,4,2,9,12,7,0,4,2,9,0,2],"shifted_pitches":[7,4,2,9,12,6,0,4,2,9,0,2],"swapped_pitches":[7,4,2,9,12,0,7,4,2,9,0,2],"shift_direction":-1,"question_num":161,"has_decoy":false},{"rt":1776.6000000014901,"stimulus":"[A] option 1, [L] option 2, [G] neither","key_press":65,"name":"choice","trial_type":"html-keyboard-response","trial_index":197,"time_elapsed":424352,"internal_node_id":"0.0-197.0","subject":"S1C1230","sona":"41683","block":5,"time":"2021-09-17T23:37:01.561Z","response":"1st","certainty":"high","char":"A","transposition":0,"order":["swapped","shifted"],"probe_pitches":[13,10,3,7,8,4,6,2,4,3,8,13],"shifted_pitches":[13,10,3,7,8,5,6,2,4,3,8,13],"swapped_pitches":[13,10,3,7,8,6,4,2,4,3,8,13],"shift_direction":1,"question_num":171,"has_decoy":false},{"rt":1482.3999999985099,"stimulus":"[A] option 1, [L] option 2, [G] neither","key_press":65,"name":"choice","trial_type":"html-keyboard-response","trial_index":208,"time_elapsed":446463,"internal_node_id":"0.0-208.0","subject":"S1C1230","sona":"41683","block":5,"time":"2021-09-17T23:37:01.561Z","response":"1st","certainty":"high","char":"A","transposition":3,"order":["shifted","swapped"],"probe_pitches":[2,7,9,5,12,9,5,12,7,2,7,5],"shifted_pitches":[2,7,9,5,12,10,5,12,7,2,7,5],"swapped_pitches":[2,7,9,5,12,5,9,12,7,2,7,5],"shift_direction":1,"question_num":181,"has_decoy":false},{"rt":1674.1000000014901,"stimulus":"[A] option 1, [L] option 2, [G] neither","key_press":65,"name":"choice","trial_type":"html-keyboard-response","trial_index":219,"time_elapsed":466895,"internal_node_id":"0.0-219.0","subject":"S1C1230","sona":"41683","block":5,"time":"2021-09-17T23:37:01.561Z","response":"1st","certainty":"high","char":"A","transposition":1,"order":["shifted","swapped"],"probe_pitches":[7,8,9,8,2,5,13,6,11,10,8,6],"shifted_pitches":[7,8,9,8,2,5,12,6,11,10,8,6],"swapped_pitches":[7,8,9,8,2,13,5,6,11,10,8,6],"shift_direction":-1,"question_num":191,"has_decoy":false}]