[{"rt":7772.9000000059605,"stimulus":"[A] option 1, [L] option 2, [G] neither","key_press":76,"name":"choice","trial_type":"html-keyboard-response","trial_index":10,"time_elapsed":32805,"internal_node_id":"0.0-10.0","subject":"S1C1623","sona":"41829","block":3,"time":"2021-09-19T01:51:29.104Z","response":"2nd","certainty":"high","char":"L","transposition":-3,"order":["shifted","swapped"],"probe_pitches":[5,2,7,5,14,7,12,10,7,2,12,5,14,2,5,12],"shifted_pitches":[5,2,7,5,14,7,12,9,7,2,12,5,14,2,5,12],"swapped_pitches":[5,2,7,5,14,7,12,7,10,2,12,5,14,2,5,12],"shift_direction":-1,"question_num":1,"has_decoy":false},{"rt":6268.700000017881,"stimulus":"[A] option 1, [L] option 2, [G] neither","key_press":76,"name":"choice","trial_type":"html-keyboard-response","trial_index":21,"time_elapsed":62655,"internal_node_id":"0.0-21.0","subject":"S1C1623","sona":"41829","block":3,"time":"2021-09-19T01:51:29.104Z","response":"2nd","certainty":"high","char":"L","transposition":-1,"order":["swapped","shifted"],"probe_pitches":[9,8,3,8,1,7,-2,3,4,-1,3,0,9,2,6,8],"shifted_pitches":[9,8,3,8,1,7,-2,3,5,-1,3,0,9,2,6,8],"swapped_pitches":[9,8,3,8,1,7,-2,4,3,-1,3,0,9,2,6,8],"shift_direction":1,"question_num":11,"has_decoy":false},{"rt":1124.0999999940395,"stimulus":"[A] option 1, [L] option 2, [G] neither","key_press":76,"name":"choice","trial_type":"html-keyboard-response","trial_index":32,"time_elapsed":88476,"internal_node_id":"0.0-32.0","subject":"S1C1623","sona":"41829","block":3,"time":"2021-09-19T01:51:29.104Z","response":"2nd","certainty":"high","char":"L","transposition":3,"order":["shifted","swapped"],"probe_pitches":[0,1,5,2,-1,2,-1,2,8,0,8,5,4,-1,-3,8],"shifted_pitches":[0,1,5,2,-1,2,-1,3,8,0,8,5,4,-1,-3,8],"swapped_pitches":[0,1,5,2,-1,2,-1,8,2,0,8,5,4,-1,-3,8],"shift_direction":1,"question_num":21,"has_decoy":false},{"rt":3151.2000000178814,"stimulus":"[A] option 1, [L] option 2, [G] neither","key_press":65,"name":"choice","trial_type":"html-keyboard-response","trial_index":43,"time_elapsed":114711,"internal_node_id":"0.0-43.0","subject":"S1C1623","sona":"41829","block":3,"time":"2021-09-19T01:51:29.104Z","response":"1st","certainty":"high","char":"A","transposition":3,"order":["swapped","shifted"],"probe_pitches":[7,9,7,4,9,2,9,14,11,2,7,14,7,9,4,14],"shifted_pitches":[7,9,7,4,9,2,9,14,12,2,7,14,7,9,4,14],"swapped_pitches":[7,9,7,4,9,2,9,11,14,2,7,14,7,9,4,14],"shift_direction":1,"question_num":31,"has_decoy":false},{"rt":1546,"stimulus":"[A] option 1, [L] option 2, [G] neither","key_press":76,"name":"choice","trial_type":"html-keyboard-response","trial_index":54,"time_elapsed":138455,"internal_node_id":"0.0-54.0","subject":"S1C1623","sona":"41829","block":3,"time":"2021-09-19T01:51:29.104Z","response":"2nd","certainty":"high","char":"L","transposition":2,"order":["swapped","shifted"],"probe_pitches":[4,-2,4,-3,2,5,9,8,2,1,8,-3,2,1,3,9],"shifted_pitches":[4,-2,4,-3,2,5,9,7,2,1,8,-3,2,1,3,9],"swapped_pitches":[4,-2,4,-3,2,5,9,2,8,1,8,-3,2,1,3,9],"shift_direction":-1,"question_num":41,"has_decoy":false},{"rt":2097.100000023842,"stimulus":"[A] option 1, [L] option 2, [G] neither","key_press":65,"name":"choice","trial_type":"html-keyboard-response","trial_index":65,"time_elapsed":163843,"internal_node_id":"0.0-65.0","subject":"S1C1623","sona":"41829","block":3,"time":"2021-09-19T01:51:29.104Z","response":"1st","certainty":"high","char":"A","transposition":0,"order":["shifted","swapped"],"probe_pitches":[9,5,-1,-3,5,-3,4,-3,9,-2,4,9,6,4,-1,7],"shifted_pitches":[9,5,-1,-3,5,-3,4,-4,9,-2,4,9,6,4,-1,7],"swapped_pitches":[9,5,-1,-3,5,-3,4,9,-3,-2,4,9,6,4,-1,7],"shift_direction":-1,"question_num":51,"has_decoy":false},{"rt":1529.5,"stimulus":"[A] option 1, [L] option 2, [G] neither","key_press":76,"name":"choice","trial_type":"html-keyboard-response","trial_index":76,"time_elapsed":188678,"internal_node_id":"0.0-76.0","subject":"S1C1623","sona":"41829","block":3,"time":"2021-09-19T01:51:29.104Z","response":"2nd","certainty":"high","char":"L","transposition":-1,"order":["swapped","shifted"],"probe_pitches":[8,4,-2,-1,-2,2,8,-2,0,-3,9,0,4,-2,5,4],"shifted_pitches":[8,4,-2,-1,-2,2,8,-2,1,-3,9,0,4,-2,5,4],"swapped_pitches":[8,4,-2,-1,-2,2,8,0,-2,-3,9,0,4,-2,5,4],"shift_direction":1,"question_num":61,"has_decoy":false},{"rt":2131.199999988079,"stimulus":"[A] option 1, [L] option 2, [G] neither","key_press":65,"name":"choice","trial_type":"html-keyboard-response","trial_index":87,"time_elapsed":213797,"internal_node_id":"0.0-87.0","subject":"S1C1623","sona":"41829","block":3,"time":"2021-09-19T01:51:29.104Z","response":"1st","certainty":"high","char":"A","transposition":-2,"order":["shifted","swapped"],"probe_pitches":[14,9,4,9,7,4,12,7,2,4,14,2,14,2,4,9],"shifted_pitches":[14,9,4,9,7,4,12,8,2,4,14,2,14,2,4,9],"swapped_pitches":[14,9,4,9,7,4,12,2,7,4,14,2,14,2,4,9],"shift_direction":1,"question_num":71,"has_decoy":false},{"rt":3363.4000000059605,"stimulus":"[A] option 1, [L] option 2, [G] neither","key_press":65,"name":"choice","trial_type":"html-keyboard-response","trial_index":98,"time_elapsed":241856,"internal_node_id":"0.0-98.0","subject":"S1C1623","sona":"41829","block":3,"time":"2021-09-19T01:51:29.104Z","response":"1st","certainty":"high","char":"A","transposition":-2,"order":["swapped","shifted"],"probe_pitches":[4,5,-2,6,8,6,4,3,-1,7,5,3,7,-1,9,4],"shifted_pitches":[4,5,-2,6,8,6,4,2,-1,7,5,3,7,-1,9,4],"swapped_pitches":[4,5,-2,6,8,6,4,-1,3,7,5,3,7,-1,9,4],"shift_direction":-1,"question_num":81,"has_decoy":false},{"rt":1822.4000000059605,"stimulus":"[A] option 1, [L] option 2, [G] neither","key_press":76,"name":"choice","trial_type":"html-keyboard-response","trial_index":109,"time_elapsed":266155,"internal_node_id":"0.0-109.0","subject":"S1C1623","sona":"41829","block":3,"time":"2021-09-19T01:51:29.104Z","response":"2nd","certainty":"high","char":"L","transposition":-1,"order":["swapped","shifted"],"probe_pitches":[2,4,11,4,9,6,9,14,4,11,2,4,11,14,9,4],"shifted_pitches":[2,4,11,4,9,6,9,14,5,11,2,4,11,14,9,4],"swapped_pitches":[2,4,11,4,9,6,9,4,14,11,2,4,11,14,9,4],"shift_direction":1,"question_num":91,"has_decoy":false},{"rt":3726.5,"stimulus":"[A] option 1, [L] option 2, [G] neither","key_press":76,"name":"choice","trial_type":"html-keyboard-response","trial_index":120,"time_elapsed":292565,"internal_node_id":"0.0-120.0","subject":"S1C1623","sona":"41829","block":3,"time":"2021-09-19T01:51:29.104Z","response":"2nd","certainty":"high","char":"L","transposition":-2,"order":["shifted","swapped"],"probe_pitches":[5,3,-1,4,9,3,8,1,6,8,6,4,5,3,9,6],"shifted_pitches":[5,3,-1,4,9,3,8,0,6,8,6,4,5,3,9,6],"swapped_pitches":[5,3,-1,4,9,3,8,6,1,8,6,4,5,3,9,6],"shift_direction":-1,"question_num":101,"has_decoy":false},{"rt":12210.100000023842,"stimulus":"[A] option 1, [L] option 2, [G] neither","key_press":71,"name":"choice","trial_type":"html-keyboard-response","trial_index":131,"time_elapsed":328461,"internal_node_id":"0.0-131.0","subject":"S1C1623","sona":"41829","block":3,"time":"2021-09-19T01:51:29.104Z","response":"neither","certainty":"high","char":"G","transposition":1,"order":["shifted","swapped"],"probe_pitches":[0,1,-3,1,0,5,2,-1,7,1,2,9,2,4,2,4],"shifted_pitches":[0,1,-3,1,0,5,2,-1,6,1,2,9,2,4,2,4],"swapped_pitches":[0,1,-3,1,0,5,2,7,-1,1,2,9,2,4,2,4],"shift_direction":-1,"question_num":111,"has_decoy":false},{"rt":1273.5,"stimulus":"[A] option 1, [L] option 2, [G] neither","key_press":76,"name":"choice","trial_type":"html-keyboard-response","trial_index":142,"time_elapsed":353621,"internal_node_id":"0.0-142.0","subject":"S1C1623","sona":"41829","block":3,"time":"2021-09-19T01:51:29.104Z","response":"2nd","certainty":"high","char":"L","transposition":-3,"order":["swapped","shifted"],"probe_pitches":[6,3,-2,6,-2,0,2,1,3,0,3,9,-2,6,1,-3],"shifted_pitches":[6,3,-2,6,-2,0,2,1,4,0,3,9,-2,6,1,-3],"swapped_pitches":[6,3,-2,6,-2,0,2,3,1,0,3,9,-2,6,1,-3],"shift_direction":1,"question_num":121,"has_decoy":false},{"rt":3327.800000011921,"stimulus":"[A] option 1, [L] option 2, [G] neither","key_press":71,"name":"choice","trial_type":"html-keyboard-response","trial_index":153,"time_elapsed":379643,"internal_node_id":"0.0-153.0","subject":"S1C1623","sona":"41829","block":3,"time":"2021-09-19T01:51:29.104Z","response":"neither","certainty":"high","char":"G","transposition":-3,"order":["shifted","swapped"],"probe_pitches":[12,7,14,7,12,7,12,9,5,7,2,5,7,12,14,9],"shifted_pitches":[12,7,14,7,12,7,12,9,6,7,2,5,7,12,14,9],"swapped_pitches":[12,7,14,7,12,7,12,5,9,7,2,5,7,12,14,9],"shift_direction":1,"question_num":131,"has_decoy":false},{"rt":1680.9000000059605,"stimulus":"[A] option 1, [L] option 2, [G] neither","key_press":76,"name":"choice","trial_type":"html-keyboard-response","trial_index":164,"time_elapsed":404471,"internal_node_id":"0.0-164.0","subject":"S1C1623","sona":"41829","block":3,"time":"2021-09-19T01:51:29.104Z","response":"2nd","certainty":"high","char":"L","transposition":2,"order":["swapped","shifted"],"probe_pitches":[14,12,7,9,14,4,9,14,2,9,12,9,7,14,9,4],"shifted_pitches":[14,12,7,9,14,4,9,15,2,9,12,9,7,14,9,4],"swapped_pitches":[14,12,7,9,14,4,9,2,14,9,12,9,7,14,9,4],"shift_direction":1,"question_num":141,"has_decoy":false},{"rt":2534.7999999821186,"stimulus":"[A] option 1, [L] option 2, [G] neither","key_press":65,"name":"choice","trial_type":"html-keyboard-response","trial_index":175,"time_elapsed":430658,"internal_node_id":"0.0-175.0","subject":"S1C1623","sona":"41829","block":3,"time":"2021-09-19T01:51:29.104Z","response":"1st","certainty":"high","char":"A","transposition":-3,"order":["shifted","swapped"],"probe_pitches":[2,8,9,3,2,-2,2,1,-2,0,7,-2,0,8,4,1],"shifted_pitches":[2,8,9,3,2,-2,2,1,-1,0,7,-2,0,8,4,1],"swapped_pitches":[2,8,9,3,2,-2,2,-2,1,0,7,-2,0,8,4,1],"shift_direction":1,"question_num":151,"has_decoy":false},{"rt":1883.5999999940395,"stimulus":"[A] option 1, [L] option 2, [G] neither","key_press":71,"name":"choice","trial_type":"html-keyboard-response","trial_index":186,"time_elapsed":455857,"internal_node_id":"0.0-186.0","subject":"S1C1623","sona":"41829","block":3,"time":"2021-09-19T01:51:29.104Z","response":"neither","certainty":"high","char":"G","transposition":1,"order":["swapped","shifted"],"probe_pitches":[4,7,2,9,4,7,4,2,7,11,7,11,7,11,2,14],"shifted_pitches":[4,7,2,9,4,7,4,1,7,11,7,11,7,11,2,14],"swapped_pitches":[4,7,2,9,4,7,4,7,2,11,7,11,7,11,2,14],"shift_direction":-1,"question_num":161,"has_decoy":false},{"rt":2872.800000011921,"stimulus":"[A] option 1, [L] option 2, [G] neither","key_press":71,"name":"choice","trial_type":"html-keyboard-response","trial_index":197,"time_elapsed":482009,"internal_node_id":"0.0-197.0","subject":"S1C1623","sona":"41829","block":3,"time":"2021-09-19T01:51:29.104Z","response":"neither","certainty":"high","char":"G","transposition":-1,"order":["shifted","swapped"],"probe_pitches":[12,14,7,5,12,7,5,7,14,2,14,7,14,5,2,10],"shifted_pitches":[12,14,7,5,12,7,5,6,14,2,14,7,14,5,2,10],"swapped_pitches":[12,14,7,5,12,7,5,14,7,2,14,7,14,5,2,10],"shift_direction":-1,"question_num":171,"has_decoy":false},{"rt":1223.2000000178814,"stimulus":"[A] option 1, [L] option 2, [G] neither","key_press":65,"name":"choice","trial_type":"html-keyboard-response","trial_index":208,"time_elapsed":506204,"internal_node_id":"0.0-208.0","subject":"S1C1623","sona":"41829","block":3,"time":"2021-09-19T01:51:29.104Z","response":"1st","certainty":"high","char":"A","transposition":-2,"order":["shifted","swapped"],"probe_pitches":[6,2,4,2,11,6,9,2,11,14,4,2,11,6,9,14],"shifted_pitches":[6,2,4,2,11,6,9,2,10,14,4,2,11,6,9,14],"swapped_pitches":[6,2,4,2,11,6,9,11,2,14,4,2,11,6,9,14],"shift_direction":-1,"question_num":181,"has_decoy":false},{"rt":2075.7000000178814,"stimulus":"[A] option 1, [L] option 2, [G] neither","key_press":76,"name":"choice","trial_type":"html-keyboard-response","trial_index":219,"time_elapsed":531734,"internal_node_id":"0.0-219.0","subject":"S1C1623","sona":"41829","block":3,"time":"2021-09-19T01:51:29.104Z","response":"2nd","certainty":"high","char":"L","transposition":0,"order":["swapped","shifted"],"probe_pitches":[7,9,14,9,5,14,7,12,5,9,5,12,5,9,12,5],"shifted_pitches":[7,9,14,9,5,14,7,12,4,9,5,12,5,9,12,5],"swapped_pitches":[7,9,14,9,5,14,7,5,12,9,5,12,5,9,12,5],"shift_direction":-1,"question_num":191,"has_decoy":false}]