[{"rt":1994.0999999940395,"stimulus":"[A] option 1, [L] option 2, [G] neither","key_press":65,"name":"choice","trial_type":"html-keyboard-response","trial_index":10,"time_elapsed":28327,"internal_node_id":"0.0-10.0","subject":"S1C1623","sona":"41829","block":2,"time":"2021-09-19T01:33:19.250Z","response":"1st","certainty":"high","char":"A","transposition":-3,"order":["shifted","swapped"],"probe_pitches":[2,6,9,4,6,9,2,11,-1,2,6,9,2,4,6,4],"shifted_pitches":[2,6,9,4,6,9,2,10,-1,2,6,9,2,4,6,4],"swapped_pitches":[2,6,9,4,6,9,2,-1,11,2,6,9,2,4,6,4],"shift_direction":-1,"question_num":1,"has_decoy":false},{"rt":2021.300000011921,"stimulus":"[A] option 1, [L] option 2, [G] neither","key_press":71,"name":"choice","trial_type":"html-keyboard-response","trial_index":21,"time_elapsed":53954,"internal_node_id":"0.0-21.0","subject":"S1C1623","sona":"41829","block":2,"time":"2021-09-19T01:33:19.250Z","response":"neither","certainty":"high","char":"G","transposition":-2,"order":["shifted","swapped"],"probe_pitches":[14,8,9,10,6,14,9,11,8,6,11,13,14,2,4,10],"shifted_pitches":[14,8,9,10,6,14,9,12,8,6,11,13,14,2,4,10],"swapped_pitches":[14,8,9,10,6,14,9,8,11,6,11,13,14,2,4,10],"shift_direction":1,"question_num":11,"has_decoy":false},{"rt":2537.199999988079,"stimulus":"[A] option 1, [L] option 2, [G] neither","key_press":65,"name":"choice","trial_type":"html-keyboard-response","trial_index":32,"time_elapsed":80640,"internal_node_id":"0.0-32.0","subject":"S1C1623","sona":"41829","block":2,"time":"2021-09-19T01:33:19.250Z","response":"1st","certainty":"high","char":"A","transposition":0,"order":["swapped","shifted"],"probe_pitches":[6,12,7,10,11,4,13,4,6,9,10,3,14,8,14,6],"shifted_pitches":[6,12,7,10,11,4,13,4,5,9,10,3,14,8,14,6],"swapped_pitches":[6,12,7,10,11,4,13,6,4,9,10,3,14,8,14,6],"shift_direction":-1,"question_num":21,"has_decoy":false},{"rt":1557.5999999940395,"stimulus":"[A] option 1, [L] option 2, [G] neither","key_press":76,"name":"choice","trial_type":"html-keyboard-response","trial_index":43,"time_elapsed":108167,"internal_node_id":"0.0-43.0","subject":"S1C1623","sona":"41829","block":2,"time":"2021-09-19T01:33:19.250Z","response":"2nd","certainty":"high","char":"L","transposition":0,"order":["swapped","shifted"],"probe_pitches":[11,9,7,2,11,7,4,2,7,4,11,7,4,11,-1,11],"shifted_pitches":[11,9,7,2,11,7,4,2,6,4,11,7,4,11,-1,11],"swapped_pitches":[11,9,7,2,11,7,4,7,2,4,11,7,4,11,-1,11],"shift_direction":-1,"question_num":31,"has_decoy":false},{"rt":3149.5999999940395,"stimulus":"[A] option 1, [L] option 2, [G] neither","key_press":65,"name":"choice","trial_type":"html-keyboard-response","trial_index":54,"time_elapsed":133881,"internal_node_id":"0.0-54.0","subject":"S1C1623","sona":"41829","block":2,"time":"2021-09-19T01:33:19.250Z","response":"1st","certainty":"high","char":"A","transposition":2,"order":["shifted","swapped"],"probe_pitches":[8,3,-1,3,1,3,8,6,-1,8,3,11,1,11,1,11],"shifted_pitches":[8,3,-1,3,1,3,8,6,0,8,3,11,1,11,1,11],"swapped_pitches":[8,3,-1,3,1,3,8,-1,6,8,3,11,1,11,1,11],"shift_direction":1,"question_num":41,"has_decoy":false},{"rt":4309.300000011921,"stimulus":"[A] option 1, [L] option 2, [G] neither","key_press":76,"name":"choice","trial_type":"html-keyboard-response","trial_index":65,"time_elapsed":161095,"internal_node_id":"0.0-65.0","subject":"S1C1623","sona":"41829","block":2,"time":"2021-09-19T01:33:19.250Z","response":"2nd","certainty":"high","char":"L","transposition":-1,"order":["shifted","swapped"],"probe_pitches":[-1,4,-1,6,4,-1,4,1,-1,11,9,11,-1,9,-1,9],"shifted_pitches":[-1,4,-1,6,4,-1,4,2,-1,11,9,11,-1,9,-1,9],"swapped_pitches":[-1,4,-1,6,4,-1,4,-1,1,11,9,11,-1,9,-1,9],"shift_direction":1,"question_num":51,"has_decoy":false},{"rt":578.7999999821186,"stimulus":"[A] option 1, [L] option 2, [G] neither","key_press":65,"name":"choice","trial_type":"html-keyboard-response","trial_index":76,"time_elapsed":184574,"internal_node_id":"0.0-76.0","subject":"S1C1623","sona":"41829","block":2,"time":"2021-09-19T01:33:19.250Z","response":"1st","certainty":"high","char":"A","transposition":1,"order":["shifted","swapped"],"probe_pitches":[6,3,1,3,-1,6,-1,3,11,-1,11,8,6,1,-1,11],"shifted_pitches":[6,3,1,3,-1,6,-1,3,12,-1,11,8,6,1,-1,11],"swapped_pitches":[6,3,1,3,-1,6,-1,11,3,-1,11,8,6,1,-1,11],"shift_direction":1,"question_num":61,"has_decoy":false},{"rt":2418,"stimulus":"[A] option 1, [L] option 2, [G] neither","key_press":65,"name":"choice","trial_type":"html-keyboard-response","trial_index":87,"time_elapsed":209597,"internal_node_id":"0.0-87.0","subject":"S1C1623","sona":"41829","block":2,"time":"2021-09-19T01:33:19.250Z","response":"1st","certainty":"high","char":"A","transposition":-2,"order":["swapped","shifted"],"probe_pitches":[1,4,11,6,-1,6,8,1,4,-1,8,11,4,1,-1,11],"shifted_pitches":[1,4,11,6,-1,6,8,0,4,-1,8,11,4,1,-1,11],"swapped_pitches":[1,4,11,6,-1,6,8,4,1,-1,8,11,4,1,-1,11],"shift_direction":-1,"question_num":71,"has_decoy":false},{"rt":1182.7999999821186,"stimulus":"[A] option 1, [L] option 2, [G] neither","key_press":76,"name":"choice","trial_type":"html-keyboard-response","trial_index":98,"time_elapsed":233567,"internal_node_id":"0.0-98.0","subject":"S1C1623","sona":"41829","block":2,"time":"2021-09-19T01:33:19.250Z","response":"2nd","certainty":"high","char":"L","transposition":-1,"order":["shifted","swapped"],"probe_pitches":[14,13,8,2,11,8,9,5,7,3,6,5,12,9,14,7],"shifted_pitches":[14,13,8,2,11,8,9,4,7,3,6,5,12,9,14,7],"swapped_pitches":[14,13,8,2,11,8,9,7,5,3,6,5,12,9,14,7],"shift_direction":-1,"question_num":81,"has_decoy":false},{"rt":1007,"stimulus":"[A] option 1, [L] option 2, [G] neither","key_press":76,"name":"choice","trial_type":"html-keyboard-response","trial_index":109,"time_elapsed":257562,"internal_node_id":"0.0-109.0","subject":"S1C1623","sona":"41829","block":2,"time":"2021-09-19T01:33:19.250Z","response":"2nd","certainty":"high","char":"L","transposition":-1,"order":["swapped","shifted"],"probe_pitches":[6,9,6,2,4,11,2,9,-1,11,2,11,9,11,9,6],"shifted_pitches":[6,9,6,2,4,11,2,9,0,11,2,11,9,11,9,6],"swapped_pitches":[6,9,6,2,4,11,2,-1,9,11,2,11,9,11,9,6],"shift_direction":1,"question_num":91,"has_decoy":false},{"rt":2111.7000000178814,"stimulus":"[A] option 1, [L] option 2, [G] neither","key_press":76,"name":"choice","trial_type":"html-keyboard-response","trial_index":120,"time_elapsed":282090,"internal_node_id":"0.0-120.0","subject":"S1C1623","sona":"41829","block":2,"time":"2021-09-19T01:33:19.250Z","response":"2nd","certainty":"high","char":"L","transposition":3,"order":["swapped","shifted"],"probe_pitches":[4,8,1,6,11,6,4,6,8,4,8,4,6,11,8,6],"shifted_pitches":[4,8,1,6,11,6,4,6,7,4,8,4,6,11,8,6],"swapped_pitches":[4,8,1,6,11,6,4,8,6,4,8,4,6,11,8,6],"shift_direction":-1,"question_num":101,"has_decoy":false},{"rt":3785,"stimulus":"[A] option 1, [L] option 2, [G] neither","key_press":71,"name":"choice","trial_type":"html-keyboard-response","trial_index":131,"time_elapsed":308553,"internal_node_id":"0.0-131.0","subject":"S1C1623","sona":"41829","block":2,"time":"2021-09-19T01:33:19.250Z","response":"neither","certainty":"high","char":"G","transposition":-3,"order":["shifted","swapped"],"probe_pitches":[3,8,9,4,2,5,2,14,7,5,9,14,12,7,2,13],"shifted_pitches":[3,8,9,4,2,5,2,14,6,5,9,14,12,7,2,13],"swapped_pitches":[3,8,9,4,2,5,2,7,14,5,9,14,12,7,2,13],"shift_direction":-1,"question_num":111,"has_decoy":false},{"rt":1823.0999999940395,"stimulus":"[A] option 1, [L] option 2, [G] neither","key_press":71,"name":"choice","trial_type":"html-keyboard-response","trial_index":142,"time_elapsed":334489,"internal_node_id":"0.0-142.0","subject":"S1C1623","sona":"41829","block":2,"time":"2021-09-19T01:33:19.250Z","response":"neither","certainty":"high","char":"G","transposition":3,"order":["swapped","shifted"],"probe_pitches":[7,12,8,14,6,13,6,3,9,4,5,4,13,3,4,2],"shifted_pitches":[7,12,8,14,6,13,6,3,10,4,5,4,13,3,4,2],"swapped_pitches":[7,12,8,14,6,13,6,9,3,4,5,4,13,3,4,2],"shift_direction":1,"question_num":121,"has_decoy":false},{"rt":5600,"stimulus":"[A] option 1, [L] option 2, [G] neither","key_press":71,"name":"choice","trial_type":"html-keyboard-response","trial_index":153,"time_elapsed":362757,"internal_node_id":"0.0-153.0","subject":"S1C1623","sona":"41829","block":2,"time":"2021-09-19T01:33:19.250Z","response":"neither","certainty":"high","char":"G","transposition":2,"order":["shifted","swapped"],"probe_pitches":[5,7,12,9,13,3,14,5,7,6,2,13,6,12,9,5],"shifted_pitches":[5,7,12,9,13,3,14,5,8,6,2,13,6,12,9,5],"swapped_pitches":[5,7,12,9,13,3,14,7,5,6,2,13,6,12,9,5],"shift_direction":1,"question_num":131,"has_decoy":false},{"rt":1413.0999999940395,"stimulus":"[A] option 1, [L] option 2, [G] neither","key_press":76,"name":"choice","trial_type":"html-keyboard-response","trial_index":164,"time_elapsed":386639,"internal_node_id":"0.0-164.0","subject":"S1C1623","sona":"41829","block":2,"time":"2021-09-19T01:33:19.250Z","response":"2nd","certainty":"high","char":"L","transposition":-2,"order":["swapped","shifted"],"probe_pitches":[9,6,1,4,1,6,4,9,11,1,4,-1,11,-1,6,11],"shifted_pitches":[9,6,1,4,1,6,4,8,11,1,4,-1,11,-1,6,11],"swapped_pitches":[9,6,1,4,1,6,4,11,9,1,4,-1,11,-1,6,11],"shift_direction":-1,"question_num":141,"has_decoy":false},{"rt":1472.9000000059605,"stimulus":"[A] option 1, [L] option 2, [G] neither","key_press":76,"name":"choice","trial_type":"html-keyboard-response","trial_index":175,"time_elapsed":412645,"internal_node_id":"0.0-175.0","subject":"S1C1623","sona":"41829","block":2,"time":"2021-09-19T01:33:19.250Z","response":"2nd","certainty":"high","char":"L","transposition":-3,"order":["shifted","swapped"],"probe_pitches":[14,13,8,6,14,12,5,6,11,13,8,12,10,4,13,5],"shifted_pitches":[14,13,8,6,14,12,5,7,11,13,8,12,10,4,13,5],"swapped_pitches":[14,13,8,6,14,12,5,11,6,13,8,12,10,4,13,5],"shift_direction":1,"question_num":151,"has_decoy":false},{"rt":1010.2999999821186,"stimulus":"[A] option 1, [L] option 2, [G] neither","key_press":71,"name":"choice","trial_type":"html-keyboard-response","trial_index":186,"time_elapsed":436385,"internal_node_id":"0.0-186.0","subject":"S1C1623","sona":"41829","block":2,"time":"2021-09-19T01:33:19.250Z","response":"neither","certainty":"high","char":"G","transposition":1,"order":["swapped","shifted"],"probe_pitches":[11,8,2,3,7,13,5,2,8,3,13,4,2,4,2,11],"shifted_pitches":[11,8,2,3,7,13,5,2,9,3,13,4,2,4,2,11],"swapped_pitches":[11,8,2,3,7,13,5,8,2,3,13,4,2,4,2,11],"shift_direction":1,"question_num":161,"has_decoy":false},{"rt":2204.7999999821186,"stimulus":"[A] option 1, [L] option 2, [G] neither","key_press":65,"name":"choice","trial_type":"html-keyboard-response","trial_index":197,"time_elapsed":461068,"internal_node_id":"0.0-197.0","subject":"S1C1623","sona":"41829","block":2,"time":"2021-09-19T01:33:19.250Z","response":"1st","certainty":"high","char":"A","transposition":-3,"order":["shifted","swapped"],"probe_pitches":[2,4,11,7,2,4,9,2,-1,7,4,-1,7,4,-1,2],"shifted_pitches":[2,4,11,7,2,4,9,3,-1,7,4,-1,7,4,-1,2],"swapped_pitches":[2,4,11,7,2,4,9,-1,2,7,4,-1,7,4,-1,2],"shift_direction":1,"question_num":171,"has_decoy":false},{"rt":2076.800000011921,"stimulus":"[A] option 1, [L] option 2, [G] neither","key_press":76,"name":"choice","trial_type":"html-keyboard-response","trial_index":208,"time_elapsed":485990,"internal_node_id":"0.0-208.0","subject":"S1C1623","sona":"41829","block":2,"time":"2021-09-19T01:33:19.250Z","response":"2nd","certainty":"high","char":"L","transposition":-1,"order":["swapped","shifted"],"probe_pitches":[8,6,5,13,8,10,8,12,9,8,13,4,5,14,8,9],"shifted_pitches":[8,6,5,13,8,10,8,11,9,8,13,4,5,14,8,9],"swapped_pitches":[8,6,5,13,8,10,8,9,12,8,13,4,5,14,8,9],"shift_direction":-1,"question_num":181,"has_decoy":false},{"rt":4813.5,"stimulus":"[A] option 1, [L] option 2, [G] neither","key_press":65,"name":"choice","trial_type":"html-keyboard-response","trial_index":219,"time_elapsed":514220,"internal_node_id":"0.0-219.0","subject":"S1C1623","sona":"41829","block":2,"time":"2021-09-19T01:33:19.250Z","response":"1st","certainty":"high","char":"A","transposition":-2,"order":["swapped","shifted"],"probe_pitches":[8,2,4,9,14,5,8,2,5,11,7,2,4,7,5,14],"shifted_pitches":[8,2,4,9,14,5,8,1,5,11,7,2,4,7,5,14],"swapped_pitches":[8,2,4,9,14,5,8,5,2,11,7,2,4,7,5,14],"shift_direction":-1,"question_num":191,"has_decoy":false}]