[{"rt":8475.5,"stimulus":"[A] option 1, [L] option 2, [G] neither","key_press":76,"name":"choice","trial_type":"html-keyboard-response","trial_index":15,"time_elapsed":74641,"internal_node_id":"0.0-15.0","response":"2nd","certainty":"high","char":"L","transposition":-3,"order":["swapped","shifted"],"probe_pitches":[3,8,13,15,6,3,10,3,6,13,15,13,8,6,13,8],"shifted_pitches":[3,8,13,15,6,3,10,3,5,13,15,13,8,6,13,8],"swapped_pitches":[3,8,13,15,6,3,10,6,3,13,15,13,8,6,13,8],"shift_direction":-1,"question_num":1,"has_decoy":false,"subject":"S1C1623","sona":"41829","block":1,"time":"2021-09-19T01:22:51.164Z"},{"rt":8824.5,"stimulus":"[A] option 1, [L] option 2, [G] neither","key_press":76,"name":"choice","trial_type":"html-keyboard-response","trial_index":26,"time_elapsed":111464,"internal_node_id":"0.0-26.0","response":"2nd","certainty":"high","char":"L","transposition":3,"order":["swapped","shifted"],"probe_pitches":[12,10,9,11,10,12,3,12,6,11,6,3,4,11,14,11],"shifted_pitches":[12,10,9,11,10,12,3,12,5,11,6,3,4,11,14,11],"swapped_pitches":[12,10,9,11,10,12,3,6,12,11,6,3,4,11,14,11],"shift_direction":-1,"question_num":11,"has_decoy":false,"subject":"S1C1623","sona":"41829","block":1,"time":"2021-09-19T01:22:51.164Z"},{"rt":2544,"stimulus":"[A] option 1, [L] option 2, [G] neither","key_press":65,"name":"choice","trial_type":"html-keyboard-response","trial_index":37,"time_elapsed":138031,"internal_node_id":"0.0-37.0","response":"1st","certainty":"high","char":"A","transposition":-2,"order":["swapped","shifted"],"probe_pitches":[10,12,5,10,8,10,8,3,12,11,6,4,7,14,5,11],"shifted_pitches":[10,12,5,10,8,10,8,3,13,11,6,4,7,14,5,11],"swapped_pitches":[10,12,5,10,8,10,8,12,3,11,6,4,7,14,5,11],"shift_direction":1,"question_num":21,"has_decoy":false,"subject":"S1C1623","sona":"41829","block":1,"time":"2021-09-19T01:22:51.164Z"},{"rt":2468.7999999821186,"stimulus":"[A] option 1, [L] option 2, [G] neither","key_press":76,"name":"choice","trial_type":"html-keyboard-response","trial_index":48,"time_elapsed":164164,"internal_node_id":"0.0-48.0","response":"2nd","certainty":"high","char":"L","transposition":-2,"order":["swapped","shifted"],"probe_pitches":[10,12,15,7,15,10,15,12,10,7,15,5,10,12,5,3],"shifted_pitches":[10,12,15,7,15,10,15,12,11,7,15,5,10,12,5,3],"swapped_pitches":[10,12,15,7,15,10,15,10,12,7,15,5,10,12,5,3],"shift_direction":1,"question_num":31,"has_decoy":false,"subject":"S1C1623","sona":"41829","block":1,"time":"2021-09-19T01:22:51.164Z"},{"rt":1977.4000000059605,"stimulus":"[A] option 1, [L] option 2, [G] neither","key_press":71,"name":"choice","trial_type":"html-keyboard-response","trial_index":59,"time_elapsed":189651,"internal_node_id":"0.0-59.0","response":"neither","certainty":"high","char":"G","transposition":0,"order":["shifted","swapped"],"probe_pitches":[3,8,10,12,8,3,12,8,5,12,10,12,15,10,12,3],"shifted_pitches":[3,8,10,12,8,3,12,7,5,12,10,12,15,10,12,3],"swapped_pitches":[3,8,10,12,8,3,12,5,8,12,10,12,15,10,12,3],"shift_direction":-1,"question_num":41,"has_decoy":false,"subject":"S1C1623","sona":"41829","block":1,"time":"2021-09-19T01:22:51.164Z"},{"rt":2023.5,"stimulus":"[A] option 1, [L] option 2, [G] neither","key_press":76,"name":"choice","trial_type":"html-keyboard-response","trial_index":70,"time_elapsed":215058,"internal_node_id":"0.0-70.0","response":"2nd","certainty":"high","char":"L","transposition":-3,"order":["shifted","swapped"],"probe_pitches":[4,3,4,11,14,11,4,10,8,11,3,15,3,7,12,15],"shifted_pitches":[4,3,4,11,14,11,4,10,9,11,3,15,3,7,12,15],"swapped_pitches":[4,3,4,11,14,11,4,8,10,11,3,15,3,7,12,15],"shift_direction":1,"question_num":51,"has_decoy":false,"subject":"S1C1623","sona":"41829","block":1,"time":"2021-09-19T01:22:51.164Z"},{"rt":1780.5999999940395,"stimulus":"[A] option 1, [L] option 2, [G] neither","key_press":71,"name":"choice","trial_type":"html-keyboard-response","trial_index":81,"time_elapsed":240062,"internal_node_id":"0.0-81.0","response":"neither","certainty":"high","char":"G","transposition":1,"order":["shifted","swapped"],"probe_pitches":[8,11,15,13,6,8,6,8,13,3,15,3,6,8,6,15],"shifted_pitches":[8,11,15,13,6,8,6,8,12,3,15,3,6,8,6,15],"swapped_pitches":[8,11,15,13,6,8,6,13,8,3,15,3,6,8,6,15],"shift_direction":-1,"question_num":61,"has_decoy":false,"subject":"S1C1623","sona":"41829","block":1,"time":"2021-09-19T01:22:51.164Z"},{"rt":4142.9000000059605,"stimulus":"[A] option 1, [L] option 2, [G] neither","key_press":65,"name":"choice","trial_type":"html-keyboard-response","trial_index":92,"time_elapsed":267368,"internal_node_id":"0.0-92.0","response":"1st","certainty":"high","char":"A","transposition":0,"order":["shifted","swapped"],"probe_pitches":[15,14,12,14,9,7,15,9,11,8,15,12,9,4,11,13],"shifted_pitches":[15,14,12,14,9,7,15,10,11,8,15,12,9,4,11,13],"swapped_pitches":[15,14,12,14,9,7,15,11,9,8,15,12,9,4,11,13],"shift_direction":1,"question_num":71,"has_decoy":false,"subject":"S1C1623","sona":"41829","block":1,"time":"2021-09-19T01:22:51.164Z"},{"rt":1889.699999988079,"stimulus":"[A] option 1, [L] option 2, [G] neither","key_press":76,"name":"choice","trial_type":"html-keyboard-response","trial_index":103,"time_elapsed":291840,"internal_node_id":"0.0-103.0","response":"2nd","certainty":"high","char":"L","transposition":-1,"order":["shifted","swapped"],"probe_pitches":[15,11,13,6,13,8,6,11,3,6,8,11,15,13,15,11],"shifted_pitches":[15,11,13,6,13,8,6,12,3,6,8,11,15,13,15,11],"swapped_pitches":[15,11,13,6,13,8,6,3,11,6,8,11,15,13,15,11],"shift_direction":1,"question_num":81,"has_decoy":false,"subject":"S1C1623","sona":"41829","block":1,"time":"2021-09-19T01:22:51.164Z"},{"rt":2033.800000011921,"stimulus":"[A] option 1, [L] option 2, [G] neither","key_press":76,"name":"choice","trial_type":"html-keyboard-response","trial_index":114,"time_elapsed":317157,"internal_node_id":"0.0-114.0","response":"2nd","certainty":"high","char":"L","transposition":-2,"order":["swapped","shifted"],"probe_pitches":[10,13,15,8,10,5,10,15,3,13,10,5,3,5,13,5],"shifted_pitches":[10,13,15,8,10,5,10,16,3,13,10,5,3,5,13,5],"swapped_pitches":[10,13,15,8,10,5,10,3,15,13,10,5,3,5,13,5],"shift_direction":1,"question_num":91,"has_decoy":false,"subject":"S1C1623","sona":"41829","block":1,"time":"2021-09-19T01:22:51.164Z"},{"rt":1173.4000000059605,"stimulus":"[A] option 1, [L] option 2, [G] neither","key_press":65,"name":"choice","trial_type":"html-keyboard-response","trial_index":125,"time_elapsed":341310,"internal_node_id":"0.0-125.0","response":"1st","certainty":"high","char":"A","transposition":3,"order":["shifted","swapped"],"probe_pitches":[8,10,3,8,5,15,8,13,5,15,13,5,3,10,5,10],"shifted_pitches":[8,10,3,8,5,15,8,14,5,15,13,5,3,10,5,10],"swapped_pitches":[8,10,3,8,5,15,8,5,13,15,13,5,3,10,5,10],"shift_direction":1,"question_num":101,"has_decoy":false,"subject":"S1C1623","sona":"41829","block":1,"time":"2021-09-19T01:22:51.164Z"},{"rt":1506.0999999940395,"stimulus":"[A] option 1, [L] option 2, [G] neither","key_press":71,"name":"choice","trial_type":"html-keyboard-response","trial_index":136,"time_elapsed":367578,"internal_node_id":"0.0-136.0","response":"neither","certainty":"high","char":"G","transposition":2,"order":["shifted","swapped"],"probe_pitches":[10,4,10,7,13,4,7,12,5,3,7,8,14,9,15,7],"shifted_pitches":[10,4,10,7,13,4,7,11,5,3,7,8,14,9,15,7],"swapped_pitches":[10,4,10,7,13,4,7,5,12,3,7,8,14,9,15,7],"shift_direction":-1,"question_num":111,"has_decoy":false,"subject":"S1C1623","sona":"41829","block":1,"time":"2021-09-19T01:22:51.164Z"},{"rt":2133.5,"stimulus":"[A] option 1, [L] option 2, [G] neither","key_press":76,"name":"choice","trial_type":"html-keyboard-response","trial_index":147,"time_elapsed":394079,"internal_node_id":"0.0-147.0","response":"2nd","certainty":"high","char":"L","transposition":-1,"order":["shifted","swapped"],"probe_pitches":[11,13,6,13,4,13,4,3,15,8,6,3,8,9,4,6],"shifted_pitches":[11,13,6,13,4,13,4,2,15,8,6,3,8,9,4,6],"swapped_pitches":[11,13,6,13,4,13,4,15,3,8,6,3,8,9,4,6],"shift_direction":-1,"question_num":121,"has_decoy":false,"subject":"S1C1623","sona":"41829","block":1,"time":"2021-09-19T01:22:51.164Z"},{"rt":6679.199999988079,"stimulus":"[A] option 1, [L] option 2, [G] neither","key_press":76,"name":"choice","trial_type":"html-keyboard-response","trial_index":158,"time_elapsed":425113,"internal_node_id":"0.0-158.0","response":"2nd","certainty":"high","char":"L","transposition":-1,"order":["shifted","swapped"],"probe_pitches":[3,5,6,14,6,5,13,5,7,4,11,3,11,15,3,6],"shifted_pitches":[3,5,6,14,6,5,13,5,8,4,11,3,11,15,3,6],"swapped_pitches":[3,5,6,14,6,5,13,7,5,4,11,3,11,15,3,6],"shift_direction":1,"question_num":131,"has_decoy":false,"subject":"S1C1623","sona":"41829","block":1,"time":"2021-09-19T01:22:51.164Z"},{"rt":1772.5999999940395,"stimulus":"[A] option 1, [L] option 2, [G] neither","key_press":76,"name":"choice","trial_type":"html-keyboard-response","trial_index":169,"time_elapsed":450340,"internal_node_id":"0.0-169.0","response":"2nd","certainty":"high","char":"L","transposition":-2,"order":["swapped","shifted"],"probe_pitches":[14,8,12,8,4,13,15,7,13,4,15,7,5,15,14,13],"shifted_pitches":[14,8,12,8,4,13,15,6,13,4,15,7,5,15,14,13],"swapped_pitches":[14,8,12,8,4,13,15,13,7,4,15,7,5,15,14,13],"shift_direction":-1,"question_num":141,"has_decoy":false,"subject":"S1C1623","sona":"41829","block":1,"time":"2021-09-19T01:22:51.164Z"},{"rt":3390.699999988079,"stimulus":"[A] option 1, [L] option 2, [G] neither","key_press":76,"name":"choice","trial_type":"html-keyboard-response","trial_index":180,"time_elapsed":476539,"internal_node_id":"0.0-180.0","response":"2nd","certainty":"high","char":"L","transposition":1,"order":["swapped","shifted"],"probe_pitches":[5,10,4,8,9,10,9,11,4,15,4,11,10,11,6,13],"shifted_pitches":[5,10,4,8,9,10,9,12,4,15,4,11,10,11,6,13],"swapped_pitches":[5,10,4,8,9,10,9,4,11,15,4,11,10,11,6,13],"shift_direction":1,"question_num":151,"has_decoy":false,"subject":"S1C1623","sona":"41829","block":1,"time":"2021-09-19T01:22:51.164Z"},{"rt":869.0999999940395,"stimulus":"[A] option 1, [L] option 2, [G] neither","key_press":65,"name":"choice","trial_type":"html-keyboard-response","trial_index":191,"time_elapsed":500167,"internal_node_id":"0.0-191.0","response":"1st","certainty":"high","char":"A","transposition":2,"order":["shifted","swapped"],"probe_pitches":[3,6,3,6,10,6,8,3,15,13,8,15,6,8,15,10],"shifted_pitches":[3,6,3,6,10,6,8,3,16,13,8,15,6,8,15,10],"swapped_pitches":[3,6,3,6,10,6,8,15,3,13,8,15,6,8,15,10],"shift_direction":1,"question_num":161,"has_decoy":false,"subject":"S1C1623","sona":"41829","block":1,"time":"2021-09-19T01:22:51.164Z"},{"rt":1321.7999999821186,"stimulus":"[A] option 1, [L] option 2, [G] neither","key_press":76,"name":"choice","trial_type":"html-keyboard-response","trial_index":202,"time_elapsed":525254,"internal_node_id":"0.0-202.0","response":"2nd","certainty":"high","char":"L","transposition":-3,"order":["swapped","shifted"],"probe_pitches":[5,3,7,12,15,7,3,12,7,15,7,3,15,10,5,7],"shifted_pitches":[5,3,7,12,15,7,3,12,6,15,7,3,15,10,5,7],"swapped_pitches":[5,3,7,12,15,7,3,7,12,15,7,3,15,10,5,7],"shift_direction":-1,"question_num":171,"has_decoy":false,"subject":"S1C1623","sona":"41829","block":1,"time":"2021-09-19T01:22:51.164Z"},{"rt":1305.699999988079,"stimulus":"[A] option 1, [L] option 2, [G] neither","key_press":71,"name":"choice","trial_type":"html-keyboard-response","trial_index":213,"time_elapsed":549606,"internal_node_id":"0.0-213.0","response":"neither","certainty":"high","char":"G","transposition":-1,"order":["swapped","shifted"],"probe_pitches":[8,12,5,8,12,5,15,5,3,10,3,5,8,5,3,5],"shifted_pitches":[8,12,5,8,12,5,15,4,3,10,3,5,8,5,3,5],"swapped_pitches":[8,12,5,8,12,5,15,3,5,10,3,5,8,5,3,5],"shift_direction":-1,"question_num":181,"has_decoy":false,"subject":"S1C1623","sona":"41829","block":1,"time":"2021-09-19T01:22:51.164Z"},{"rt":1689.800000011921,"stimulus":"[A] option 1, [L] option 2, [G] neither","key_press":76,"name":"choice","trial_type":"html-keyboard-response","trial_index":224,"time_elapsed":574657,"internal_node_id":"0.0-224.0","response":"2nd","certainty":"high","char":"L","transposition":-3,"order":["swapped","shifted"],"probe_pitches":[11,9,8,15,11,13,9,4,8,11,15,13,11,10,3,8],"shifted_pitches":[11,9,8,15,11,13,9,4,7,11,15,13,11,10,3,8],"swapped_pitches":[11,9,8,15,11,13,9,8,4,11,15,13,11,10,3,8],"shift_direction":-1,"question_num":191,"has_decoy":false,"subject":"S1C1623","sona":"41829","block":1,"time":"2021-09-19T01:22:51.164Z"}]