[{"rt":684.9000000059605,"stimulus":"[A] option 1, [L] option 2, [G] neither","key_press":76,"name":"choice","trial_type":"html-keyboard-response","trial_index":10,"time_elapsed":25888,"internal_node_id":"0.0-10.0","subject":"S1C1623","sona":"41829","block":4,"time":"2021-09-19T02:09:05.675Z","response":"2nd","certainty":"high","char":"L","transposition":-3,"order":["swapped","shifted"],"probe_pitches":[10,8,13,15,8,6,8,3,15,13,8,6,15,6,13,3],"shifted_pitches":[10,8,13,15,8,6,8,3,16,13,8,6,15,6,13,3],"swapped_pitches":[10,8,13,15,8,6,8,15,3,13,8,6,15,6,13,3],"shift_direction":1,"question_num":1,"has_decoy":false},{"rt":2666.5,"stimulus":"[A] option 1, [L] option 2, [G] neither","key_press":65,"name":"choice","trial_type":"html-keyboard-response","trial_index":21,"time_elapsed":51117,"internal_node_id":"0.0-21.0","subject":"S1C1623","sona":"41829","block":4,"time":"2021-09-19T02:09:05.675Z","response":"1st","certainty":"high","char":"A","transposition":-1,"order":["shifted","swapped"],"probe_pitches":[13,10,15,8,10,15,10,13,15,5,3,8,15,10,13,5],"shifted_pitches":[13,10,15,8,10,15,10,14,15,5,3,8,15,10,13,5],"swapped_pitches":[13,10,15,8,10,15,10,15,13,5,3,8,15,10,13,5],"shift_direction":1,"question_num":11,"has_decoy":false},{"rt":1091.7999999821186,"stimulus":"[A] option 1, [L] option 2, [G] neither","key_press":71,"name":"choice","trial_type":"html-keyboard-response","trial_index":32,"time_elapsed":75057,"internal_node_id":"0.0-32.0","subject":"S1C1623","sona":"41829","block":4,"time":"2021-09-19T02:09:05.675Z","response":"neither","certainty":"high","char":"G","transposition":-3,"order":["swapped","shifted"],"probe_pitches":[5,-1,1,2,9,7,0,4,7,5,1,9,4,5,0,1],"shifted_pitches":[5,-1,1,2,9,7,0,4,6,5,1,9,4,5,0,1],"swapped_pitches":[5,-1,1,2,9,7,0,7,4,5,1,9,4,5,0,1],"shift_direction":-1,"question_num":21,"has_decoy":false},{"rt":2618.5,"stimulus":"[A] option 1, [L] option 2, [G] neither","key_press":71,"name":"choice","trial_type":"html-keyboard-response","trial_index":43,"time_elapsed":101080,"internal_node_id":"0.0-43.0","subject":"S1C1623","sona":"41829","block":4,"time":"2021-09-19T02:09:05.675Z","response":"neither","certainty":"high","char":"G","transposition":-2,"order":["swapped","shifted"],"probe_pitches":[3,6,8,15,10,6,15,3,6,10,8,15,6,13,10,6],"shifted_pitches":[3,6,8,15,10,6,15,3,5,10,8,15,6,13,10,6],"swapped_pitches":[3,6,8,15,10,6,15,6,3,10,8,15,6,13,10,6],"shift_direction":-1,"question_num":31,"has_decoy":false},{"rt":2124.7999999821186,"stimulus":"[A] option 1, [L] option 2, [G] neither","key_press":71,"name":"choice","trial_type":"html-keyboard-response","trial_index":54,"time_elapsed":125898,"internal_node_id":"0.0-54.0","subject":"S1C1623","sona":"41829","block":4,"time":"2021-09-19T02:09:05.675Z","response":"neither","certainty":"high","char":"G","transposition":-3,"order":["swapped","shifted"],"probe_pitches":[6,0,-1,4,5,0,-1,4,0,7,4,7,2,10,2,10],"shifted_pitches":[6,0,-1,4,5,0,-1,4,1,7,4,7,2,10,2,10],"swapped_pitches":[6,0,-1,4,5,0,-1,0,4,7,4,7,2,10,2,10],"shift_direction":1,"question_num":41,"has_decoy":false},{"rt":1309.5999999940395,"stimulus":"[A] option 1, [L] option 2, [G] neither","key_press":76,"name":"choice","trial_type":"html-keyboard-response","trial_index":65,"time_elapsed":150432,"internal_node_id":"0.0-65.0","subject":"S1C1623","sona":"41829","block":4,"time":"2021-09-19T02:09:05.675Z","response":"2nd","certainty":"high","char":"L","transposition":2,"order":["shifted","swapped"],"probe_pitches":[-1,1,8,0,6,9,0,8,5,6,8,-1,10,6,9,11],"shifted_pitches":[-1,1,8,0,6,9,0,7,5,6,8,-1,10,6,9,11],"swapped_pitches":[-1,1,8,0,6,9,0,5,8,6,8,-1,10,6,9,11],"shift_direction":-1,"question_num":51,"has_decoy":false},{"rt":1498.800000011921,"stimulus":"[A] option 1, [L] option 2, [G] neither","key_press":71,"name":"choice","trial_type":"html-keyboard-response","trial_index":76,"time_elapsed":175816,"internal_node_id":"0.0-76.0","subject":"S1C1623","sona":"41829","block":4,"time":"2021-09-19T02:09:05.675Z","response":"neither","certainty":"high","char":"G","transposition":2,"order":["shifted","swapped"],"probe_pitches":[5,3,8,5,3,8,15,10,5,8,10,13,15,13,10,8],"shifted_pitches":[5,3,8,5,3,8,15,9,5,8,10,13,15,13,10,8],"swapped_pitches":[5,3,8,5,3,8,15,5,10,8,10,13,15,13,10,8],"shift_direction":-1,"question_num":61,"has_decoy":false},{"rt":3753.300000011921,"stimulus":"[A] option 1, [L] option 2, [G] neither","key_press":65,"name":"choice","trial_type":"html-keyboard-response","trial_index":87,"time_elapsed":204934,"internal_node_id":"0.0-87.0","subject":"S1C1623","sona":"41829","block":4,"time":"2021-09-19T02:09:05.675Z","response":"1st","certainty":"high","char":"A","transposition":-1,"order":["swapped","shifted"],"probe_pitches":[8,6,10,4,1,8,7,4,10,3,7,1,11,7,1,7],"shifted_pitches":[8,6,10,4,1,8,7,4,9,3,7,1,11,7,1,7],"swapped_pitches":[8,6,10,4,1,8,7,10,4,3,7,1,11,7,1,7],"shift_direction":-1,"question_num":71,"has_decoy":false},{"rt":2297.9000000059605,"stimulus":"[A] option 1, [L] option 2, [G] neither","key_press":71,"name":"choice","trial_type":"html-keyboard-response","trial_index":98,"time_elapsed":230983,"internal_node_id":"0.0-98.0","subject":"S1C1623","sona":"41829","block":4,"time":"2021-09-19T02:09:05.675Z","response":"neither","certainty":"high","char":"G","transposition":-2,"order":["swapped","shifted"],"probe_pitches":[5,4,5,10,11,6,8,1,4,6,0,4,1,10,6,0],"shifted_pitches":[5,4,5,10,11,6,8,2,4,6,0,4,1,10,6,0],"swapped_pitches":[5,4,5,10,11,6,8,4,1,6,0,4,1,10,6,0],"shift_direction":1,"question_num":81,"has_decoy":false},{"rt":392.80000001192093,"stimulus":"[A] option 1, [L] option 2, [G] neither","key_press":76,"name":"choice","trial_type":"html-keyboard-response","trial_index":109,"time_elapsed":254794,"internal_node_id":"0.0-109.0","subject":"S1C1623","sona":"41829","block":4,"time":"2021-09-19T02:09:05.675Z","response":"2nd","certainty":"high","char":"L","transposition":-3,"order":["swapped","shifted"],"probe_pitches":[5,10,15,10,7,5,12,15,10,3,10,5,10,15,12,15],"shifted_pitches":[5,10,15,10,7,5,12,16,10,3,10,5,10,15,12,15],"swapped_pitches":[5,10,15,10,7,5,12,10,15,3,10,5,10,15,12,15],"shift_direction":1,"question_num":91,"has_decoy":false},{"rt":1482.0999999940395,"stimulus":"[A] option 1, [L] option 2, [G] neither","key_press":65,"name":"choice","trial_type":"html-keyboard-response","trial_index":120,"time_elapsed":279095,"internal_node_id":"0.0-120.0","subject":"S1C1623","sona":"41829","block":4,"time":"2021-09-19T02:09:05.675Z","response":"1st","certainty":"high","char":"A","transposition":-2,"order":["shifted","swapped"],"probe_pitches":[15,10,5,3,7,5,7,3,12,10,3,7,10,7,5,15],"shifted_pitches":[15,10,5,3,7,5,7,4,12,10,3,7,10,7,5,15],"swapped_pitches":[15,10,5,3,7,5,7,12,3,10,3,7,10,7,5,15],"shift_direction":1,"question_num":101,"has_decoy":false},{"rt":2742.0999999940395,"stimulus":"[A] option 1, [L] option 2, [G] neither","key_press":71,"name":"choice","trial_type":"html-keyboard-response","trial_index":131,"time_elapsed":304482,"internal_node_id":"0.0-131.0","subject":"S1C1623","sona":"41829","block":4,"time":"2021-09-19T02:09:05.675Z","response":"neither","certainty":"high","char":"G","transposition":-1,"order":["swapped","shifted"],"probe_pitches":[6,3,8,11,15,6,15,3,6,13,8,11,15,11,15,8],"shifted_pitches":[6,3,8,11,15,6,15,3,5,13,8,11,15,11,15,8],"swapped_pitches":[6,3,8,11,15,6,15,6,3,13,8,11,15,11,15,8],"shift_direction":-1,"question_num":111,"has_decoy":false},{"rt":2364.5999999940395,"stimulus":"[A] option 1, [L] option 2, [G] neither","key_press":71,"name":"choice","trial_type":"html-keyboard-response","trial_index":142,"time_elapsed":330996,"internal_node_id":"0.0-142.0","subject":"S1C1623","sona":"41829","block":4,"time":"2021-09-19T02:09:05.675Z","response":"neither","certainty":"high","char":"G","transposition":0,"order":["shifted","swapped"],"probe_pitches":[9,5,8,2,0,6,1,2,10,9,5,10,0,1,0,9],"shifted_pitches":[9,5,8,2,0,6,1,3,10,9,5,10,0,1,0,9],"swapped_pitches":[9,5,8,2,0,6,1,10,2,9,5,10,0,1,0,9],"shift_direction":1,"question_num":121,"has_decoy":false},{"rt":3623.2999999821186,"stimulus":"[A] option 1, [L] option 2, [G] neither","key_press":65,"name":"choice","trial_type":"html-keyboard-response","trial_index":153,"time_elapsed":359470,"internal_node_id":"0.0-153.0","subject":"S1C1623","sona":"41829","block":4,"time":"2021-09-19T02:09:05.675Z","response":"1st","certainty":"high","char":"A","transposition":3,"order":["swapped","shifted"],"probe_pitches":[11,7,0,2,0,1,-1,9,3,1,-1,7,2,8,1,-1],"shifted_pitches":[11,7,0,2,0,1,-1,10,3,1,-1,7,2,8,1,-1],"swapped_pitches":[11,7,0,2,0,1,-1,3,9,1,-1,7,2,8,1,-1],"shift_direction":1,"question_num":131,"has_decoy":false},{"rt":842,"stimulus":"[A] option 1, [L] option 2, [G] neither","key_press":65,"name":"choice","trial_type":"html-keyboard-response","trial_index":164,"time_elapsed":383318,"internal_node_id":"0.0-164.0","subject":"S1C1623","sona":"41829","block":4,"time":"2021-09-19T02:09:05.675Z","response":"1st","certainty":"high","char":"A","transposition":3,"order":["shifted","swapped"],"probe_pitches":[3,5,3,5,12,15,5,15,8,10,12,15,5,8,12,15],"shifted_pitches":[3,5,3,5,12,15,5,14,8,10,12,15,5,8,12,15],"swapped_pitches":[3,5,3,5,12,15,5,8,15,10,12,15,5,8,12,15],"shift_direction":-1,"question_num":141,"has_decoy":false},{"rt":851.7000000178814,"stimulus":"[A] option 1, [L] option 2, [G] neither","key_press":71,"name":"choice","trial_type":"html-keyboard-response","trial_index":175,"time_elapsed":408272,"internal_node_id":"0.0-175.0","subject":"S1C1623","sona":"41829","block":4,"time":"2021-09-19T02:09:05.675Z","response":"neither","certainty":"high","char":"G","transposition":-2,"order":["shifted","swapped"],"probe_pitches":[6,7,9,4,5,2,3,4,7,6,4,7,11,3,4,0],"shifted_pitches":[6,7,9,4,5,2,3,4,8,6,4,7,11,3,4,0],"swapped_pitches":[6,7,9,4,5,2,3,7,4,6,4,7,11,3,4,0],"shift_direction":1,"question_num":151,"has_decoy":false},{"rt":738.1999999880791,"stimulus":"[A] option 1, [L] option 2, [G] neither","key_press":76,"name":"choice","trial_type":"html-keyboard-response","trial_index":186,"time_elapsed":432169,"internal_node_id":"0.0-186.0","subject":"S1C1623","sona":"41829","block":4,"time":"2021-09-19T02:09:05.675Z","response":"2nd","certainty":"high","char":"L","transposition":0,"order":["swapped","shifted"],"probe_pitches":[3,8,12,5,10,12,15,8,3,12,3,10,3,5,10,5],"shifted_pitches":[3,8,12,5,10,12,15,8,4,12,3,10,3,5,10,5],"swapped_pitches":[3,8,12,5,10,12,15,3,8,12,3,10,3,5,10,5],"shift_direction":1,"question_num":161,"has_decoy":false},{"rt":7475.5999999940395,"stimulus":"[A] option 1, [L] option 2, [G] neither","key_press":71,"name":"choice","trial_type":"html-keyboard-response","trial_index":197,"time_elapsed":462101,"internal_node_id":"0.0-197.0","subject":"S1C1623","sona":"41829","block":4,"time":"2021-09-19T02:09:05.675Z","response":"neither","certainty":"high","char":"G","transposition":1,"order":["shifted","swapped"],"probe_pitches":[8,6,11,6,15,6,11,13,6,8,13,6,11,13,6,15],"shifted_pitches":[8,6,11,6,15,6,11,13,5,8,13,6,11,13,6,15],"swapped_pitches":[8,6,11,6,15,6,11,6,13,8,13,6,11,13,6,15],"shift_direction":-1,"question_num":171,"has_decoy":false},{"rt":3104,"stimulus":"[A] option 1, [L] option 2, [G] neither","key_press":76,"name":"choice","trial_type":"html-keyboard-response","trial_index":208,"time_elapsed":488375,"internal_node_id":"0.0-208.0","subject":"S1C1623","sona":"41829","block":4,"time":"2021-09-19T02:09:05.675Z","response":"2nd","certainty":"high","char":"L","transposition":1,"order":["shifted","swapped"],"probe_pitches":[11,5,0,6,9,3,11,2,5,11,0,2,5,9,10,3],"shifted_pitches":[11,5,0,6,9,3,11,2,4,11,0,2,5,9,10,3],"swapped_pitches":[11,5,0,6,9,3,11,5,2,11,0,2,5,9,10,3],"shift_direction":-1,"question_num":181,"has_decoy":false},{"rt":6627.9000000059605,"stimulus":"[A] option 1, [L] option 2, [G] neither","key_press":71,"name":"choice","trial_type":"html-keyboard-response","trial_index":219,"time_elapsed":517882,"internal_node_id":"0.0-219.0","subject":"S1C1623","sona":"41829","block":4,"time":"2021-09-19T02:09:05.675Z","response":"neither","certainty":"high","char":"G","transposition":-1,"order":["shifted","swapped"],"probe_pitches":[9,11,6,-1,2,8,4,6,8,3,-1,3,7,-1,6,8],"shifted_pitches":[9,11,6,-1,2,8,4,5,8,3,-1,3,7,-1,6,8],"swapped_pitches":[9,11,6,-1,2,8,4,8,6,3,-1,3,7,-1,6,8],"shift_direction":-1,"question_num":191,"has_decoy":false}]