[{"rt":5199.200000017881,"stimulus":"[A] option 1, [L] option 2, [G] neither","key_press":71,"name":"choice","trial_type":"html-keyboard-response","trial_index":10,"time_elapsed":30468,"internal_node_id":"0.0-10.0","subject":"S1C1623","sona":"41829","block":6,"time":"2021-09-19T03:44:31.171Z","response":"neither","certainty":"high","char":"G","transposition":2,"order":["shifted","swapped"],"probe_pitches":[1,4,1,4,9,11,6,4,1,6,9,11,4,9,1,6],"shifted_pitches":[1,4,1,4,9,11,6,5,1,6,9,11,4,9,1,6],"swapped_pitches":[1,4,1,4,9,11,6,1,4,6,9,11,4,9,1,6],"shift_direction":1,"question_num":1,"has_decoy":false},{"rt":145141.40000000596,"stimulus":"[A] option 1, [L] option 2, [G] neither","key_press":71,"name":"choice","trial_type":"html-keyboard-response","trial_index":21,"time_elapsed":485365,"internal_node_id":"0.0-21.0","subject":"S1C1623","sona":"41829","block":6,"time":"2021-09-19T03:44:31.171Z","response":"neither","certainty":"high","char":"G","transposition":0,"order":["shifted","swapped"],"probe_pitches":[6,3,8,2,5,9,-2,-1,5,0,-1,5,-2,9,6,-2],"shifted_pitches":[6,3,8,2,5,9,-2,-1,4,0,-1,5,-2,9,6,-2],"swapped_pitches":[6,3,8,2,5,9,-2,5,-1,0,-1,5,-2,9,6,-2],"shift_direction":-1,"question_num":11,"has_decoy":false},{"rt":629.4000000059605,"stimulus":"[A] option 1, [L] option 2, [G] neither","key_press":65,"name":"choice","trial_type":"html-keyboard-response","trial_index":32,"time_elapsed":510391,"internal_node_id":"0.0-32.0","subject":"S1C1623","sona":"41829","block":6,"time":"2021-09-19T03:44:31.171Z","response":"1st","certainty":"high","char":"A","transposition":-3,"order":["shifted","swapped"],"probe_pitches":[8,6,3,-2,6,7,0,-1,1,3,1,5,-1,9,7,-1],"shifted_pitches":[8,6,3,-2,6,7,0,-1,2,3,1,5,-1,9,7,-1],"swapped_pitches":[8,6,3,-2,6,7,0,1,-1,3,1,5,-1,9,7,-1],"shift_direction":1,"question_num":21,"has_decoy":false},{"rt":1852.5999999940395,"stimulus":"[A] option 1, [L] option 2, [G] neither","key_press":65,"name":"choice","trial_type":"html-keyboard-response","trial_index":43,"time_elapsed":538862,"internal_node_id":"0.0-43.0","subject":"S1C1623","sona":"41829","block":6,"time":"2021-09-19T03:44:31.171Z","response":"1st","certainty":"high","char":"A","transposition":3,"order":["swapped","shifted"],"probe_pitches":[0,2,9,4,-3,0,3,6,0,4,-2,3,2,9,2,1],"shifted_pitches":[0,2,9,4,-3,0,3,6,-1,4,-2,3,2,9,2,1],"swapped_pitches":[0,2,9,4,-3,0,3,0,6,4,-2,3,2,9,2,1],"shift_direction":-1,"question_num":31,"has_decoy":false},{"rt":1488.9000000059605,"stimulus":"[A] option 1, [L] option 2, [G] neither","key_press":65,"name":"choice","trial_type":"html-keyboard-response","trial_index":54,"time_elapsed":562466,"internal_node_id":"0.0-54.0","subject":"S1C1623","sona":"41829","block":6,"time":"2021-09-19T03:44:31.171Z","response":"1st","certainty":"high","char":"A","transposition":2,"order":["shifted","swapped"],"probe_pitches":[-3,3,5,-1,-2,5,-3,0,5,1,0,7,2,9,2,9],"shifted_pitches":[-3,3,5,-1,-2,5,-3,0,6,1,0,7,2,9,2,9],"swapped_pitches":[-3,3,5,-1,-2,5,-3,5,0,1,0,7,2,9,2,9],"shift_direction":1,"question_num":41,"has_decoy":false},{"rt":3084.699999988079,"stimulus":"[A] option 1, [L] option 2, [G] neither","key_press":71,"name":"choice","trial_type":"html-keyboard-response","trial_index":65,"time_elapsed":587870,"internal_node_id":"0.0-65.0","subject":"S1C1623","sona":"41829","block":6,"time":"2021-09-19T03:44:31.171Z","response":"neither","certainty":"high","char":"G","transposition":0,"order":["swapped","shifted"],"probe_pitches":[8,13,10,6,8,1,3,8,13,1,13,1,8,10,8,6],"shifted_pitches":[8,13,10,6,8,1,3,9,13,1,13,1,8,10,8,6],"swapped_pitches":[8,13,10,6,8,1,3,13,8,1,13,1,8,10,8,6],"shift_direction":1,"question_num":51,"has_decoy":false},{"rt":6880.0999999940395,"stimulus":"[A] option 1, [L] option 2, [G] neither","key_press":65,"name":"choice","trial_type":"html-keyboard-response","trial_index":76,"time_elapsed":617255,"internal_node_id":"0.0-76.0","subject":"S1C1623","sona":"41829","block":6,"time":"2021-09-19T03:44:31.171Z","response":"1st","certainty":"high","char":"A","transposition":-3,"order":["swapped","shifted"],"probe_pitches":[2,4,7,3,-3,0,2,7,3,9,7,4,0,6,4,-1],"shifted_pitches":[2,4,7,3,-3,0,2,8,3,9,7,4,0,6,4,-1],"swapped_pitches":[2,4,7,3,-3,0,2,3,7,9,7,4,0,6,4,-1],"shift_direction":1,"question_num":61,"has_decoy":false},{"rt":7386.4000000059605,"stimulus":"[A] option 1, [L] option 2, [G] neither","key_press":71,"name":"choice","trial_type":"html-keyboard-response","trial_index":87,"time_elapsed":648028,"internal_node_id":"0.0-87.0","subject":"S1C1623","sona":"41829","block":6,"time":"2021-09-19T03:44:31.171Z","response":"neither","certainty":"high","char":"G","transposition":-2,"order":["swapped","shifted"],"probe_pitches":[8,9,6,2,-2,7,3,2,9,3,5,2,3,0,5,3],"shifted_pitches":[8,9,6,2,-2,7,3,1,9,3,5,2,3,0,5,3],"swapped_pitches":[8,9,6,2,-2,7,3,9,2,3,5,2,3,0,5,3],"shift_direction":-1,"question_num":71,"has_decoy":false},{"rt":3673.5999999940395,"stimulus":"[A] option 1, [L] option 2, [G] neither","key_press":76,"name":"choice","trial_type":"html-keyboard-response","trial_index":98,"time_elapsed":674528,"internal_node_id":"0.0-98.0","subject":"S1C1623","sona":"41829","block":6,"time":"2021-09-19T03:44:31.171Z","response":"2nd","certainty":"high","char":"L","transposition":-3,"order":["shifted","swapped"],"probe_pitches":[8,6,3,11,8,13,11,1,6,3,8,11,13,8,13,8],"shifted_pitches":[8,6,3,11,8,13,11,1,7,3,8,11,13,8,13,8],"swapped_pitches":[8,6,3,11,8,13,11,6,1,3,8,11,13,8,13,8],"shift_direction":1,"question_num":81,"has_decoy":false},{"rt":7412.799999982119,"stimulus":"[A] option 1, [L] option 2, [G] neither","key_press":65,"name":"choice","trial_type":"html-keyboard-response","trial_index":109,"time_elapsed":704443,"internal_node_id":"0.0-109.0","subject":"S1C1623","sona":"41829","block":6,"time":"2021-09-19T03:44:31.171Z","response":"1st","certainty":"high","char":"A","transposition":-2,"order":["shifted","swapped"],"probe_pitches":[9,13,11,6,11,4,11,6,9,1,13,1,6,9,4,1],"shifted_pitches":[9,13,11,6,11,4,11,6,10,1,13,1,6,9,4,1],"swapped_pitches":[9,13,11,6,11,4,11,9,6,1,13,1,6,9,4,1],"shift_direction":1,"question_num":91,"has_decoy":false},{"rt":5383.5,"stimulus":"[A] option 1, [L] option 2, [G] neither","key_press":65,"name":"choice","trial_type":"html-keyboard-response","trial_index":120,"time_elapsed":733198,"internal_node_id":"0.0-120.0","subject":"S1C1623","sona":"41829","block":6,"time":"2021-09-19T03:44:31.171Z","response":"1st","certainty":"high","char":"A","transposition":1,"order":["shifted","swapped"],"probe_pitches":[6,7,6,0,8,3,7,6,-3,-1,-2,8,2,4,-1,-3],"shifted_pitches":[6,7,6,0,8,3,7,5,-3,-1,-2,8,2,4,-1,-3],"swapped_pitches":[6,7,6,0,8,3,7,-3,6,-1,-2,8,2,4,-1,-3],"shift_direction":-1,"question_num":101,"has_decoy":false},{"rt":3824.800000011921,"stimulus":"[A] option 1, [L] option 2, [G] neither","key_press":76,"name":"choice","trial_type":"html-keyboard-response","trial_index":131,"time_elapsed":759661,"internal_node_id":"0.0-131.0","subject":"S1C1623","sona":"41829","block":6,"time":"2021-09-19T03:44:31.171Z","response":"2nd","certainty":"high","char":"L","transposition":-1,"order":["swapped","shifted"],"probe_pitches":[8,3,8,6,8,13,3,8,11,13,8,6,1,8,3,6],"shifted_pitches":[8,3,8,6,8,13,3,7,11,13,8,6,1,8,3,6],"swapped_pitches":[8,3,8,6,8,13,3,11,8,13,8,6,1,8,3,6],"shift_direction":-1,"question_num":111,"has_decoy":false},{"rt":11306.699999988079,"stimulus":"[A] option 1, [L] option 2, [G] neither","key_press":71,"name":"choice","trial_type":"html-keyboard-response","trial_index":142,"time_elapsed":793895,"internal_node_id":"0.0-142.0","subject":"S1C1623","sona":"41829","block":6,"time":"2021-09-19T03:44:31.171Z","response":"neither","certainty":"high","char":"G","transposition":-2,"order":["swapped","shifted"],"probe_pitches":[9,8,1,2,-1,9,2,1,4,-2,-1,9,3,5,-2,6],"shifted_pitches":[9,8,1,2,-1,9,2,0,4,-2,-1,9,3,5,-2,6],"swapped_pitches":[9,8,1,2,-1,9,2,4,1,-2,-1,9,3,5,-2,6],"shift_direction":-1,"question_num":121,"has_decoy":false},{"rt":276163.40000000596,"stimulus":"[A] option 1, [L] option 2, [G] neither","key_press":71,"name":"choice","trial_type":"html-keyboard-response","trial_index":153,"time_elapsed":4921251,"internal_node_id":"0.0-153.0","subject":"S1C1623","sona":"41829","block":6,"time":"2021-09-19T03:44:31.171Z","response":"neither","certainty":"high","char":"G","transposition":3,"order":["swapped","shifted"],"probe_pitches":[1,3,10,5,13,8,5,8,1,5,10,13,1,10,3,10],"shifted_pitches":[1,3,10,5,13,8,5,8,0,5,10,13,1,10,3,10],"swapped_pitches":[1,3,10,5,13,8,5,1,8,5,10,13,1,10,3,10],"shift_direction":-1,"question_num":131,"has_decoy":false},{"rt":4476.0999999940395,"stimulus":"[A] option 1, [L] option 2, [G] neither","key_press":65,"name":"choice","trial_type":"html-keyboard-response","trial_index":164,"time_elapsed":4949310,"internal_node_id":"0.0-164.0","subject":"S1C1623","sona":"41829","block":6,"time":"2021-09-19T03:44:31.171Z","response":"1st","certainty":"high","char":"A","transposition":-3,"order":["shifted","swapped"],"probe_pitches":[1,4,1,8,1,4,6,8,11,13,4,1,8,4,1,13],"shifted_pitches":[1,4,1,8,1,4,6,8,10,13,4,1,8,4,1,13],"swapped_pitches":[1,4,1,8,1,4,6,11,8,13,4,1,8,4,1,13],"shift_direction":-1,"question_num":141,"has_decoy":false},{"rt":13515.100000023842,"stimulus":"[A] option 1, [L] option 2, [G] neither","key_press":65,"name":"choice","trial_type":"html-keyboard-response","trial_index":175,"time_elapsed":4987873,"internal_node_id":"0.0-175.0","subject":"S1C1623","sona":"41829","block":6,"time":"2021-09-19T03:44:31.171Z","response":"1st","certainty":"high","char":"A","transposition":-2,"order":["swapped","shifted"],"probe_pitches":[4,8,6,13,11,8,6,8,11,4,8,4,8,11,4,8],"shifted_pitches":[4,8,6,13,11,8,6,7,11,4,8,4,8,11,4,8],"swapped_pitches":[4,8,6,13,11,8,6,11,8,4,8,4,8,11,4,8],"shift_direction":-1,"question_num":151,"has_decoy":false},{"rt":6254.800000011921,"stimulus":"[A] option 1, [L] option 2, [G] neither","key_press":76,"name":"choice","trial_type":"html-keyboard-response","trial_index":186,"time_elapsed":5019136,"internal_node_id":"0.0-186.0","subject":"S1C1623","sona":"41829","block":6,"time":"2021-09-19T03:44:31.171Z","response":"2nd","certainty":"high","char":"L","transposition":1,"order":["shifted","swapped"],"probe_pitches":[13,10,8,3,8,10,3,1,8,3,8,5,8,13,1,10],"shifted_pitches":[13,10,8,3,8,10,3,1,7,3,8,5,8,13,1,10],"swapped_pitches":[13,10,8,3,8,10,3,8,1,3,8,5,8,13,1,10],"shift_direction":-1,"question_num":161,"has_decoy":false},{"rt":1911.2000000178814,"stimulus":"[A] option 1, [L] option 2, [G] neither","key_press":76,"name":"choice","trial_type":"html-keyboard-response","trial_index":197,"time_elapsed":5048615,"internal_node_id":"0.0-197.0","subject":"S1C1623","sona":"41829","block":6,"time":"2021-09-19T03:44:31.171Z","response":"2nd","certainty":"high","char":"L","transposition":-1,"order":["shifted","swapped"],"probe_pitches":[2,1,7,8,9,0,-2,4,2,8,2,4,5,1,4,5],"shifted_pitches":[2,1,7,8,9,0,-2,4,3,8,2,4,5,1,4,5],"swapped_pitches":[2,1,7,8,9,0,-2,2,4,8,2,4,5,1,4,5],"shift_direction":1,"question_num":171,"has_decoy":false},{"rt":3196.100000023842,"stimulus":"[A] option 1, [L] option 2, [G] neither","key_press":76,"name":"choice","trial_type":"html-keyboard-response","trial_index":208,"time_elapsed":5078503,"internal_node_id":"0.0-208.0","subject":"S1C1623","sona":"41829","block":6,"time":"2021-09-19T03:44:31.171Z","response":"2nd","certainty":"high","char":"L","transposition":-1,"order":["swapped","shifted"],"probe_pitches":[9,6,3,1,5,3,1,6,8,4,3,-3,0,-2,3,1],"shifted_pitches":[9,6,3,1,5,3,1,7,8,4,3,-3,0,-2,3,1],"swapped_pitches":[9,6,3,1,5,3,1,8,6,4,3,-3,0,-2,3,1],"shift_direction":1,"question_num":181,"has_decoy":false},{"rt":5930.699999988079,"stimulus":"[A] option 1, [L] option 2, [G] neither","key_press":65,"name":"choice","trial_type":"html-keyboard-response","trial_index":219,"time_elapsed":5107435,"internal_node_id":"0.0-219.0","subject":"S1C1623","sona":"41829","block":6,"time":"2021-09-19T03:44:31.171Z","response":"1st","certainty":"high","char":"A","transposition":-1,"order":["swapped","shifted"],"probe_pitches":[1,6,8,10,1,10,3,1,8,13,8,13,8,3,13,6],"shifted_pitches":[1,6,8,10,1,10,3,2,8,13,8,13,8,3,13,6],"swapped_pitches":[1,6,8,10,1,10,3,8,1,13,8,13,8,3,13,6],"shift_direction":1,"question_num":191,"has_decoy":false}]