[{"rt":4015.0999999940395,"stimulus":"[A] option 1, [L] option 2, [G] neither","key_press":76,"name":"choice","trial_type":"html-keyboard-response","trial_index":10,"time_elapsed":32497,"internal_node_id":"0.0-10.0","subject":"S1C1623","sona":"41829","block":5,"time":"2021-09-19T02:19:16.412Z","response":"2nd","certainty":"high","char":"L","transposition":-1,"order":["swapped","shifted"],"probe_pitches":[1,4,6,11,6,4,1,-1,11,6,1,6,-1,6,9,1],"shifted_pitches":[1,4,6,11,6,4,1,0,11,6,1,6,-1,6,9,1],"swapped_pitches":[1,4,6,11,6,4,1,11,-1,6,1,6,-1,6,9,1],"shift_direction":1,"question_num":1,"has_decoy":false},{"rt":4604.4000000059605,"stimulus":"[A] option 1, [L] option 2, [G] neither","key_press":71,"name":"choice","trial_type":"html-keyboard-response","trial_index":21,"time_elapsed":60334,"internal_node_id":"0.0-21.0","subject":"S1C1623","sona":"41829","block":5,"time":"2021-09-19T02:19:16.412Z","response":"neither","certainty":"high","char":"G","transposition":1,"order":["shifted","swapped"],"probe_pitches":[10,15,12,5,8,14,5,7,10,6,14,10,13,10,13,12],"shifted_pitches":[10,15,12,5,8,14,5,7,11,6,14,10,13,10,13,12],"swapped_pitches":[10,15,12,5,8,14,5,10,7,6,14,10,13,10,13,12],"shift_direction":1,"question_num":11,"has_decoy":false},{"rt":1961,"stimulus":"[A] option 1, [L] option 2, [G] neither","key_press":76,"name":"choice","trial_type":"html-keyboard-response","trial_index":32,"time_elapsed":85072,"internal_node_id":"0.0-32.0","subject":"S1C1623","sona":"41829","block":5,"time":"2021-09-19T02:19:16.412Z","response":"2nd","certainty":"high","char":"L","transposition":-1,"order":["swapped","shifted"],"probe_pitches":[9,8,12,5,12,4,6,3,9,6,8,9,11,12,13,10],"shifted_pitches":[9,8,12,5,12,4,6,2,9,6,8,9,11,12,13,10],"swapped_pitches":[9,8,12,5,12,4,6,9,3,6,8,9,11,12,13,10],"shift_direction":-1,"question_num":21,"has_decoy":false},{"rt":1271.5999999940395,"stimulus":"[A] option 1, [L] option 2, [G] neither","key_press":76,"name":"choice","trial_type":"html-keyboard-response","trial_index":43,"time_elapsed":109801,"internal_node_id":"0.0-43.0","subject":"S1C1623","sona":"41829","block":5,"time":"2021-09-19T02:19:16.412Z","response":"2nd","certainty":"high","char":"L","transposition":-2,"order":["swapped","shifted"],"probe_pitches":[6,11,6,11,8,6,8,1,3,-1,1,3,6,3,8,3],"shifted_pitches":[6,11,6,11,8,6,8,2,3,-1,1,3,6,3,8,3],"swapped_pitches":[6,11,6,11,8,6,8,3,1,-1,1,3,6,3,8,3],"shift_direction":1,"question_num":31,"has_decoy":false},{"rt":2495.199999988079,"stimulus":"[A] option 1, [L] option 2, [G] neither","key_press":76,"name":"choice","trial_type":"html-keyboard-response","trial_index":54,"time_elapsed":134784,"internal_node_id":"0.0-54.0","subject":"S1C1623","sona":"41829","block":5,"time":"2021-09-19T02:19:16.412Z","response":"2nd","certainty":"high","char":"L","transposition":-1,"order":["shifted","swapped"],"probe_pitches":[10,12,9,4,7,12,15,5,3,8,3,11,12,9,10,9],"shifted_pitches":[10,12,9,4,7,12,15,6,3,8,3,11,12,9,10,9],"swapped_pitches":[10,12,9,4,7,12,15,3,5,8,3,11,12,9,10,9],"shift_direction":1,"question_num":41,"has_decoy":false},{"rt":8856.90000000596,"stimulus":"[A] option 1, [L] option 2, [G] neither","key_press":71,"name":"choice","trial_type":"html-keyboard-response","trial_index":65,"time_elapsed":166085,"internal_node_id":"0.0-65.0","subject":"S1C1623","sona":"41829","block":5,"time":"2021-09-19T02:19:16.412Z","response":"neither","certainty":"high","char":"G","transposition":-3,"order":["shifted","swapped"],"probe_pitches":[14,13,15,8,13,11,12,11,3,12,5,11,12,13,7,3],"shifted_pitches":[14,13,15,8,13,11,12,10,3,12,5,11,12,13,7,3],"swapped_pitches":[14,13,15,8,13,11,12,3,11,12,5,11,12,13,7,3],"shift_direction":-1,"question_num":51,"has_decoy":false},{"rt":2515.2999999821186,"stimulus":"[A] option 1, [L] option 2, [G] neither","key_press":76,"name":"choice","trial_type":"html-keyboard-response","trial_index":76,"time_elapsed":191007,"internal_node_id":"0.0-76.0","subject":"S1C1623","sona":"41829","block":5,"time":"2021-09-19T02:19:16.412Z","response":"2nd","certainty":"high","char":"L","transposition":3,"order":["shifted","swapped"],"probe_pitches":[8,3,8,9,6,11,13,15,11,9,10,15,6,14,13,11],"shifted_pitches":[8,3,8,9,6,11,13,15,12,9,10,15,6,14,13,11],"swapped_pitches":[8,3,8,9,6,11,13,11,15,9,10,15,6,14,13,11],"shift_direction":1,"question_num":61,"has_decoy":false},{"rt":2411.5999999940395,"stimulus":"[A] option 1, [L] option 2, [G] neither","key_press":71,"name":"choice","trial_type":"html-keyboard-response","trial_index":87,"time_elapsed":216296,"internal_node_id":"0.0-87.0","subject":"S1C1623","sona":"41829","block":5,"time":"2021-09-19T02:19:16.412Z","response":"neither","certainty":"high","char":"G","transposition":-3,"order":["shifted","swapped"],"probe_pitches":[14,15,9,3,6,10,15,9,10,6,10,15,11,5,15,4],"shifted_pitches":[14,15,9,3,6,10,15,8,10,6,10,15,11,5,15,4],"swapped_pitches":[14,15,9,3,6,10,15,10,9,6,10,15,11,5,15,4],"shift_direction":-1,"question_num":71,"has_decoy":false},{"rt":3263.2000000178814,"stimulus":"[A] option 1, [L] option 2, [G] neither","key_press":65,"name":"choice","trial_type":"html-keyboard-response","trial_index":98,"time_elapsed":244698,"internal_node_id":"0.0-98.0","subject":"S1C1623","sona":"41829","block":5,"time":"2021-09-19T02:19:16.412Z","response":"1st","certainty":"high","char":"A","transposition":-3,"order":["shifted","swapped"],"probe_pitches":[4,6,2,6,2,-1,6,2,-1,9,-1,6,2,4,11,6],"shifted_pitches":[4,6,2,6,2,-1,6,3,-1,9,-1,6,2,4,11,6],"swapped_pitches":[4,6,2,6,2,-1,6,-1,2,9,-1,6,2,4,11,6],"shift_direction":1,"question_num":81,"has_decoy":false},{"rt":737.4000000059605,"stimulus":"[A] option 1, [L] option 2, [G] neither","key_press":76,"name":"choice","trial_type":"html-keyboard-response","trial_index":109,"time_elapsed":267891,"internal_node_id":"0.0-109.0","subject":"S1C1623","sona":"41829","block":5,"time":"2021-09-19T02:19:16.412Z","response":"2nd","certainty":"high","char":"L","transposition":-1,"order":["swapped","shifted"],"probe_pitches":[11,7,11,7,9,4,-1,4,11,9,11,7,-1,2,-1,2],"shifted_pitches":[11,7,11,7,9,4,-1,4,12,9,11,7,-1,2,-1,2],"swapped_pitches":[11,7,11,7,9,4,-1,11,4,9,11,7,-1,2,-1,2],"shift_direction":1,"question_num":91,"has_decoy":false},{"rt":1349.5,"stimulus":"[A] option 1, [L] option 2, [G] neither","key_press":65,"name":"choice","trial_type":"html-keyboard-response","trial_index":120,"time_elapsed":292135,"internal_node_id":"0.0-120.0","subject":"S1C1623","sona":"41829","block":5,"time":"2021-09-19T02:19:16.412Z","response":"1st","certainty":"high","char":"A","transposition":1,"order":["shifted","swapped"],"probe_pitches":[4,8,1,-1,1,11,8,-1,11,1,6,4,11,-1,1,4],"shifted_pitches":[4,8,1,-1,1,11,8,-1,10,1,6,4,11,-1,1,4],"swapped_pitches":[4,8,1,-1,1,11,8,11,-1,1,6,4,11,-1,1,4],"shift_direction":-1,"question_num":101,"has_decoy":false},{"rt":29476.09999999404,"stimulus":"[A] option 1, [L] option 2, [G] neither","key_press":71,"name":"choice","trial_type":"html-keyboard-response","trial_index":131,"time_elapsed":344101,"internal_node_id":"0.0-131.0","subject":"S1C1623","sona":"41829","block":5,"time":"2021-09-19T02:19:16.412Z","response":"neither","certainty":"high","char":"G","transposition":0,"order":["swapped","shifted"],"probe_pitches":[8,5,3,11,10,4,3,14,10,3,14,5,14,3,10,6],"shifted_pitches":[8,5,3,11,10,4,3,14,9,3,14,5,14,3,10,6],"swapped_pitches":[8,5,3,11,10,4,3,10,14,3,14,5,14,3,10,6],"shift_direction":-1,"question_num":111,"has_decoy":false},{"rt":1542.5,"stimulus":"[A] option 1, [L] option 2, [G] neither","key_press":76,"name":"choice","trial_type":"html-keyboard-response","trial_index":142,"time_elapsed":369425,"internal_node_id":"0.0-142.0","subject":"S1C1623","sona":"41829","block":5,"time":"2021-09-19T02:19:16.412Z","response":"2nd","certainty":"high","char":"L","transposition":-2,"order":["swapped","shifted"],"probe_pitches":[8,10,6,14,9,13,6,5,8,11,12,4,3,11,12,9],"shifted_pitches":[8,10,6,14,9,13,6,5,7,11,12,4,3,11,12,9],"swapped_pitches":[8,10,6,14,9,13,6,8,5,11,12,4,3,11,12,9],"shift_direction":-1,"question_num":121,"has_decoy":false},{"rt":3772.300000011921,"stimulus":"[A] option 1, [L] option 2, [G] neither","key_press":71,"name":"choice","trial_type":"html-keyboard-response","trial_index":153,"time_elapsed":395783,"internal_node_id":"0.0-153.0","subject":"S1C1623","sona":"41829","block":5,"time":"2021-09-19T02:19:16.412Z","response":"neither","certainty":"high","char":"G","transposition":2,"order":["swapped","shifted"],"probe_pitches":[9,8,14,15,13,8,14,4,15,6,3,7,14,8,12,14],"shifted_pitches":[9,8,14,15,13,8,14,5,15,6,3,7,14,8,12,14],"swapped_pitches":[9,8,14,15,13,8,14,15,4,6,3,7,14,8,12,14],"shift_direction":1,"question_num":131,"has_decoy":false},{"rt":3012.199999988079,"stimulus":"[A] option 1, [L] option 2, [G] neither","key_press":65,"name":"choice","trial_type":"html-keyboard-response","trial_index":164,"time_elapsed":422063,"internal_node_id":"0.0-164.0","subject":"S1C1623","sona":"41829","block":5,"time":"2021-09-19T02:19:16.412Z","response":"1st","certainty":"high","char":"A","transposition":-2,"order":["swapped","shifted"],"probe_pitches":[7,3,6,14,5,11,7,14,12,10,5,10,7,6,7,8],"shifted_pitches":[7,3,6,14,5,11,7,14,13,10,5,10,7,6,7,8],"swapped_pitches":[7,3,6,14,5,11,7,12,14,10,5,10,7,6,7,8],"shift_direction":1,"question_num":141,"has_decoy":false},{"rt":1473.4000000059605,"stimulus":"[A] option 1, [L] option 2, [G] neither","key_press":76,"name":"choice","trial_type":"html-keyboard-response","trial_index":175,"time_elapsed":445777,"internal_node_id":"0.0-175.0","subject":"S1C1623","sona":"41829","block":5,"time":"2021-09-19T02:19:16.412Z","response":"2nd","certainty":"high","char":"L","transposition":-3,"order":["swapped","shifted"],"probe_pitches":[2,6,-1,4,9,2,9,4,2,6,4,2,6,-1,4,-1],"shifted_pitches":[2,6,-1,4,9,2,9,3,2,6,4,2,6,-1,4,-1],"swapped_pitches":[2,6,-1,4,9,2,9,2,4,6,4,2,6,-1,4,-1],"shift_direction":-1,"question_num":151,"has_decoy":false},{"rt":6085.300000011921,"stimulus":"[A] option 1, [L] option 2, [G] neither","key_press":71,"name":"choice","trial_type":"html-keyboard-response","trial_index":186,"time_elapsed":475562,"internal_node_id":"0.0-186.0","subject":"S1C1623","sona":"41829","block":5,"time":"2021-09-19T02:19:16.412Z","response":"neither","certainty":"high","char":"G","transposition":2,"order":["shifted","swapped"],"probe_pitches":[-1,3,1,-1,3,6,3,-1,8,3,1,8,-1,1,3,-1],"shifted_pitches":[-1,3,1,-1,3,6,3,-1,9,3,1,8,-1,1,3,-1],"swapped_pitches":[-1,3,1,-1,3,6,3,8,-1,3,1,8,-1,1,3,-1],"shift_direction":1,"question_num":161,"has_decoy":false},{"rt":4194.299999982119,"stimulus":"[A] option 1, [L] option 2, [G] neither","key_press":76,"name":"choice","trial_type":"html-keyboard-response","trial_index":197,"time_elapsed":503058,"internal_node_id":"0.0-197.0","subject":"S1C1623","sona":"41829","block":5,"time":"2021-09-19T02:19:16.412Z","response":"2nd","certainty":"high","char":"L","transposition":3,"order":["swapped","shifted"],"probe_pitches":[11,6,8,11,8,-1,1,-1,4,6,-1,11,6,11,8,6],"shifted_pitches":[11,6,8,11,8,-1,1,-2,4,6,-1,11,6,11,8,6],"swapped_pitches":[11,6,8,11,8,-1,1,4,-1,6,-1,11,6,11,8,6],"shift_direction":-1,"question_num":171,"has_decoy":false},{"rt":12391.299999982119,"stimulus":"[A] option 1, [L] option 2, [G] neither","key_press":76,"name":"choice","trial_type":"html-keyboard-response","trial_index":208,"time_elapsed":538999,"internal_node_id":"0.0-208.0","subject":"S1C1623","sona":"41829","block":5,"time":"2021-09-19T02:19:16.412Z","response":"2nd","certainty":"high","char":"L","transposition":-2,"order":["shifted","swapped"],"probe_pitches":[4,-1,4,6,9,4,-1,9,6,1,9,4,6,-1,11,-1],"shifted_pitches":[4,-1,4,6,9,4,-1,9,5,1,9,4,6,-1,11,-1],"swapped_pitches":[4,-1,4,6,9,4,-1,6,9,1,9,4,6,-1,11,-1],"shift_direction":-1,"question_num":181,"has_decoy":false},{"rt":40858.09999999404,"stimulus":"[A] option 1, [L] option 2, [G] neither","key_press":65,"name":"choice","trial_type":"html-keyboard-response","trial_index":219,"time_elapsed":602367,"internal_node_id":"0.0-219.0","subject":"S1C1623","sona":"41829","block":5,"time":"2021-09-19T02:19:16.412Z","response":"1st","certainty":"high","char":"A","transposition":0,"order":["shifted","swapped"],"probe_pitches":[9,7,2,7,-1,9,4,-1,7,2,11,9,2,4,2,7],"shifted_pitches":[9,7,2,7,-1,9,4,-1,6,2,11,9,2,4,2,7],"swapped_pitches":[9,7,2,7,-1,9,4,7,-1,2,11,9,2,4,2,7],"shift_direction":-1,"question_num":191,"has_decoy":false}]