[{"rt":1273.5999999940395,"stimulus":"[A] option 1, [L] option 2, [G] neither","key_press":76,"name":"choice","trial_type":"html-keyboard-response","trial_index":10,"time_elapsed":29503,"internal_node_id":"0.0-10.0","subject":"S1C1217","sona":"41841","block":4,"time":"2021-09-16T01:52:00.241Z","response":"2nd","certainty":"high","char":"L","transposition":-3,"order":["swapped","shifted"],"probe_pitches":[12,7,14,7,12,5,7,10,2,5,12,5],"shifted_pitches":[12,7,14,7,12,4,7,10,2,5,12,5],"swapped_pitches":[12,7,14,7,12,7,5,10,2,5,12,5],"shift_direction":-1,"question_num":1,"has_decoy":false},{"rt":3481.5999999940395,"stimulus":"[A] option 1, [L] option 2, [G] neither","key_press":71,"name":"choice","trial_type":"html-keyboard-response","trial_index":21,"time_elapsed":52251,"internal_node_id":"0.0-21.0","subject":"S1C1217","sona":"41841","block":4,"time":"2021-09-16T01:52:00.241Z","response":"neither","certainty":"high","char":"G","transposition":-1,"order":["shifted","swapped"],"probe_pitches":[11,7,11,7,9,11,14,4,14,4,14,11],"shifted_pitches":[11,7,11,7,9,12,14,4,14,4,14,11],"swapped_pitches":[11,7,11,7,9,14,11,4,14,4,14,11],"shift_direction":1,"question_num":11,"has_decoy":false},{"rt":1874.8999999761581,"stimulus":"[A] option 1, [L] option 2, [G] neither","key_press":65,"name":"choice","trial_type":"html-keyboard-response","trial_index":32,"time_elapsed":91744,"internal_node_id":"0.0-32.0","subject":"S1C1217","sona":"41841","block":4,"time":"2021-09-16T01:52:00.241Z","response":"1st","certainty":"high","char":"A","transposition":-3,"order":["shifted","swapped"],"probe_pitches":[7,5,10,12,5,14,12,2,5,14,5,2],"shifted_pitches":[7,5,10,12,5,14,13,2,5,14,5,2],"swapped_pitches":[7,5,10,12,5,12,14,2,5,14,5,2],"shift_direction":1,"question_num":21,"has_decoy":false},{"rt":1460.8999999761581,"stimulus":"[A] option 1, [L] option 2, [G] neither","key_press":76,"name":"choice","trial_type":"html-keyboard-response","trial_index":43,"time_elapsed":140303,"internal_node_id":"0.0-43.0","subject":"S1C1217","sona":"41841","block":4,"time":"2021-09-16T01:52:00.241Z","response":"2nd","certainty":"high","char":"L","transposition":2,"order":["shifted","swapped"],"probe_pitches":[11,6,4,9,4,9,11,4,11,14,9,11],"shifted_pitches":[11,6,4,9,4,8,11,4,11,14,9,11],"swapped_pitches":[11,6,4,9,4,11,9,4,11,14,9,11],"shift_direction":-1,"question_num":31,"has_decoy":false},{"rt":8907.699999988079,"stimulus":"[A] option 1, [L] option 2, [G] neither","key_press":71,"name":"choice","trial_type":"html-keyboard-response","trial_index":54,"time_elapsed":170379,"internal_node_id":"0.0-54.0","subject":"S1C1217","sona":"41841","block":4,"time":"2021-09-16T01:52:00.241Z","response":"neither","certainty":"high","char":"G","transposition":-1,"order":["swapped","shifted"],"probe_pitches":[6,9,3,-1,0,8,5,1,2,0,2,-2],"shifted_pitches":[6,9,3,-1,0,7,5,1,2,0,2,-2],"swapped_pitches":[6,9,3,-1,0,5,8,1,2,0,2,-2],"shift_direction":-1,"question_num":41,"has_decoy":false},{"rt":6010.5999999940395,"stimulus":"[A] option 1, [L] option 2, [G] neither","key_press":76,"name":"choice","trial_type":"html-keyboard-response","trial_index":65,"time_elapsed":195842,"internal_node_id":"0.0-65.0","subject":"S1C1217","sona":"41841","block":4,"time":"2021-09-16T01:52:00.241Z","response":"2nd","certainty":"high","char":"L","transposition":-3,"order":["shifted","swapped"],"probe_pitches":[-2,4,0,-2,6,-3,-1,-2,1,-1,4,-3],"shifted_pitches":[-2,4,0,-2,6,-4,-1,-2,1,-1,4,-3],"swapped_pitches":[-2,4,0,-2,6,-1,-3,-2,1,-1,4,-3],"shift_direction":-1,"question_num":51,"has_decoy":false},{"rt":3179.699999988079,"stimulus":"[A] option 1, [L] option 2, [G] neither","key_press":76,"name":"choice","trial_type":"html-keyboard-response","trial_index":76,"time_elapsed":219871,"internal_node_id":"0.0-76.0","subject":"S1C1217","sona":"41841","block":4,"time":"2021-09-16T01:52:00.241Z","response":"2nd","certainty":"high","char":"L","transposition":-2,"order":["swapped","shifted"],"probe_pitches":[-2,0,-3,3,5,3,1,0,9,3,6,-3],"shifted_pitches":[-2,0,-3,3,5,4,1,0,9,3,6,-3],"swapped_pitches":[-2,0,-3,3,5,1,3,0,9,3,6,-3],"shift_direction":1,"question_num":61,"has_decoy":false},{"rt":6082.699999988079,"stimulus":"[A] option 1, [L] option 2, [G] neither","key_press":76,"name":"choice","trial_type":"html-keyboard-response","trial_index":87,"time_elapsed":256355,"internal_node_id":"0.0-87.0","subject":"S1C1217","sona":"41841","block":4,"time":"2021-09-16T01:52:00.241Z","response":"2nd","certainty":"high","char":"L","transposition":-2,"order":["shifted","swapped"],"probe_pitches":[2,7,4,9,14,4,7,2,11,9,14,11],"shifted_pitches":[2,7,4,9,14,4,6,2,11,9,14,11],"swapped_pitches":[2,7,4,9,14,7,4,2,11,9,14,11],"shift_direction":-1,"question_num":71,"has_decoy":false},{"rt":10371.699999988079,"stimulus":"[A] option 1, [L] option 2, [G] neither","key_press":76,"name":"choice","trial_type":"html-keyboard-response","trial_index":98,"time_elapsed":298434,"internal_node_id":"0.0-98.0","subject":"S1C1217","sona":"41841","block":4,"time":"2021-09-16T01:52:00.241Z","response":"2nd","certainty":"high","char":"L","transposition":3,"order":["swapped","shifted"],"probe_pitches":[7,6,9,5,4,5,-1,4,7,1,9,8],"shifted_pitches":[7,6,9,5,4,5,0,4,7,1,9,8],"swapped_pitches":[7,6,9,5,4,-1,5,4,7,1,9,8],"shift_direction":1,"question_num":81,"has_decoy":false},{"rt":598.1000000238419,"stimulus":"[A] option 1, [L] option 2, [G] neither","key_press":65,"name":"choice","trial_type":"html-keyboard-response","trial_index":109,"time_elapsed":318450,"internal_node_id":"0.0-109.0","subject":"S1C1217","sona":"41841","block":4,"time":"2021-09-16T01:52:00.241Z","response":"1st","certainty":"high","char":"A","transposition":3,"order":["shifted","swapped"],"probe_pitches":[5,9,14,7,12,14,5,7,12,2,5,2],"shifted_pitches":[5,9,14,7,12,15,5,7,12,2,5,2],"swapped_pitches":[5,9,14,7,12,5,14,7,12,2,5,2],"shift_direction":1,"question_num":91,"has_decoy":false},{"rt":1480.4000000059605,"stimulus":"[A] option 1, [L] option 2, [G] neither","key_press":65,"name":"choice","trial_type":"html-keyboard-response","trial_index":120,"time_elapsed":348323,"internal_node_id":"0.0-120.0","subject":"S1C1217","sona":"41841","block":4,"time":"2021-09-16T01:52:00.241Z","response":"1st","certainty":"high","char":"A","transposition":1,"order":["shifted","swapped"],"probe_pitches":[9,8,7,6,-3,7,0,8,-3,5,-1,6],"shifted_pitches":[9,8,7,6,-3,7,1,8,-3,5,-1,6],"swapped_pitches":[9,8,7,6,-3,0,7,8,-3,5,-1,6],"shift_direction":1,"question_num":101,"has_decoy":false},{"rt":1657.699999988079,"stimulus":"[A] option 1, [L] option 2, [G] neither","key_press":65,"name":"choice","trial_type":"html-keyboard-response","trial_index":131,"time_elapsed":369550,"internal_node_id":"0.0-131.0","subject":"S1C1217","sona":"41841","block":4,"time":"2021-09-16T01:52:00.241Z","response":"1st","certainty":"high","char":"A","transposition":1,"order":["swapped","shifted"],"probe_pitches":[14,12,9,12,7,4,9,12,7,2,12,2],"shifted_pitches":[14,12,9,12,7,4,8,12,7,2,12,2],"swapped_pitches":[14,12,9,12,7,9,4,12,7,2,12,2],"shift_direction":-1,"question_num":111,"has_decoy":false},{"rt":582.8000000119209,"stimulus":"[A] option 1, [L] option 2, [G] neither","key_press":76,"name":"choice","trial_type":"html-keyboard-response","trial_index":142,"time_elapsed":393976,"internal_node_id":"0.0-142.0","subject":"S1C1217","sona":"41841","block":4,"time":"2021-09-16T01:52:00.241Z","response":"2nd","certainty":"high","char":"L","transposition":0,"order":["swapped","shifted"],"probe_pitches":[12,14,12,5,2,9,7,2,9,2,9,14],"shifted_pitches":[12,14,12,5,2,9,6,2,9,2,9,14],"swapped_pitches":[12,14,12,5,2,7,9,2,9,2,9,14],"shift_direction":-1,"question_num":121,"has_decoy":false},{"rt":554.5,"stimulus":"[A] option 1, [L] option 2, [G] neither","key_press":76,"name":"choice","trial_type":"html-keyboard-response","trial_index":153,"time_elapsed":414327,"internal_node_id":"0.0-153.0","subject":"S1C1217","sona":"41841","block":4,"time":"2021-09-16T01:52:00.241Z","response":"2nd","certainty":"high","char":"L","transposition":-2,"order":["swapped","shifted"],"probe_pitches":[14,12,9,4,9,4,12,14,4,12,14,7],"shifted_pitches":[14,12,9,4,9,4,13,14,4,12,14,7],"swapped_pitches":[14,12,9,4,9,12,4,14,4,12,14,7],"shift_direction":1,"question_num":131,"has_decoy":false},{"rt":3429.7999999821186,"stimulus":"[A] option 1, [L] option 2, [G] neither","key_press":65,"name":"choice","trial_type":"html-keyboard-response","trial_index":164,"time_elapsed":439292,"internal_node_id":"0.0-164.0","subject":"S1C1217","sona":"41841","block":4,"time":"2021-09-16T01:52:00.241Z","response":"1st","certainty":"high","char":"A","transposition":-1,"order":["swapped","shifted"],"probe_pitches":[2,1,7,2,9,7,0,8,1,3,9,-3],"shifted_pitches":[2,1,7,2,9,7,-1,8,1,3,9,-3],"swapped_pitches":[2,1,7,2,9,0,7,8,1,3,9,-3],"shift_direction":-1,"question_num":141,"has_decoy":false},{"rt":560.5,"stimulus":"[A] option 1, [L] option 2, [G] neither","key_press":76,"name":"choice","trial_type":"html-keyboard-response","trial_index":175,"time_elapsed":460202,"internal_node_id":"0.0-175.0","subject":"S1C1217","sona":"41841","block":4,"time":"2021-09-16T01:52:00.241Z","response":"2nd","certainty":"high","char":"L","transposition":-2,"order":["shifted","swapped"],"probe_pitches":[-3,0,1,2,1,6,-1,1,8,1,-2,-3],"shifted_pitches":[-3,0,1,2,1,5,-1,1,8,1,-2,-3],"swapped_pitches":[-3,0,1,2,1,-1,6,1,8,1,-2,-3],"shift_direction":-1,"question_num":151,"has_decoy":false},{"rt":589.9000000059605,"stimulus":"[A] option 1, [L] option 2, [G] neither","key_press":76,"name":"choice","trial_type":"html-keyboard-response","trial_index":186,"time_elapsed":479522,"internal_node_id":"0.0-186.0","subject":"S1C1217","sona":"41841","block":4,"time":"2021-09-16T01:52:00.241Z","response":"2nd","certainty":"high","char":"L","transposition":-1,"order":["swapped","shifted"],"probe_pitches":[9,14,9,6,4,14,11,9,6,14,11,4],"shifted_pitches":[9,14,9,6,4,15,11,9,6,14,11,4],"swapped_pitches":[9,14,9,6,4,11,14,9,6,14,11,4],"shift_direction":1,"question_num":161,"has_decoy":false},{"rt":1489.1000000238419,"stimulus":"[A] option 1, [L] option 2, [G] neither","key_press":76,"name":"choice","trial_type":"html-keyboard-response","trial_index":197,"time_elapsed":500301,"internal_node_id":"0.0-197.0","subject":"S1C1217","sona":"41841","block":4,"time":"2021-09-16T01:52:00.241Z","response":"2nd","certainty":"high","char":"L","transposition":0,"order":["shifted","swapped"],"probe_pitches":[-1,0,6,9,5,4,7,6,-2,6,1,-3],"shifted_pitches":[-1,0,6,9,5,3,7,6,-2,6,1,-3],"swapped_pitches":[-1,0,6,9,5,7,4,6,-2,6,1,-3],"shift_direction":-1,"question_num":171,"has_decoy":false},{"rt":1513.5,"stimulus":"[A] option 1, [L] option 2, [G] neither","key_press":65,"name":"choice","trial_type":"html-keyboard-response","trial_index":208,"time_elapsed":521895,"internal_node_id":"0.0-208.0","subject":"S1C1217","sona":"41841","block":4,"time":"2021-09-16T01:52:00.241Z","response":"1st","certainty":"high","char":"A","transposition":2,"order":["swapped","shifted"],"probe_pitches":[-3,2,4,3,2,9,5,7,1,3,7,9],"shifted_pitches":[-3,2,4,3,2,9,6,7,1,3,7,9],"swapped_pitches":[-3,2,4,3,2,5,9,7,1,3,7,9],"shift_direction":1,"question_num":181,"has_decoy":false},{"rt":1428.5,"stimulus":"[A] option 1, [L] option 2, [G] neither","key_press":65,"name":"choice","trial_type":"html-keyboard-response","trial_index":219,"time_elapsed":542240,"internal_node_id":"0.0-219.0","subject":"S1C1217","sona":"41841","block":4,"time":"2021-09-16T01:52:00.241Z","response":"1st","certainty":"high","char":"A","transposition":-3,"order":["shifted","swapped"],"probe_pitches":[5,4,1,-3,-2,0,1,3,0,-2,3,-2],"shifted_pitches":[5,4,1,-3,-2,0,2,3,0,-2,3,-2],"swapped_pitches":[5,4,1,-3,-2,1,0,3,0,-2,3,-2],"shift_direction":1,"question_num":191,"has_decoy":false}]