[{"rt":1424.9000000059605,"stimulus":"[A] option 1, [L] option 2, [G] neither","key_press":71,"name":"choice","trial_type":"html-keyboard-response","trial_index":10,"time_elapsed":23408,"internal_node_id":"0.0-10.0","subject":"S1C1217","sona":"41841","block":5,"time":"2021-09-16T02:11:40.876Z","response":"neither","certainty":"high","char":"G","transposition":-1,"order":["shifted","swapped"],"probe_pitches":[5,10,7,12,7,10,0,5,12,5,10,2],"shifted_pitches":[5,10,7,12,7,9,0,5,12,5,10,2],"swapped_pitches":[5,10,7,12,7,0,10,5,12,5,10,2],"shift_direction":-1,"question_num":1,"has_decoy":false},{"rt":2025.5999999940395,"stimulus":"[A] option 1, [L] option 2, [G] neither","key_press":71,"name":"choice","trial_type":"html-keyboard-response","trial_index":21,"time_elapsed":44419,"internal_node_id":"0.0-21.0","subject":"S1C1217","sona":"41841","block":5,"time":"2021-09-16T02:11:40.876Z","response":"neither","certainty":"high","char":"G","transposition":1,"order":["swapped","shifted"],"probe_pitches":[10,7,0,2,0,2,12,10,5,0,7,2],"shifted_pitches":[10,7,0,2,0,3,12,10,5,0,7,2],"swapped_pitches":[10,7,0,2,0,12,2,10,5,0,7,2],"shift_direction":1,"question_num":11,"has_decoy":false},{"rt":522.7999999821186,"stimulus":"[A] option 1, [L] option 2, [G] neither","key_press":76,"name":"choice","trial_type":"html-keyboard-response","trial_index":32,"time_elapsed":67527,"internal_node_id":"0.0-32.0","subject":"S1C1217","sona":"41841","block":5,"time":"2021-09-16T02:11:40.876Z","response":"2nd","certainty":"high","char":"L","transposition":-2,"order":["shifted","swapped"],"probe_pitches":[12,10,5,10,3,7,5,3,0,3,10,5],"shifted_pitches":[12,10,5,10,3,6,5,3,0,3,10,5],"swapped_pitches":[12,10,5,10,3,5,7,3,0,3,10,5],"shift_direction":-1,"question_num":21,"has_decoy":false},{"rt":1498.7999999821186,"stimulus":"[A] option 1, [L] option 2, [G] neither","key_press":76,"name":"choice","trial_type":"html-keyboard-response","trial_index":43,"time_elapsed":762219,"internal_node_id":"0.0-43.0","subject":"S1C1217","sona":"41841","block":5,"time":"2021-09-16T02:11:40.876Z","response":"2nd","certainty":"high","char":"L","transposition":-2,"order":["shifted","swapped"],"probe_pitches":[-1,4,0,1,8,2,10,5,11,0,7,10],"shifted_pitches":[-1,4,0,1,8,3,10,5,11,0,7,10],"swapped_pitches":[-1,4,0,1,8,10,2,5,11,0,7,10],"shift_direction":1,"question_num":31,"has_decoy":false},{"rt":1750.9000000059605,"stimulus":"[A] option 1, [L] option 2, [G] neither","key_press":65,"name":"choice","trial_type":"html-keyboard-response","trial_index":54,"time_elapsed":784692,"internal_node_id":"0.0-54.0","subject":"S1C1217","sona":"41841","block":5,"time":"2021-09-16T02:11:40.876Z","response":"1st","certainty":"high","char":"A","transposition":-3,"order":["shifted","swapped"],"probe_pitches":[6,0,5,7,-1,5,7,1,-1,5,8,-1],"shifted_pitches":[6,0,5,7,-1,4,7,1,-1,5,8,-1],"swapped_pitches":[6,0,5,7,-1,7,5,1,-1,5,8,-1],"shift_direction":-1,"question_num":41,"has_decoy":false},{"rt":698.2999999821186,"stimulus":"[A] option 1, [L] option 2, [G] neither","key_press":76,"name":"choice","trial_type":"html-keyboard-response","trial_index":65,"time_elapsed":837712,"internal_node_id":"0.0-65.0","subject":"S1C1217","sona":"41841","block":5,"time":"2021-09-16T02:11:40.876Z","response":"2nd","certainty":"high","char":"L","transposition":2,"order":["swapped","shifted"],"probe_pitches":[12,9,5,2,5,2,7,5,7,5,12,7],"shifted_pitches":[12,9,5,2,5,2,6,5,7,5,12,7],"swapped_pitches":[12,9,5,2,5,7,2,5,7,5,12,7],"shift_direction":-1,"question_num":51,"has_decoy":false},{"rt":1452.800000011921,"stimulus":"[A] option 1, [L] option 2, [G] neither","key_press":76,"name":"choice","trial_type":"html-keyboard-response","trial_index":76,"time_elapsed":859537,"internal_node_id":"0.0-76.0","subject":"S1C1217","sona":"41841","block":5,"time":"2021-09-16T02:11:40.876Z","response":"2nd","certainty":"high","char":"L","transposition":-1,"order":["swapped","shifted"],"probe_pitches":[5,8,9,8,7,0,2,8,4,7,11,8],"shifted_pitches":[5,8,9,8,7,0,1,8,4,7,11,8],"swapped_pitches":[5,8,9,8,7,2,0,8,4,7,11,8],"shift_direction":-1,"question_num":61,"has_decoy":false},{"rt":864.7000000178814,"stimulus":"[A] option 1, [L] option 2, [G] neither","key_press":76,"name":"choice","trial_type":"html-keyboard-response","trial_index":87,"time_elapsed":880246,"internal_node_id":"0.0-87.0","subject":"S1C1217","sona":"41841","block":5,"time":"2021-09-16T02:11:40.876Z","response":"2nd","certainty":"high","char":"L","transposition":-1,"order":["shifted","swapped"],"probe_pitches":[4,1,3,5,-1,3,6,0,1,0,4,2],"shifted_pitches":[4,1,3,5,-1,3,7,0,1,0,4,2],"swapped_pitches":[4,1,3,5,-1,6,3,0,1,0,4,2],"shift_direction":1,"question_num":71,"has_decoy":false},{"rt":852.0999999940395,"stimulus":"[A] option 1, [L] option 2, [G] neither","key_press":76,"name":"choice","trial_type":"html-keyboard-response","trial_index":98,"time_elapsed":901634,"internal_node_id":"0.0-98.0","subject":"S1C1217","sona":"41841","block":5,"time":"2021-09-16T02:11:40.876Z","response":"2nd","certainty":"high","char":"L","transposition":-1,"order":["shifted","swapped"],"probe_pitches":[8,5,8,5,3,8,10,0,8,12,0,10],"shifted_pitches":[8,5,8,5,3,7,10,0,8,12,0,10],"swapped_pitches":[8,5,8,5,3,10,8,0,8,12,0,10],"shift_direction":-1,"question_num":81,"has_decoy":false},{"rt":1779,"stimulus":"[A] option 1, [L] option 2, [G] neither","key_press":65,"name":"choice","trial_type":"html-keyboard-response","trial_index":109,"time_elapsed":923691,"internal_node_id":"0.0-109.0","subject":"S1C1217","sona":"41841","block":5,"time":"2021-09-16T02:11:40.876Z","response":"1st","certainty":"high","char":"A","transposition":1,"order":["shifted","swapped"],"probe_pitches":[1,2,9,5,1,9,2,7,-1,6,1,6],"shifted_pitches":[1,2,9,5,1,10,2,7,-1,6,1,6],"swapped_pitches":[1,2,9,5,1,2,9,7,-1,6,1,6],"shift_direction":1,"question_num":91,"has_decoy":false},{"rt":1756.5,"stimulus":"[A] option 1, [L] option 2, [G] neither","key_press":65,"name":"choice","trial_type":"html-keyboard-response","trial_index":120,"time_elapsed":944140,"internal_node_id":"0.0-120.0","subject":"S1C1217","sona":"41841","block":5,"time":"2021-09-16T02:11:40.876Z","response":"1st","certainty":"high","char":"A","transposition":-3,"order":["swapped","shifted"],"probe_pitches":[0,-1,0,7,9,7,-1,1,2,-1,9,2],"shifted_pitches":[0,-1,0,7,9,8,-1,1,2,-1,9,2],"swapped_pitches":[0,-1,0,7,9,-1,7,1,2,-1,9,2],"shift_direction":1,"question_num":101,"has_decoy":false},{"rt":5510.5,"stimulus":"[A] option 1, [L] option 2, [G] neither","key_press":76,"name":"choice","trial_type":"html-keyboard-response","trial_index":131,"time_elapsed":969304,"internal_node_id":"0.0-131.0","subject":"S1C1217","sona":"41841","block":5,"time":"2021-09-16T02:11:40.876Z","response":"2nd","certainty":"high","char":"L","transposition":-3,"order":["swapped","shifted"],"probe_pitches":[4,0,7,12,7,4,12,7,2,9,4,12],"shifted_pitches":[4,0,7,12,7,4,13,7,2,9,4,12],"swapped_pitches":[4,0,7,12,7,12,4,7,2,9,4,12],"shift_direction":1,"question_num":111,"has_decoy":false},{"rt":38333,"stimulus":"[A] option 1, [L] option 2, [G] neither","key_press":71,"name":"choice","trial_type":"html-keyboard-response","trial_index":142,"time_elapsed":1028207,"internal_node_id":"0.0-142.0","subject":"S1C1217","sona":"41841","block":5,"time":"2021-09-16T02:11:40.876Z","response":"neither","certainty":"high","char":"G","transposition":0,"order":["shifted","swapped"],"probe_pitches":[3,2,0,3,-1,3,4,2,0,10,6,8],"shifted_pitches":[3,2,0,3,-1,3,5,2,0,10,6,8],"swapped_pitches":[3,2,0,3,-1,4,3,2,0,10,6,8],"shift_direction":1,"question_num":121,"has_decoy":false},{"rt":820.5,"stimulus":"[A] option 1, [L] option 2, [G] neither","key_press":76,"name":"choice","trial_type":"html-keyboard-response","trial_index":153,"time_elapsed":1048823,"internal_node_id":"0.0-153.0","subject":"S1C1217","sona":"41841","block":5,"time":"2021-09-16T02:11:40.876Z","response":"2nd","certainty":"high","char":"L","transposition":0,"order":["swapped","shifted"],"probe_pitches":[7,12,9,5,7,0,5,2,9,5,7,0],"shifted_pitches":[7,12,9,5,7,0,6,2,9,5,7,0],"swapped_pitches":[7,12,9,5,7,5,0,2,9,5,7,0],"shift_direction":1,"question_num":131,"has_decoy":false},{"rt":1633,"stimulus":"[A] option 1, [L] option 2, [G] neither","key_press":65,"name":"choice","trial_type":"html-keyboard-response","trial_index":164,"time_elapsed":1071346,"internal_node_id":"0.0-164.0","subject":"S1C1217","sona":"41841","block":5,"time":"2021-09-16T02:11:40.876Z","response":"1st","certainty":"high","char":"A","transposition":-2,"order":["swapped","shifted"],"probe_pitches":[-1,3,-1,4,11,7,3,8,5,1,0,11],"shifted_pitches":[-1,3,-1,4,11,7,2,8,5,1,0,11],"swapped_pitches":[-1,3,-1,4,11,3,7,8,5,1,0,11],"shift_direction":-1,"question_num":141,"has_decoy":false},{"rt":1055.6000000238419,"stimulus":"[A] option 1, [L] option 2, [G] neither","key_press":65,"name":"choice","trial_type":"html-keyboard-response","trial_index":175,"time_elapsed":1091327,"internal_node_id":"0.0-175.0","subject":"S1C1217","sona":"41841","block":5,"time":"2021-09-16T02:11:40.876Z","response":"1st","certainty":"high","char":"A","transposition":3,"order":["swapped","shifted"],"probe_pitches":[2,5,-1,2,9,0,7,-1,4,7,4,8],"shifted_pitches":[2,5,-1,2,9,0,6,-1,4,7,4,8],"swapped_pitches":[2,5,-1,2,9,7,0,-1,4,7,4,8],"shift_direction":-1,"question_num":151,"has_decoy":false},{"rt":1101.800000011921,"stimulus":"[A] option 1, [L] option 2, [G] neither","key_press":76,"name":"choice","trial_type":"html-keyboard-response","trial_index":186,"time_elapsed":1111613,"internal_node_id":"0.0-186.0","subject":"S1C1217","sona":"41841","block":5,"time":"2021-09-16T02:11:40.876Z","response":"2nd","certainty":"high","char":"L","transposition":3,"order":["shifted","swapped"],"probe_pitches":[3,8,3,10,3,0,5,12,10,0,12,8],"shifted_pitches":[3,8,3,10,3,0,6,12,10,0,12,8],"swapped_pitches":[3,8,3,10,3,5,0,12,10,0,12,8],"shift_direction":1,"question_num":161,"has_decoy":false},{"rt":619.7000000178814,"stimulus":"[A] option 1, [L] option 2, [G] neither","key_press":76,"name":"choice","trial_type":"html-keyboard-response","trial_index":197,"time_elapsed":1131281,"internal_node_id":"0.0-197.0","subject":"S1C1217","sona":"41841","block":5,"time":"2021-09-16T02:11:40.876Z","response":"2nd","certainty":"high","char":"L","transposition":2,"order":["swapped","shifted"],"probe_pitches":[5,8,4,0,5,10,6,7,3,-1,1,3],"shifted_pitches":[5,8,4,0,5,9,6,7,3,-1,1,3],"swapped_pitches":[5,8,4,0,5,6,10,7,3,-1,1,3],"shift_direction":-1,"question_num":171,"has_decoy":false},{"rt":1754.2999999821186,"stimulus":"[A] option 1, [L] option 2, [G] neither","key_press":65,"name":"choice","trial_type":"html-keyboard-response","trial_index":208,"time_elapsed":1153726,"internal_node_id":"0.0-208.0","subject":"S1C1217","sona":"41841","block":5,"time":"2021-09-16T02:11:40.876Z","response":"1st","certainty":"high","char":"A","transposition":-3,"order":["shifted","swapped"],"probe_pitches":[0,3,5,3,0,7,12,5,7,0,5,10],"shifted_pitches":[0,3,5,3,0,7,11,5,7,0,5,10],"swapped_pitches":[0,3,5,3,0,12,7,5,7,0,5,10],"shift_direction":-1,"question_num":181,"has_decoy":false},{"rt":1193.300000011921,"stimulus":"[A] option 1, [L] option 2, [G] neither","key_press":76,"name":"choice","trial_type":"html-keyboard-response","trial_index":219,"time_elapsed":1174705,"internal_node_id":"0.0-219.0","subject":"S1C1217","sona":"41841","block":5,"time":"2021-09-16T02:11:40.876Z","response":"2nd","certainty":"high","char":"L","transposition":-2,"order":["swapped","shifted"],"probe_pitches":[2,7,4,9,7,0,4,12,4,0,9,12],"shifted_pitches":[2,7,4,9,7,1,4,12,4,0,9,12],"swapped_pitches":[2,7,4,9,7,4,0,12,4,0,9,12],"shift_direction":1,"question_num":191,"has_decoy":false}]