[{"rt":6109.100000023842,"stimulus":"[A] option 1, [L] option 2, [G] neither","key_press":76,"name":"choice","trial_type":"html-keyboard-response","trial_index":15,"time_elapsed":111699,"internal_node_id":"0.0-15.0","response":"2nd","certainty":"high","char":"L","transposition":-2,"order":["shifted","swapped"],"probe_pitches":[7,11,6,13,7,11,9,4,13,5,6,8],"shifted_pitches":[7,11,6,13,7,10,9,4,13,5,6,8],"swapped_pitches":[7,11,6,13,7,9,11,4,13,5,6,8],"shift_direction":-1,"question_num":1,"has_decoy":false,"subject":"S1C1217","sona":"41841","block":1,"time":"2021-09-16T00:31:25.567Z"},{"rt":4139.0999999940395,"stimulus":"[A] option 1, [L] option 2, [G] neither","key_press":76,"name":"choice","trial_type":"html-keyboard-response","trial_index":26,"time_elapsed":137388,"internal_node_id":"0.0-26.0","response":"2nd","certainty":"high","char":"L","transposition":-1,"order":["swapped","shifted"],"probe_pitches":[1,-2,5,-2,1,-2,3,1,5,3,10,8],"shifted_pitches":[1,-2,5,-2,1,-1,3,1,5,3,10,8],"swapped_pitches":[1,-2,5,-2,1,3,-2,1,5,3,10,8],"shift_direction":1,"question_num":11,"has_decoy":false,"subject":"S1C1217","sona":"41841","block":1,"time":"2021-09-16T00:31:25.567Z"},{"rt":3734.9000000059605,"stimulus":"[A] option 1, [L] option 2, [G] neither","key_press":65,"name":"choice","trial_type":"html-keyboard-response","trial_index":37,"time_elapsed":160793,"internal_node_id":"0.0-37.0","response":"1st","certainty":"high","char":"A","transposition":1,"order":["shifted","swapped"],"probe_pitches":[5,3,6,5,3,12,8,5,10,7,2,13],"shifted_pitches":[5,3,6,5,3,12,9,5,10,7,2,13],"swapped_pitches":[5,3,6,5,3,8,12,5,10,7,2,13],"shift_direction":1,"question_num":21,"has_decoy":false,"subject":"S1C1217","sona":"41841","block":1,"time":"2021-09-16T00:31:25.567Z"},{"rt":4021.300000011921,"stimulus":"[A] option 1, [L] option 2, [G] neither","key_press":76,"name":"choice","trial_type":"html-keyboard-response","trial_index":48,"time_elapsed":184820,"internal_node_id":"0.0-48.0","response":"2nd","certainty":"high","char":"L","transposition":-3,"order":["shifted","swapped"],"probe_pitches":[10,5,0,5,10,3,5,8,5,3,5,-2],"shifted_pitches":[10,5,0,5,10,2,5,8,5,3,5,-2],"swapped_pitches":[10,5,0,5,10,5,3,8,5,3,5,-2],"shift_direction":-1,"question_num":31,"has_decoy":false,"subject":"S1C1217","sona":"41841","block":1,"time":"2021-09-16T00:31:25.567Z"},{"rt":13659,"stimulus":"[A] option 1, [L] option 2, [G] neither","key_press":76,"name":"choice","trial_type":"html-keyboard-response","trial_index":59,"time_elapsed":217888,"internal_node_id":"0.0-59.0","response":"2nd","certainty":"high","char":"L","transposition":-1,"order":["shifted","swapped"],"probe_pitches":[7,5,3,7,5,-2,7,5,0,3,10,5],"shifted_pitches":[7,5,3,7,5,-2,8,5,0,3,10,5],"swapped_pitches":[7,5,3,7,5,7,-2,5,0,3,10,5],"shift_direction":1,"question_num":41,"has_decoy":false,"subject":"S1C1217","sona":"41841","block":1,"time":"2021-09-16T00:31:25.567Z"},{"rt":2131,"stimulus":"[A] option 1, [L] option 2, [G] neither","key_press":65,"name":"choice","trial_type":"html-keyboard-response","trial_index":70,"time_elapsed":239580,"internal_node_id":"0.0-70.0","response":"1st","certainty":"high","char":"A","transposition":-1,"order":["shifted","swapped"],"probe_pitches":[11,13,12,6,9,5,6,11,10,11,5,6],"shifted_pitches":[11,13,12,6,9,5,7,11,10,11,5,6],"swapped_pitches":[11,13,12,6,9,6,5,11,10,11,5,6],"shift_direction":1,"question_num":51,"has_decoy":false,"subject":"S1C1217","sona":"41841","block":1,"time":"2021-09-16T00:31:25.567Z"},{"rt":2799.5999999940395,"stimulus":"[A] option 1, [L] option 2, [G] neither","key_press":76,"name":"choice","trial_type":"html-keyboard-response","trial_index":81,"time_elapsed":262898,"internal_node_id":"0.0-81.0","response":"2nd","certainty":"high","char":"L","transposition":-2,"order":["swapped","shifted"],"probe_pitches":[7,13,7,3,9,13,6,8,6,8,11,10],"shifted_pitches":[7,13,7,3,9,12,6,8,6,8,11,10],"swapped_pitches":[7,13,7,3,9,6,13,8,6,8,11,10],"shift_direction":-1,"question_num":61,"has_decoy":false,"subject":"S1C1217","sona":"41841","block":1,"time":"2021-09-16T00:31:25.567Z"},{"rt":1954.9000000059605,"stimulus":"[A] option 1, [L] option 2, [G] neither","key_press":76,"name":"choice","trial_type":"html-keyboard-response","trial_index":92,"time_elapsed":284005,"internal_node_id":"0.0-92.0","response":"2nd","certainty":"high","char":"L","transposition":2,"order":["swapped","shifted"],"probe_pitches":[0,3,-2,5,7,-2,3,10,-2,7,0,7],"shifted_pitches":[0,3,-2,5,7,-3,3,10,-2,7,0,7],"swapped_pitches":[0,3,-2,5,7,3,-2,10,-2,7,0,7],"shift_direction":-1,"question_num":71,"has_decoy":false,"subject":"S1C1217","sona":"41841","block":1,"time":"2021-09-16T00:31:25.567Z"},{"rt":2613.699999988079,"stimulus":"[A] option 1, [L] option 2, [G] neither","key_press":76,"name":"choice","trial_type":"html-keyboard-response","trial_index":103,"time_elapsed":307263,"internal_node_id":"0.0-103.0","response":"2nd","certainty":"high","char":"L","transposition":-3,"order":["swapped","shifted"],"probe_pitches":[5,8,2,6,11,3,12,11,6,3,12,8],"shifted_pitches":[5,8,2,6,11,3,13,11,6,3,12,8],"swapped_pitches":[5,8,2,6,11,12,3,11,6,3,12,8],"shift_direction":1,"question_num":81,"has_decoy":false,"subject":"S1C1217","sona":"41841","block":1,"time":"2021-09-16T00:31:25.567Z"},{"rt":1606.2999999821186,"stimulus":"[A] option 1, [L] option 2, [G] neither","key_press":65,"name":"choice","trial_type":"html-keyboard-response","trial_index":114,"time_elapsed":357567,"internal_node_id":"0.0-114.0","response":"1st","certainty":"high","char":"A","transposition":2,"order":["shifted","swapped"],"probe_pitches":[10,12,13,5,11,6,7,4,9,11,3,7],"shifted_pitches":[10,12,13,5,11,6,8,4,9,11,3,7],"swapped_pitches":[10,12,13,5,11,7,6,4,9,11,3,7],"shift_direction":1,"question_num":91,"has_decoy":false,"subject":"S1C1217","sona":"41841","block":1,"time":"2021-09-16T00:31:25.567Z"},{"rt":3964.2000000178814,"stimulus":"[A] option 1, [L] option 2, [G] neither","key_press":65,"name":"choice","trial_type":"html-keyboard-response","trial_index":125,"time_elapsed":381935,"internal_node_id":"0.0-125.0","response":"1st","certainty":"high","char":"A","transposition":0,"order":["shifted","swapped"],"probe_pitches":[1,-2,3,-2,3,10,8,-2,6,10,-2,10],"shifted_pitches":[1,-2,3,-2,3,10,9,-2,6,10,-2,10],"swapped_pitches":[1,-2,3,-2,3,8,10,-2,6,10,-2,10],"shift_direction":1,"question_num":101,"has_decoy":false,"subject":"S1C1217","sona":"41841","block":1,"time":"2021-09-16T00:31:25.567Z"},{"rt":1578.9000000059605,"stimulus":"[A] option 1, [L] option 2, [G] neither","key_press":76,"name":"choice","trial_type":"html-keyboard-response","trial_index":136,"time_elapsed":402888,"internal_node_id":"0.0-136.0","response":"2nd","certainty":"high","char":"L","transposition":0,"order":["swapped","shifted"],"probe_pitches":[7,8,2,6,7,10,5,9,8,5,4,7],"shifted_pitches":[7,8,2,6,7,11,5,9,8,5,4,7],"swapped_pitches":[7,8,2,6,7,5,10,9,8,5,4,7],"shift_direction":1,"question_num":111,"has_decoy":false,"subject":"S1C1217","sona":"41841","block":1,"time":"2021-09-16T00:31:25.567Z"},{"rt":5363.5999999940395,"stimulus":"[A] option 1, [L] option 2, [G] neither","key_press":71,"name":"choice","trial_type":"html-keyboard-response","trial_index":147,"time_elapsed":428213,"internal_node_id":"0.0-147.0","response":"neither","certainty":"high","char":"G","transposition":-3,"order":["shifted","swapped"],"probe_pitches":[10,5,2,9,3,13,5,11,5,9,3,5],"shifted_pitches":[10,5,2,9,3,13,4,11,5,9,3,5],"swapped_pitches":[10,5,2,9,3,5,13,11,5,9,3,5],"shift_direction":-1,"question_num":121,"has_decoy":false,"subject":"S1C1217","sona":"41841","block":1,"time":"2021-09-16T00:31:25.567Z"},{"rt":1220.300000011921,"stimulus":"[A] option 1, [L] option 2, [G] neither","key_press":76,"name":"choice","trial_type":"html-keyboard-response","trial_index":158,"time_elapsed":449499,"internal_node_id":"0.0-158.0","response":"2nd","certainty":"high","char":"L","transposition":-2,"order":["swapped","shifted"],"probe_pitches":[-2,2,5,0,2,5,7,10,-2,5,2,10],"shifted_pitches":[-2,2,5,0,2,6,7,10,-2,5,2,10],"swapped_pitches":[-2,2,5,0,2,7,5,10,-2,5,2,10],"shift_direction":1,"question_num":131,"has_decoy":false,"subject":"S1C1217","sona":"41841","block":1,"time":"2021-09-16T00:31:25.567Z"},{"rt":1232,"stimulus":"[A] option 1, [L] option 2, [G] neither","key_press":76,"name":"choice","trial_type":"html-keyboard-response","trial_index":169,"time_elapsed":470511,"internal_node_id":"0.0-169.0","response":"2nd","certainty":"high","char":"L","transposition":-2,"order":["swapped","shifted"],"probe_pitches":[8,3,8,5,8,3,-2,5,3,0,10,0],"shifted_pitches":[8,3,8,5,8,2,-2,5,3,0,10,0],"swapped_pitches":[8,3,8,5,8,-2,3,5,3,0,10,0],"shift_direction":-1,"question_num":141,"has_decoy":false,"subject":"S1C1217","sona":"41841","block":1,"time":"2021-09-16T00:31:25.567Z"},{"rt":3567.9000000059605,"stimulus":"[A] option 1, [L] option 2, [G] neither","key_press":76,"name":"choice","trial_type":"html-keyboard-response","trial_index":180,"time_elapsed":498897,"internal_node_id":"0.0-180.0","response":"2nd","certainty":"high","char":"L","transposition":-1,"order":["swapped","shifted"],"probe_pitches":[10,13,14,7,14,7,3,2,8,10,3,2],"shifted_pitches":[10,13,14,7,14,6,3,2,8,10,3,2],"swapped_pitches":[10,13,14,7,14,3,7,2,8,10,3,2],"shift_direction":-1,"question_num":151,"has_decoy":false,"subject":"S1C1217","sona":"41841","block":1,"time":"2021-09-16T00:31:25.567Z"},{"rt":1612.2000000178814,"stimulus":"[A] option 1, [L] option 2, [G] neither","key_press":65,"name":"choice","trial_type":"html-keyboard-response","trial_index":191,"time_elapsed":520262,"internal_node_id":"0.0-191.0","response":"1st","certainty":"high","char":"A","transposition":-3,"order":["shifted","swapped"],"probe_pitches":[1,-2,1,6,8,6,10,8,3,-2,1,6],"shifted_pitches":[1,-2,1,6,8,6,11,8,3,-2,1,6],"swapped_pitches":[1,-2,1,6,8,10,6,8,3,-2,1,6],"shift_direction":1,"question_num":161,"has_decoy":false,"subject":"S1C1217","sona":"41841","block":1,"time":"2021-09-16T00:31:25.567Z"},{"rt":2215.2999999821186,"stimulus":"[A] option 1, [L] option 2, [G] neither","key_press":76,"name":"choice","trial_type":"html-keyboard-response","trial_index":202,"time_elapsed":542916,"internal_node_id":"0.0-202.0","response":"2nd","certainty":"high","char":"L","transposition":1,"order":["shifted","swapped"],"probe_pitches":[5,3,-2,5,8,10,1,-2,1,-2,1,5],"shifted_pitches":[5,3,-2,5,8,10,0,-2,1,-2,1,5],"swapped_pitches":[5,3,-2,5,8,1,10,-2,1,-2,1,5],"shift_direction":-1,"question_num":171,"has_decoy":false,"subject":"S1C1217","sona":"41841","block":1,"time":"2021-09-16T00:31:25.567Z"},{"rt":1290.800000011921,"stimulus":"[A] option 1, [L] option 2, [G] neither","key_press":76,"name":"choice","trial_type":"html-keyboard-response","trial_index":213,"time_elapsed":563552,"internal_node_id":"0.0-213.0","response":"2nd","certainty":"high","char":"L","transposition":3,"order":["swapped","shifted"],"probe_pitches":[10,5,10,7,2,10,7,2,5,0,5,7],"shifted_pitches":[10,5,10,7,2,10,6,2,5,0,5,7],"swapped_pitches":[10,5,10,7,2,7,10,2,5,0,5,7],"shift_direction":-1,"question_num":181,"has_decoy":false,"subject":"S1C1217","sona":"41841","block":1,"time":"2021-09-16T00:31:25.567Z"},{"rt":3274.2999999821186,"stimulus":"[A] option 1, [L] option 2, [G] neither","key_press":71,"name":"choice","trial_type":"html-keyboard-response","trial_index":224,"time_elapsed":585903,"internal_node_id":"0.0-224.0","response":"neither","certainty":"high","char":"G","transposition":3,"order":["swapped","shifted"],"probe_pitches":[2,3,9,12,3,6,13,2,8,2,14,11],"shifted_pitches":[2,3,9,12,3,5,13,2,8,2,14,11],"swapped_pitches":[2,3,9,12,3,13,6,2,8,2,14,11],"shift_direction":-1,"question_num":191,"has_decoy":false,"subject":"S1C1217","sona":"41841","block":1,"time":"2021-09-16T00:31:25.567Z"}]