[{"rt":1753.4000000059605,"stimulus":"[A] option 1, [L] option 2, [G] neither","key_press":76,"name":"choice","trial_type":"html-keyboard-response","trial_index":10,"time_elapsed":366479,"internal_node_id":"0.0-10.0","subject":"S1C1217","sona":"41841","block":3,"time":"2021-09-16T01:08:08.432Z","response":"2nd","certainty":"high","char":"L","transposition":1,"order":["shifted","swapped"],"probe_pitches":[4,2,-1,2,4,7,9,-1,-3,2,7,2],"shifted_pitches":[4,2,-1,2,4,6,9,-1,-3,2,7,2],"swapped_pitches":[4,2,-1,2,4,9,7,-1,-3,2,7,2],"shift_direction":-1,"question_num":1,"has_decoy":false},{"rt":4212.300000011921,"stimulus":"[A] option 1, [L] option 2, [G] neither","key_press":71,"name":"choice","trial_type":"html-keyboard-response","trial_index":21,"time_elapsed":390198,"internal_node_id":"0.0-21.0","subject":"S1C1217","sona":"41841","block":3,"time":"2021-09-16T01:08:08.432Z","response":"neither","certainty":"high","char":"G","transposition":-1,"order":["shifted","swapped"],"probe_pitches":[11,9,8,1,3,11,2,6,3,1,11,3],"shifted_pitches":[11,9,8,1,3,12,2,6,3,1,11,3],"swapped_pitches":[11,9,8,1,3,2,11,6,3,1,11,3],"shift_direction":1,"question_num":11,"has_decoy":false},{"rt":985.2000000178814,"stimulus":"[A] option 1, [L] option 2, [G] neither","key_press":65,"name":"choice","trial_type":"html-keyboard-response","trial_index":32,"time_elapsed":449346,"internal_node_id":"0.0-32.0","subject":"S1C1217","sona":"41841","block":3,"time":"2021-09-16T01:08:08.432Z","response":"1st","certainty":"high","char":"A","transposition":2,"order":["swapped","shifted"],"probe_pitches":[8,10,13,8,5,10,12,8,10,2,8,4],"shifted_pitches":[8,10,13,8,5,11,12,8,10,2,8,4],"swapped_pitches":[8,10,13,8,5,12,10,8,10,2,8,4],"shift_direction":1,"question_num":21,"has_decoy":false},{"rt":1100.6000000238419,"stimulus":"[A] option 1, [L] option 2, [G] neither","key_press":76,"name":"choice","trial_type":"html-keyboard-response","trial_index":43,"time_elapsed":474831,"internal_node_id":"0.0-43.0","subject":"S1C1217","sona":"41841","block":3,"time":"2021-09-16T01:08:08.432Z","response":"2nd","certainty":"high","char":"L","transposition":3,"order":["swapped","shifted"],"probe_pitches":[7,2,0,-3,5,2,7,5,2,7,-3,7],"shifted_pitches":[7,2,0,-3,5,2,8,5,2,7,-3,7],"swapped_pitches":[7,2,0,-3,5,7,2,5,2,7,-3,7],"shift_direction":1,"question_num":31,"has_decoy":false},{"rt":4403.5,"stimulus":"[A] option 1, [L] option 2, [G] neither","key_press":65,"name":"choice","trial_type":"html-keyboard-response","trial_index":54,"time_elapsed":498423,"internal_node_id":"0.0-54.0","subject":"S1C1217","sona":"41841","block":3,"time":"2021-09-16T01:08:08.432Z","response":"1st","certainty":"high","char":"A","transposition":-1,"order":["shifted","swapped"],"probe_pitches":[4,7,5,11,8,5,2,13,7,11,5,7],"shifted_pitches":[4,7,5,11,8,5,3,13,7,11,5,7],"swapped_pitches":[4,7,5,11,8,2,5,13,7,11,5,7],"shift_direction":1,"question_num":41,"has_decoy":false},{"rt":2064.9000000059605,"stimulus":"[A] option 1, [L] option 2, [G] neither","key_press":76,"name":"choice","trial_type":"html-keyboard-response","trial_index":65,"time_elapsed":521784,"internal_node_id":"0.0-65.0","subject":"S1C1217","sona":"41841","block":3,"time":"2021-09-16T01:08:08.432Z","response":"2nd","certainty":"high","char":"L","transposition":-3,"order":["shifted","swapped"],"probe_pitches":[2,5,0,2,5,0,2,7,9,-3,5,7],"shifted_pitches":[2,5,0,2,5,0,1,7,9,-3,5,7],"swapped_pitches":[2,5,0,2,5,2,0,7,9,-3,5,7],"shift_direction":-1,"question_num":51,"has_decoy":false},{"rt":4507.399999976158,"stimulus":"[A] option 1, [L] option 2, [G] neither","key_press":76,"name":"choice","trial_type":"html-keyboard-response","trial_index":76,"time_elapsed":545987,"internal_node_id":"0.0-76.0","subject":"S1C1217","sona":"41841","block":3,"time":"2021-09-16T01:08:08.432Z","response":"2nd","certainty":"high","char":"L","transposition":-2,"order":["shifted","swapped"],"probe_pitches":[2,1,8,11,8,4,6,3,4,1,11,3],"shifted_pitches":[2,1,8,11,8,4,5,3,4,1,11,3],"swapped_pitches":[2,1,8,11,8,6,4,3,4,1,11,3],"shift_direction":-1,"question_num":61,"has_decoy":false},{"rt":1224.4000000059605,"stimulus":"[A] option 1, [L] option 2, [G] neither","key_press":71,"name":"choice","trial_type":"html-keyboard-response","trial_index":87,"time_elapsed":577819,"internal_node_id":"0.0-87.0","subject":"S1C1217","sona":"41841","block":3,"time":"2021-09-16T01:08:08.432Z","response":"neither","certainty":"high","char":"G","transposition":-3,"order":["swapped","shifted"],"probe_pitches":[1,3,7,4,3,2,7,3,9,12,11,1],"shifted_pitches":[1,3,7,4,3,2,6,3,9,12,11,1],"swapped_pitches":[1,3,7,4,3,7,2,3,9,12,11,1],"shift_direction":-1,"question_num":71,"has_decoy":false},{"rt":1429.5,"stimulus":"[A] option 1, [L] option 2, [G] neither","key_press":76,"name":"choice","trial_type":"html-keyboard-response","trial_index":98,"time_elapsed":601325,"internal_node_id":"0.0-98.0","subject":"S1C1217","sona":"41841","block":3,"time":"2021-09-16T01:08:08.432Z","response":"2nd","certainty":"high","char":"L","transposition":2,"order":["swapped","shifted"],"probe_pitches":[-3,-1,2,-1,4,9,2,-3,6,-3,-1,2],"shifted_pitches":[-3,-1,2,-1,4,8,2,-3,6,-3,-1,2],"swapped_pitches":[-3,-1,2,-1,4,2,9,-3,6,-3,-1,2],"shift_direction":-1,"question_num":81,"has_decoy":false},{"rt":2294.800000011921,"stimulus":"[A] option 1, [L] option 2, [G] neither","key_press":71,"name":"choice","trial_type":"html-keyboard-response","trial_index":109,"time_elapsed":623014,"internal_node_id":"0.0-109.0","subject":"S1C1217","sona":"41841","block":3,"time":"2021-09-16T01:08:08.432Z","response":"neither","certainty":"high","char":"G","transposition":-2,"order":["swapped","shifted"],"probe_pitches":[9,6,4,6,-3,6,4,-1,2,6,-3,6],"shifted_pitches":[9,6,4,6,-3,5,4,-1,2,6,-3,6],"swapped_pitches":[9,6,4,6,-3,4,6,-1,2,6,-3,6],"shift_direction":-1,"question_num":91,"has_decoy":false},{"rt":1137.8999999761581,"stimulus":"[A] option 1, [L] option 2, [G] neither","key_press":65,"name":"choice","trial_type":"html-keyboard-response","trial_index":120,"time_elapsed":645198,"internal_node_id":"0.0-120.0","subject":"S1C1217","sona":"41841","block":3,"time":"2021-09-16T01:08:08.432Z","response":"1st","certainty":"high","char":"A","transposition":3,"order":["shifted","swapped"],"probe_pitches":[1,7,12,5,13,9,6,3,11,5,13,4],"shifted_pitches":[1,7,12,5,13,10,6,3,11,5,13,4],"swapped_pitches":[1,7,12,5,13,6,9,3,11,5,13,4],"shift_direction":1,"question_num":101,"has_decoy":false},{"rt":710.6999999880791,"stimulus":"[A] option 1, [L] option 2, [G] neither","key_press":76,"name":"choice","trial_type":"html-keyboard-response","trial_index":131,"time_elapsed":668881,"internal_node_id":"0.0-131.0","subject":"S1C1217","sona":"41841","block":3,"time":"2021-09-16T01:08:08.432Z","response":"2nd","certainty":"high","char":"L","transposition":-2,"order":["shifted","swapped"],"probe_pitches":[1,3,2,8,6,5,9,10,8,2,3,13],"shifted_pitches":[1,3,2,8,6,4,9,10,8,2,3,13],"swapped_pitches":[1,3,2,8,6,9,5,10,8,2,3,13],"shift_direction":-1,"question_num":111,"has_decoy":false},{"rt":2788.9000000059605,"stimulus":"[A] option 1, [L] option 2, [G] neither","key_press":76,"name":"choice","trial_type":"html-keyboard-response","trial_index":142,"time_elapsed":690799,"internal_node_id":"0.0-142.0","subject":"S1C1217","sona":"41841","block":3,"time":"2021-09-16T01:08:08.432Z","response":"2nd","certainty":"high","char":"L","transposition":-1,"order":["shifted","swapped"],"probe_pitches":[-1,4,2,9,2,-1,7,-3,-1,-3,4,2],"shifted_pitches":[-1,4,2,9,2,0,7,-3,-1,-3,4,2],"swapped_pitches":[-1,4,2,9,2,7,-1,-3,-1,-3,4,2],"shift_direction":1,"question_num":121,"has_decoy":false},{"rt":4809.199999988079,"stimulus":"[A] option 1, [L] option 2, [G] neither","key_press":71,"name":"choice","trial_type":"html-keyboard-response","trial_index":153,"time_elapsed":715600,"internal_node_id":"0.0-153.0","subject":"S1C1217","sona":"41841","block":3,"time":"2021-09-16T01:08:08.432Z","response":"neither","certainty":"high","char":"G","transposition":-1,"order":["shifted","swapped"],"probe_pitches":[7,4,2,7,2,7,0,-3,4,2,0,4],"shifted_pitches":[7,4,2,7,2,7,1,-3,4,2,0,4],"swapped_pitches":[7,4,2,7,2,0,7,-3,4,2,0,4],"shift_direction":1,"question_num":131,"has_decoy":false},{"rt":1464.800000011921,"stimulus":"[A] option 1, [L] option 2, [G] neither","key_press":76,"name":"choice","trial_type":"html-keyboard-response","trial_index":164,"time_elapsed":746145,"internal_node_id":"0.0-164.0","subject":"S1C1217","sona":"41841","block":3,"time":"2021-09-16T01:08:08.432Z","response":"2nd","certainty":"high","char":"L","transposition":-3,"order":["swapped","shifted"],"probe_pitches":[6,12,7,11,4,1,9,6,4,7,13,2],"shifted_pitches":[6,12,7,11,4,1,8,6,4,7,13,2],"swapped_pitches":[6,12,7,11,4,9,1,6,4,7,13,2],"shift_direction":-1,"question_num":141,"has_decoy":false},{"rt":1277.1000000238419,"stimulus":"[A] option 1, [L] option 2, [G] neither","key_press":71,"name":"choice","trial_type":"html-keyboard-response","trial_index":175,"time_elapsed":767097,"internal_node_id":"0.0-175.0","subject":"S1C1217","sona":"41841","block":3,"time":"2021-09-16T01:08:08.432Z","response":"neither","certainty":"high","char":"G","transposition":-3,"order":["swapped","shifted"],"probe_pitches":[1,4,-1,1,-3,4,-1,1,6,4,9,-3],"shifted_pitches":[1,4,-1,1,-3,4,0,1,6,4,9,-3],"swapped_pitches":[1,4,-1,1,-3,-1,4,1,6,4,9,-3],"shift_direction":1,"question_num":151,"has_decoy":false},{"rt":5822.5,"stimulus":"[A] option 1, [L] option 2, [G] neither","key_press":65,"name":"choice","trial_type":"html-keyboard-response","trial_index":186,"time_elapsed":792893,"internal_node_id":"0.0-186.0","subject":"S1C1217","sona":"41841","block":3,"time":"2021-09-16T01:08:08.432Z","response":"1st","certainty":"high","char":"A","transposition":0,"order":["swapped","shifted"],"probe_pitches":[1,2,7,2,10,8,4,1,7,8,10,5],"shifted_pitches":[1,2,7,2,10,9,4,1,7,8,10,5],"swapped_pitches":[1,2,7,2,10,4,8,1,7,8,10,5],"shift_direction":1,"question_num":161,"has_decoy":false},{"rt":2419.5,"stimulus":"[A] option 1, [L] option 2, [G] neither","key_press":65,"name":"choice","trial_type":"html-keyboard-response","trial_index":197,"time_elapsed":814860,"internal_node_id":"0.0-197.0","subject":"S1C1217","sona":"41841","block":3,"time":"2021-09-16T01:08:08.432Z","response":"1st","certainty":"high","char":"A","transposition":1,"order":["swapped","shifted"],"probe_pitches":[11,6,10,4,12,9,8,10,13,4,11,9],"shifted_pitches":[11,6,10,4,12,9,7,10,13,4,11,9],"swapped_pitches":[11,6,10,4,12,8,9,10,13,4,11,9],"shift_direction":-1,"question_num":171,"has_decoy":false},{"rt":504.5,"stimulus":"[A] option 1, [L] option 2, [G] neither","key_press":76,"name":"choice","trial_type":"html-keyboard-response","trial_index":208,"time_elapsed":862636,"internal_node_id":"0.0-208.0","subject":"S1C1217","sona":"41841","block":3,"time":"2021-09-16T01:08:08.432Z","response":"2nd","certainty":"high","char":"L","transposition":-2,"order":["swapped","shifted"],"probe_pitches":[-3,1,-1,6,1,-3,-1,4,6,-1,6,9],"shifted_pitches":[-3,1,-1,6,1,-3,-2,4,6,-1,6,9],"swapped_pitches":[-3,1,-1,6,1,-1,-3,4,6,-1,6,9],"shift_direction":-1,"question_num":181,"has_decoy":false},{"rt":3093,"stimulus":"[A] option 1, [L] option 2, [G] neither","key_press":76,"name":"choice","trial_type":"html-keyboard-response","trial_index":219,"time_elapsed":885705,"internal_node_id":"0.0-219.0","subject":"S1C1217","sona":"41841","block":3,"time":"2021-09-16T01:08:08.432Z","response":"2nd","certainty":"high","char":"L","transposition":0,"order":["shifted","swapped"],"probe_pitches":[-3,0,4,0,9,4,0,2,-3,7,4,9],"shifted_pitches":[-3,0,4,0,9,5,0,2,-3,7,4,9],"swapped_pitches":[-3,0,4,0,9,0,4,2,-3,7,4,9],"shift_direction":1,"question_num":191,"has_decoy":false}]