[{"rt":1146,"stimulus":"[A] option 1, [L] option 2, [G] neither","key_press":76,"name":"choice","trial_type":"html-keyboard-response","trial_index":10,"time_elapsed":21234,"internal_node_id":"0.0-10.0","subject":"S1C1217","sona":"41841","block":6,"time":"2021-09-16T02:31:21.997Z","response":"2nd","certainty":"high","char":"L","transposition":-1,"order":["shifted","swapped"],"probe_pitches":[-1,1,7,8,4,1,10,4,5,4,8,2],"shifted_pitches":[-1,1,7,8,4,0,10,4,5,4,8,2],"swapped_pitches":[-1,1,7,8,4,10,1,4,5,4,8,2],"shift_direction":-1,"question_num":1,"has_decoy":false},{"rt":428.7999999821186,"stimulus":"[A] option 1, [L] option 2, [G] neither","key_press":76,"name":"choice","trial_type":"html-keyboard-response","trial_index":21,"time_elapsed":43316,"internal_node_id":"0.0-21.0","subject":"S1C1217","sona":"41841","block":6,"time":"2021-09-16T02:31:21.997Z","response":"2nd","certainty":"high","char":"L","transposition":-3,"order":["swapped","shifted"],"probe_pitches":[2,5,0,2,7,0,-2,2,0,-2,7,10],"shifted_pitches":[2,5,0,2,7,0,-3,2,0,-2,7,10],"swapped_pitches":[2,5,0,2,7,-2,0,2,0,-2,7,10],"shift_direction":-1,"question_num":11,"has_decoy":false},{"rt":2194.5,"stimulus":"[A] option 1, [L] option 2, [G] neither","key_press":76,"name":"choice","trial_type":"html-keyboard-response","trial_index":32,"time_elapsed":63962,"internal_node_id":"0.0-32.0","subject":"S1C1217","sona":"41841","block":6,"time":"2021-09-16T02:31:21.997Z","response":"2nd","certainty":"high","char":"L","transposition":-1,"order":["swapped","shifted"],"probe_pitches":[5,3,10,5,10,0,8,10,5,-2,0,-2],"shifted_pitches":[5,3,10,5,10,-1,8,10,5,-2,0,-2],"swapped_pitches":[5,3,10,5,10,8,0,10,5,-2,0,-2],"shift_direction":-1,"question_num":21,"has_decoy":false},{"rt":2376.9000000059605,"stimulus":"[A] option 1, [L] option 2, [G] neither","key_press":76,"name":"choice","trial_type":"html-keyboard-response","trial_index":43,"time_elapsed":85054,"internal_node_id":"0.0-43.0","subject":"S1C1217","sona":"41841","block":6,"time":"2021-09-16T02:31:21.997Z","response":"2nd","certainty":"high","char":"L","transposition":-2,"order":["swapped","shifted"],"probe_pitches":[4,9,7,-1,4,1,3,4,10,0,9,-1],"shifted_pitches":[4,9,7,-1,4,2,3,4,10,0,9,-1],"swapped_pitches":[4,9,7,-1,4,3,1,4,10,0,9,-1],"shift_direction":1,"question_num":31,"has_decoy":false},{"rt":577.3000000119209,"stimulus":"[A] option 1, [L] option 2, [G] neither","key_press":76,"name":"choice","trial_type":"html-keyboard-response","trial_index":54,"time_elapsed":105944,"internal_node_id":"0.0-54.0","subject":"S1C1217","sona":"41841","block":6,"time":"2021-09-16T02:31:21.997Z","response":"2nd","certainty":"high","char":"L","transposition":-3,"order":["shifted","swapped"],"probe_pitches":[3,7,4,6,-2,7,4,-2,1,2,1,8],"shifted_pitches":[3,7,4,6,-2,7,5,-2,1,2,1,8],"swapped_pitches":[3,7,4,6,-2,4,7,-2,1,2,1,8],"shift_direction":1,"question_num":41,"has_decoy":false},{"rt":854.5,"stimulus":"[A] option 1, [L] option 2, [G] neither","key_press":76,"name":"choice","trial_type":"html-keyboard-response","trial_index":65,"time_elapsed":126483,"internal_node_id":"0.0-65.0","subject":"S1C1217","sona":"41841","block":6,"time":"2021-09-16T02:31:21.997Z","response":"2nd","certainty":"high","char":"L","transposition":0,"order":["swapped","shifted"],"probe_pitches":[6,5,1,0,-1,8,10,0,5,4,5,-2],"shifted_pitches":[6,5,1,0,-1,7,10,0,5,4,5,-2],"swapped_pitches":[6,5,1,0,-1,10,8,0,5,4,5,-2],"shift_direction":-1,"question_num":51,"has_decoy":false},{"rt":3409.9000000059605,"stimulus":"[A] option 1, [L] option 2, [G] neither","key_press":65,"name":"choice","trial_type":"html-keyboard-response","trial_index":76,"time_elapsed":148408,"internal_node_id":"0.0-76.0","subject":"S1C1217","sona":"41841","block":6,"time":"2021-09-16T02:31:21.997Z","response":"1st","certainty":"high","char":"A","transposition":-2,"order":["shifted","swapped"],"probe_pitches":[10,8,3,4,9,6,2,4,9,2,-1,5],"shifted_pitches":[10,8,3,4,9,6,1,4,9,2,-1,5],"swapped_pitches":[10,8,3,4,9,2,6,4,9,2,-1,5],"shift_direction":-1,"question_num":61,"has_decoy":false},{"rt":1411.800000011921,"stimulus":"[A] option 1, [L] option 2, [G] neither","key_press":76,"name":"choice","trial_type":"html-keyboard-response","trial_index":87,"time_elapsed":299211,"internal_node_id":"0.0-87.0","subject":"S1C1217","sona":"41841","block":6,"time":"2021-09-16T02:31:21.997Z","response":"2nd","certainty":"high","char":"L","transposition":3,"order":["shifted","swapped"],"probe_pitches":[9,5,4,8,-1,2,5,9,7,6,2,8],"shifted_pitches":[9,5,4,8,-1,3,5,9,7,6,2,8],"swapped_pitches":[9,5,4,8,-1,5,2,9,7,6,2,8],"shift_direction":1,"question_num":71,"has_decoy":false},{"rt":693.9000000059605,"stimulus":"[A] option 1, [L] option 2, [G] neither","key_press":76,"name":"choice","trial_type":"html-keyboard-response","trial_index":98,"time_elapsed":322052,"internal_node_id":"0.0-98.0","subject":"S1C1217","sona":"41841","block":6,"time":"2021-09-16T02:31:21.997Z","response":"2nd","certainty":"high","char":"L","transposition":3,"order":["swapped","shifted"],"probe_pitches":[-2,3,8,1,10,1,8,6,1,6,1,3],"shifted_pitches":[-2,3,8,1,10,1,9,6,1,6,1,3],"swapped_pitches":[-2,3,8,1,10,8,1,6,1,6,1,3],"shift_direction":1,"question_num":81,"has_decoy":false},{"rt":1009.1999999880791,"stimulus":"[A] option 1, [L] option 2, [G] neither","key_press":76,"name":"choice","trial_type":"html-keyboard-response","trial_index":109,"time_elapsed":341688,"internal_node_id":"0.0-109.0","subject":"S1C1217","sona":"41841","block":6,"time":"2021-09-16T02:31:21.997Z","response":"2nd","certainty":"high","char":"L","transposition":-2,"order":["shifted","swapped"],"probe_pitches":[5,3,1,3,8,3,5,-2,3,10,1,10],"shifted_pitches":[5,3,1,3,8,4,5,-2,3,10,1,10],"swapped_pitches":[5,3,1,3,8,5,3,-2,3,10,1,10],"shift_direction":1,"question_num":91,"has_decoy":false},{"rt":432,"stimulus":"[A] option 1, [L] option 2, [G] neither","key_press":65,"name":"choice","trial_type":"html-keyboard-response","trial_index":120,"time_elapsed":362090,"internal_node_id":"0.0-120.0","subject":"S1C1217","sona":"41841","block":6,"time":"2021-09-16T02:31:21.997Z","response":"1st","certainty":"high","char":"A","transposition":2,"order":["shifted","swapped"],"probe_pitches":[3,9,3,6,1,5,9,1,3,0,1,2],"shifted_pitches":[3,9,3,6,1,5,8,1,3,0,1,2],"swapped_pitches":[3,9,3,6,1,9,5,1,3,0,1,2],"shift_direction":-1,"question_num":101,"has_decoy":false},{"rt":663.2000000178814,"stimulus":"[A] option 1, [L] option 2, [G] neither","key_press":76,"name":"choice","trial_type":"html-keyboard-response","trial_index":131,"time_elapsed":426504,"internal_node_id":"0.0-131.0","subject":"S1C1217","sona":"41841","block":6,"time":"2021-09-16T02:31:21.997Z","response":"2nd","certainty":"high","char":"L","transposition":-3,"order":["swapped","shifted"],"probe_pitches":[7,10,5,2,7,5,-2,7,-2,0,-2,2],"shifted_pitches":[7,10,5,2,7,4,-2,7,-2,0,-2,2],"swapped_pitches":[7,10,5,2,7,-2,5,7,-2,0,-2,2],"shift_direction":-1,"question_num":111,"has_decoy":false},{"rt":3650,"stimulus":"[A] option 1, [L] option 2, [G] neither","key_press":71,"name":"choice","trial_type":"html-keyboard-response","trial_index":142,"time_elapsed":570149,"internal_node_id":"0.0-142.0","subject":"S1C1217","sona":"41841","block":6,"time":"2021-09-16T02:31:21.997Z","response":"neither","certainty":"high","char":"G","transposition":-2,"order":["shifted","swapped"],"probe_pitches":[0,3,-2,5,8,5,3,8,5,10,8,10],"shifted_pitches":[0,3,-2,5,8,6,3,8,5,10,8,10],"swapped_pitches":[0,3,-2,5,8,3,5,8,5,10,8,10],"shift_direction":1,"question_num":121,"has_decoy":false},{"rt":654.6999999880791,"stimulus":"[A] option 1, [L] option 2, [G] neither","key_press":76,"name":"choice","trial_type":"html-keyboard-response","trial_index":153,"time_elapsed":1038120,"internal_node_id":"0.0-153.0","subject":"S1C1217","sona":"41841","block":6,"time":"2021-09-16T02:31:21.997Z","response":"2nd","certainty":"high","char":"L","transposition":2,"order":["shifted","swapped"],"probe_pitches":[7,10,5,10,3,10,0,7,-2,3,0,7],"shifted_pitches":[7,10,5,10,3,10,1,7,-2,3,0,7],"swapped_pitches":[7,10,5,10,3,0,10,7,-2,3,0,7],"shift_direction":1,"question_num":131,"has_decoy":false},{"rt":530,"stimulus":"[A] option 1, [L] option 2, [G] neither","key_press":76,"name":"choice","trial_type":"html-keyboard-response","trial_index":164,"time_elapsed":1057511,"internal_node_id":"0.0-164.0","subject":"S1C1217","sona":"41841","block":6,"time":"2021-09-16T02:31:21.997Z","response":"2nd","certainty":"high","char":"L","transposition":0,"order":["swapped","shifted"],"probe_pitches":[-2,0,7,10,5,3,0,10,5,3,7,10],"shifted_pitches":[-2,0,7,10,5,2,0,10,5,3,7,10],"swapped_pitches":[-2,0,7,10,5,0,3,10,5,3,7,10],"shift_direction":-1,"question_num":141,"has_decoy":false},{"rt":969.1000000238419,"stimulus":"[A] option 1, [L] option 2, [G] neither","key_press":65,"name":"choice","trial_type":"html-keyboard-response","trial_index":175,"time_elapsed":1082171,"internal_node_id":"0.0-175.0","subject":"S1C1217","sona":"41841","block":6,"time":"2021-09-16T02:31:21.997Z","response":"1st","certainty":"high","char":"A","transposition":1,"order":["shifted","swapped"],"probe_pitches":[8,5,1,5,1,3,5,-2,3,8,1,10],"shifted_pitches":[8,5,1,5,1,3,6,-2,3,8,1,10],"swapped_pitches":[8,5,1,5,1,5,3,-2,3,8,1,10],"shift_direction":1,"question_num":151,"has_decoy":false},{"rt":537.4000000059605,"stimulus":"[A] option 1, [L] option 2, [G] neither","key_press":76,"name":"choice","trial_type":"html-keyboard-response","trial_index":186,"time_elapsed":1105099,"internal_node_id":"0.0-186.0","subject":"S1C1217","sona":"41841","block":6,"time":"2021-09-16T02:31:21.997Z","response":"2nd","certainty":"high","char":"L","transposition":-3,"order":["swapped","shifted"],"probe_pitches":[1,-2,2,7,2,7,-2,1,6,-1,5,10],"shifted_pitches":[1,-2,2,7,2,7,-3,1,6,-1,5,10],"swapped_pitches":[1,-2,2,7,2,-2,7,1,6,-1,5,10],"shift_direction":-1,"question_num":161,"has_decoy":false},{"rt":513.4000000059605,"stimulus":"[A] option 1, [L] option 2, [G] neither","key_press":76,"name":"choice","trial_type":"html-keyboard-response","trial_index":197,"time_elapsed":1124215,"internal_node_id":"0.0-197.0","subject":"S1C1217","sona":"41841","block":6,"time":"2021-09-16T02:31:21.997Z","response":"2nd","certainty":"high","char":"L","transposition":-1,"order":["swapped","shifted"],"probe_pitches":[1,-2,-1,5,-1,8,3,5,-1,3,0,-2],"shifted_pitches":[1,-2,-1,5,-1,8,4,5,-1,3,0,-2],"swapped_pitches":[1,-2,-1,5,-1,3,8,5,-1,3,0,-2],"shift_direction":1,"question_num":171,"has_decoy":false},{"rt":2668.2999999821186,"stimulus":"[A] option 1, [L] option 2, [G] neither","key_press":76,"name":"choice","trial_type":"html-keyboard-response","trial_index":208,"time_elapsed":1148080,"internal_node_id":"0.0-208.0","subject":"S1C1217","sona":"41841","block":6,"time":"2021-09-16T02:31:21.997Z","response":"2nd","certainty":"high","char":"L","transposition":-1,"order":["shifted","swapped"],"probe_pitches":[10,6,1,8,10,8,3,1,10,1,6,-2],"shifted_pitches":[10,6,1,8,10,8,2,1,10,1,6,-2],"swapped_pitches":[10,6,1,8,10,3,8,1,10,1,6,-2],"shift_direction":-1,"question_num":181,"has_decoy":false},{"rt":9184.700000017881,"stimulus":"[A] option 1, [L] option 2, [G] neither","key_press":76,"name":"choice","trial_type":"html-keyboard-response","trial_index":219,"time_elapsed":1176416,"internal_node_id":"0.0-219.0","subject":"S1C1217","sona":"41841","block":6,"time":"2021-09-16T02:31:21.997Z","response":"2nd","certainty":"high","char":"L","transposition":1,"order":["swapped","shifted"],"probe_pitches":[10,5,0,-2,-1,5,7,8,10,3,-2,9],"shifted_pitches":[10,5,0,-2,-1,6,7,8,10,3,-2,9],"swapped_pitches":[10,5,0,-2,-1,7,5,8,10,3,-2,9],"shift_direction":1,"question_num":191,"has_decoy":false}]