[{"rt":5604.9000000059605,"stimulus":"[A] option 1, [L] option 2, [G] neither","key_press":65,"name":"choice","trial_type":"html-keyboard-response","trial_index":10,"time_elapsed":156986,"internal_node_id":"0.0-10.0","subject":"S1C1217","sona":"41841","block":2,"time":"2021-09-16T00:50:12.170Z","response":"1st","certainty":"high","char":"A","transposition":-3,"order":["shifted","swapped"],"probe_pitches":[5,7,2,5,14,10,12,5,10,14,10,14],"shifted_pitches":[5,7,2,5,14,10,11,5,10,14,10,14],"swapped_pitches":[5,7,2,5,14,12,10,5,10,14,10,14],"shift_direction":-1,"question_num":1,"has_decoy":false},{"rt":1558,"stimulus":"[A] option 1, [L] option 2, [G] neither","key_press":65,"name":"choice","trial_type":"html-keyboard-response","trial_index":21,"time_elapsed":199472,"internal_node_id":"0.0-21.0","subject":"S1C1217","sona":"41841","block":2,"time":"2021-09-16T00:50:12.170Z","response":"1st","certainty":"high","char":"A","transposition":-2,"order":["swapped","shifted"],"probe_pitches":[2,0,2,8,1,4,8,9,2,10,4,-1],"shifted_pitches":[2,0,2,8,1,4,7,9,2,10,4,-1],"swapped_pitches":[2,0,2,8,1,8,4,9,2,10,4,-1],"shift_direction":-1,"question_num":11,"has_decoy":false},{"rt":3816.0999999940395,"stimulus":"[A] option 1, [L] option 2, [G] neither","key_press":71,"name":"choice","trial_type":"html-keyboard-response","trial_index":32,"time_elapsed":222081,"internal_node_id":"0.0-32.0","subject":"S1C1217","sona":"41841","block":2,"time":"2021-09-16T00:50:12.170Z","response":"neither","certainty":"high","char":"G","transposition":3,"order":["shifted","swapped"],"probe_pitches":[6,3,9,6,3,0,9,6,7,1,2,4],"shifted_pitches":[6,3,9,6,3,0,8,6,7,1,2,4],"swapped_pitches":[6,3,9,6,3,9,0,6,7,1,2,4],"shift_direction":-1,"question_num":21,"has_decoy":false},{"rt":5347.9000000059605,"stimulus":"[A] option 1, [L] option 2, [G] neither","key_press":76,"name":"choice","trial_type":"html-keyboard-response","trial_index":43,"time_elapsed":247192,"internal_node_id":"0.0-43.0","subject":"S1C1217","sona":"41841","block":2,"time":"2021-09-16T00:50:12.170Z","response":"2nd","certainty":"high","char":"L","transposition":-2,"order":["swapped","shifted"],"probe_pitches":[14,11,7,4,9,11,2,14,2,14,4,9],"shifted_pitches":[14,11,7,4,9,12,2,14,2,14,4,9],"swapped_pitches":[14,11,7,4,9,2,11,14,2,14,4,9],"shift_direction":1,"question_num":31,"has_decoy":false},{"rt":1444.300000011921,"stimulus":"[A] option 1, [L] option 2, [G] neither","key_press":76,"name":"choice","trial_type":"html-keyboard-response","trial_index":54,"time_elapsed":269669,"internal_node_id":"0.0-54.0","subject":"S1C1217","sona":"41841","block":2,"time":"2021-09-16T00:50:12.170Z","response":"2nd","certainty":"high","char":"L","transposition":-3,"order":["swapped","shifted"],"probe_pitches":[9,7,9,10,8,0,5,4,5,1,5,4],"shifted_pitches":[9,7,9,10,8,0,6,4,5,1,5,4],"swapped_pitches":[9,7,9,10,8,5,0,4,5,1,5,4],"shift_direction":1,"question_num":41,"has_decoy":false},{"rt":1297.2000000178814,"stimulus":"[A] option 1, [L] option 2, [G] neither","key_press":76,"name":"choice","trial_type":"html-keyboard-response","trial_index":65,"time_elapsed":290063,"internal_node_id":"0.0-65.0","subject":"S1C1217","sona":"41841","block":2,"time":"2021-09-16T00:50:12.170Z","response":"2nd","certainty":"high","char":"L","transposition":-1,"order":["swapped","shifted"],"probe_pitches":[1,-1,5,8,0,3,7,10,1,5,1,8],"shifted_pitches":[1,-1,5,8,0,4,7,10,1,5,1,8],"swapped_pitches":[1,-1,5,8,0,7,3,10,1,5,1,8],"shift_direction":1,"question_num":51,"has_decoy":false},{"rt":2322.9000000059605,"stimulus":"[A] option 1, [L] option 2, [G] neither","key_press":76,"name":"choice","trial_type":"html-keyboard-response","trial_index":76,"time_elapsed":323298,"internal_node_id":"0.0-76.0","subject":"S1C1217","sona":"41841","block":2,"time":"2021-09-16T00:50:12.170Z","response":"2nd","certainty":"high","char":"L","transposition":2,"order":["swapped","shifted"],"probe_pitches":[14,10,12,5,2,5,7,2,5,2,7,2],"shifted_pitches":[14,10,12,5,2,6,7,2,5,2,7,2],"swapped_pitches":[14,10,12,5,2,7,5,2,5,2,7,2],"shift_direction":1,"question_num":61,"has_decoy":false},{"rt":1328.9000000059605,"stimulus":"[A] option 1, [L] option 2, [G] neither","key_press":65,"name":"choice","trial_type":"html-keyboard-response","trial_index":87,"time_elapsed":353904,"internal_node_id":"0.0-87.0","subject":"S1C1217","sona":"41841","block":2,"time":"2021-09-16T00:50:12.170Z","response":"1st","certainty":"high","char":"A","transposition":-2,"order":["shifted","swapped"],"probe_pitches":[9,12,7,9,2,12,14,4,2,9,2,12],"shifted_pitches":[9,12,7,9,2,12,15,4,2,9,2,12],"swapped_pitches":[9,12,7,9,2,14,12,4,2,9,2,12],"shift_direction":1,"question_num":71,"has_decoy":false},{"rt":1231,"stimulus":"[A] option 1, [L] option 2, [G] neither","key_press":65,"name":"choice","trial_type":"html-keyboard-response","trial_index":98,"time_elapsed":374196,"internal_node_id":"0.0-98.0","subject":"S1C1217","sona":"41841","block":2,"time":"2021-09-16T00:50:12.170Z","response":"1st","certainty":"high","char":"A","transposition":-2,"order":["shifted","swapped"],"probe_pitches":[4,0,7,6,7,1,-1,11,-1,11,8,1],"shifted_pitches":[4,0,7,6,7,1,-2,11,-1,11,8,1],"swapped_pitches":[4,0,7,6,7,-1,1,11,-1,11,8,1],"shift_direction":-1,"question_num":81,"has_decoy":false},{"rt":948.0999999940395,"stimulus":"[A] option 1, [L] option 2, [G] neither","key_press":76,"name":"choice","trial_type":"html-keyboard-response","trial_index":109,"time_elapsed":394123,"internal_node_id":"0.0-109.0","subject":"S1C1217","sona":"41841","block":2,"time":"2021-09-16T00:50:12.170Z","response":"2nd","certainty":"high","char":"L","transposition":-1,"order":["swapped","shifted"],"probe_pitches":[0,5,9,2,7,2,3,9,10,7,0,2],"shifted_pitches":[0,5,9,2,7,1,3,9,10,7,0,2],"swapped_pitches":[0,5,9,2,7,3,2,9,10,7,0,2],"shift_direction":-1,"question_num":91,"has_decoy":false},{"rt":1273.2000000178814,"stimulus":"[A] option 1, [L] option 2, [G] neither","key_press":76,"name":"choice","trial_type":"html-keyboard-response","trial_index":120,"time_elapsed":651602,"internal_node_id":"0.0-120.0","subject":"S1C1217","sona":"41841","block":2,"time":"2021-09-16T00:50:12.170Z","response":"2nd","certainty":"high","char":"L","transposition":1,"order":["shifted","swapped"],"probe_pitches":[4,1,2,6,0,4,1,2,1,9,2,-1],"shifted_pitches":[4,1,2,6,0,3,1,2,1,9,2,-1],"swapped_pitches":[4,1,2,6,0,1,4,2,1,9,2,-1],"shift_direction":-1,"question_num":101,"has_decoy":false},{"rt":9854.40000000596,"stimulus":"[A] option 1, [L] option 2, [G] neither","key_press":76,"name":"choice","trial_type":"html-keyboard-response","trial_index":131,"time_elapsed":682513,"internal_node_id":"0.0-131.0","subject":"S1C1217","sona":"41841","block":2,"time":"2021-09-16T00:50:12.170Z","response":"2nd","certainty":"high","char":"L","transposition":1,"order":["shifted","swapped"],"probe_pitches":[9,11,14,11,14,7,11,4,7,4,2,14],"shifted_pitches":[9,11,14,11,14,7,10,4,7,4,2,14],"swapped_pitches":[9,11,14,11,14,11,7,4,7,4,2,14],"shift_direction":-1,"question_num":111,"has_decoy":false},{"rt":1751.199999988079,"stimulus":"[A] option 1, [L] option 2, [G] neither","key_press":76,"name":"choice","trial_type":"html-keyboard-response","trial_index":142,"time_elapsed":704000,"internal_node_id":"0.0-142.0","subject":"S1C1217","sona":"41841","block":2,"time":"2021-09-16T00:50:12.170Z","response":"2nd","certainty":"high","char":"L","transposition":0,"order":["shifted","swapped"],"probe_pitches":[11,8,4,1,6,2,4,1,4,3,-1,4],"shifted_pitches":[11,8,4,1,6,2,5,1,4,3,-1,4],"swapped_pitches":[11,8,4,1,6,4,2,1,4,3,-1,4],"shift_direction":1,"question_num":121,"has_decoy":false},{"rt":1186.5,"stimulus":"[A] option 1, [L] option 2, [G] neither","key_press":71,"name":"choice","trial_type":"html-keyboard-response","trial_index":153,"time_elapsed":724396,"internal_node_id":"0.0-153.0","subject":"S1C1217","sona":"41841","block":2,"time":"2021-09-16T00:50:12.170Z","response":"neither","certainty":"high","char":"G","transposition":-3,"order":["shifted","swapped"],"probe_pitches":[-1,3,0,5,3,1,10,6,8,5,11,0],"shifted_pitches":[-1,3,0,5,3,2,10,6,8,5,11,0],"swapped_pitches":[-1,3,0,5,3,10,1,6,8,5,11,0],"shift_direction":1,"question_num":131,"has_decoy":false},{"rt":3374,"stimulus":"[A] option 1, [L] option 2, [G] neither","key_press":76,"name":"choice","trial_type":"html-keyboard-response","trial_index":164,"time_elapsed":747013,"internal_node_id":"0.0-164.0","subject":"S1C1217","sona":"41841","block":2,"time":"2021-09-16T00:50:12.170Z","response":"2nd","certainty":"high","char":"L","transposition":0,"order":["shifted","swapped"],"probe_pitches":[2,7,9,14,7,12,9,5,2,7,2,9],"shifted_pitches":[2,7,9,14,7,12,8,5,2,7,2,9],"swapped_pitches":[2,7,9,14,7,9,12,5,2,7,2,9],"shift_direction":-1,"question_num":141,"has_decoy":false},{"rt":933,"stimulus":"[A] option 1, [L] option 2, [G] neither","key_press":76,"name":"choice","trial_type":"html-keyboard-response","trial_index":175,"time_elapsed":767681,"internal_node_id":"0.0-175.0","subject":"S1C1217","sona":"41841","block":2,"time":"2021-09-16T00:50:12.170Z","response":"2nd","certainty":"high","char":"L","transposition":-3,"order":["swapped","shifted"],"probe_pitches":[2,4,2,7,12,4,7,12,14,2,14,9],"shifted_pitches":[2,4,2,7,12,3,7,12,14,2,14,9],"swapped_pitches":[2,4,2,7,12,7,4,12,14,2,14,9],"shift_direction":-1,"question_num":151,"has_decoy":false},{"rt":4832.0999999940395,"stimulus":"[A] option 1, [L] option 2, [G] neither","key_press":76,"name":"choice","trial_type":"html-keyboard-response","trial_index":186,"time_elapsed":792150,"internal_node_id":"0.0-186.0","subject":"S1C1217","sona":"41841","block":2,"time":"2021-09-16T00:50:12.170Z","response":"2nd","certainty":"high","char":"L","transposition":-1,"order":["swapped","shifted"],"probe_pitches":[11,6,4,2,9,2,11,4,14,2,9,2],"shifted_pitches":[11,6,4,2,9,3,11,4,14,2,9,2],"swapped_pitches":[11,6,4,2,9,11,2,4,14,2,9,2],"shift_direction":1,"question_num":161,"has_decoy":false},{"rt":1521.5,"stimulus":"[A] option 1, [L] option 2, [G] neither","key_press":65,"name":"choice","trial_type":"html-keyboard-response","trial_index":197,"time_elapsed":820961,"internal_node_id":"0.0-197.0","subject":"S1C1217","sona":"41841","block":2,"time":"2021-09-16T00:50:12.170Z","response":"1st","certainty":"high","char":"A","transposition":3,"order":["shifted","swapped"],"probe_pitches":[14,9,2,7,2,5,14,2,7,5,14,12],"shifted_pitches":[14,9,2,7,2,5,15,2,7,5,14,12],"swapped_pitches":[14,9,2,7,2,14,5,2,7,5,14,12],"shift_direction":1,"question_num":171,"has_decoy":false},{"rt":1571.5,"stimulus":"[A] option 1, [L] option 2, [G] neither","key_press":76,"name":"choice","trial_type":"html-keyboard-response","trial_index":208,"time_elapsed":842160,"internal_node_id":"0.0-208.0","subject":"S1C1217","sona":"41841","block":2,"time":"2021-09-16T00:50:12.170Z","response":"2nd","certainty":"high","char":"L","transposition":-1,"order":["swapped","shifted"],"probe_pitches":[9,4,6,4,6,9,2,4,11,4,9,2],"shifted_pitches":[9,4,6,4,6,8,2,4,11,4,9,2],"swapped_pitches":[9,4,6,4,6,2,9,4,11,4,9,2],"shift_direction":-1,"question_num":181,"has_decoy":false},{"rt":2929,"stimulus":"[A] option 1, [L] option 2, [G] neither","key_press":71,"name":"choice","trial_type":"html-keyboard-response","trial_index":219,"time_elapsed":864609,"internal_node_id":"0.0-219.0","subject":"S1C1217","sona":"41841","block":2,"time":"2021-09-16T00:50:12.170Z","response":"neither","certainty":"high","char":"G","transposition":2,"order":["swapped","shifted"],"probe_pitches":[3,6,10,8,4,8,-1,0,-1,8,7,2],"shifted_pitches":[3,6,10,8,4,9,-1,0,-1,8,7,2],"swapped_pitches":[3,6,10,8,4,-1,8,0,-1,8,7,2],"shift_direction":1,"question_num":191,"has_decoy":false}]