[{"rt":5749.599999904633,"stimulus":"[A] option 1, [L] option 2, [G] neither","key_press":71,"name":"choice","trial_type":"html-keyboard-response","trial_index":10,"time_elapsed":22405,"internal_node_id":"0.0-10.0","subject":"S1C0828","sona":"41658","block":6,"time":"2021-09-17T18:15:59.380Z","response":"neither","certainty":"high","char":"G","transposition":0,"order":["shifted","swapped"],"probe_pitches":[13,14,11,13,6,8,14,6],"shifted_pitches":[13,14,11,13,7,8,14,6],"swapped_pitches":[13,14,11,6,13,8,14,6],"shift_direction":1,"question_num":1,"has_decoy":false},{"rt":5058.200000286102,"stimulus":"[A] option 1, [L] option 2, [G] neither","key_press":76,"name":"choice","trial_type":"html-keyboard-response","trial_index":21,"time_elapsed":43485,"internal_node_id":"0.0-21.0","subject":"S1C0828","sona":"41658","block":6,"time":"2021-09-17T18:15:59.380Z","response":"2nd","certainty":"high","char":"L","transposition":2,"order":["shifted","swapped"],"probe_pitches":[3,-2,3,5,1,3,1,8],"shifted_pitches":[3,-2,3,5,0,3,1,8],"swapped_pitches":[3,-2,3,1,5,3,1,8],"shift_direction":-1,"question_num":11,"has_decoy":false},{"rt":1934,"stimulus":"[A] option 1, [L] option 2, [G] neither","key_press":65,"name":"choice","trial_type":"html-keyboard-response","trial_index":32,"time_elapsed":60047,"internal_node_id":"0.0-32.0","subject":"S1C0828","sona":"41658","block":6,"time":"2021-09-17T18:15:59.380Z","response":"1st","certainty":"high","char":"A","transposition":-3,"order":["shifted","swapped"],"probe_pitches":[6,3,6,3,11,4,6,9],"shifted_pitches":[6,3,6,2,11,4,6,9],"swapped_pitches":[6,3,6,11,3,4,6,9],"shift_direction":-1,"question_num":21,"has_decoy":false},{"rt":249.30000019073486,"stimulus":"[A] option 1, [L] option 2, [G] neither","key_press":76,"name":"choice","trial_type":"html-keyboard-response","trial_index":43,"time_elapsed":74695,"internal_node_id":"0.0-43.0","subject":"S1C0828","sona":"41658","block":6,"time":"2021-09-17T18:15:59.380Z","response":"2nd","certainty":"high","char":"L","transposition":-1,"order":["swapped","shifted"],"probe_pitches":[-2,0,3,5,8,10,0,5],"shifted_pitches":[-2,0,3,4,8,10,0,5],"swapped_pitches":[-2,0,3,8,5,10,0,5],"shift_direction":-1,"question_num":31,"has_decoy":false},{"rt":258.5,"stimulus":"[A] option 1, [L] option 2, [G] neither","key_press":76,"name":"choice","trial_type":"html-keyboard-response","trial_index":54,"time_elapsed":89352,"internal_node_id":"0.0-54.0","subject":"S1C0828","sona":"41658","block":6,"time":"2021-09-17T18:15:59.380Z","response":"2nd","certainty":"high","char":"L","transposition":-2,"order":["swapped","shifted"],"probe_pitches":[3,5,-2,3,5,-2,8,0],"shifted_pitches":[3,5,-2,4,5,-2,8,0],"swapped_pitches":[3,5,-2,5,3,-2,8,0],"shift_direction":1,"question_num":41,"has_decoy":false},{"rt":2342.4000000953674,"stimulus":"[A] option 1, [L] option 2, [G] neither","key_press":65,"name":"choice","trial_type":"html-keyboard-response","trial_index":65,"time_elapsed":106113,"internal_node_id":"0.0-65.0","subject":"S1C0828","sona":"41658","block":6,"time":"2021-09-17T18:15:59.380Z","response":"1st","certainty":"high","char":"A","transposition":-3,"order":["shifted","swapped"],"probe_pitches":[10,7,0,2,-2,7,0,5],"shifted_pitches":[10,7,0,2,-3,7,0,5],"swapped_pitches":[10,7,0,-2,2,7,0,5],"shift_direction":-1,"question_num":51,"has_decoy":false},{"rt":246.5,"stimulus":"[A] option 1, [L] option 2, [G] neither","key_press":76,"name":"choice","trial_type":"html-keyboard-response","trial_index":76,"time_elapsed":122048,"internal_node_id":"0.0-76.0","subject":"S1C0828","sona":"41658","block":6,"time":"2021-09-17T18:15:59.380Z","response":"2nd","certainty":"high","char":"L","transposition":-2,"order":["swapped","shifted"],"probe_pitches":[10,7,3,7,5,10,0,3],"shifted_pitches":[10,7,3,7,6,10,0,3],"swapped_pitches":[10,7,3,5,7,10,0,3],"shift_direction":1,"question_num":61,"has_decoy":false},{"rt":909.0999999046326,"stimulus":"[A] option 1, [L] option 2, [G] neither","key_press":65,"name":"choice","trial_type":"html-keyboard-response","trial_index":87,"time_elapsed":137320,"internal_node_id":"0.0-87.0","subject":"S1C0828","sona":"41658","block":6,"time":"2021-09-17T18:15:59.380Z","response":"1st","certainty":"high","char":"A","transposition":-1,"order":["shifted","swapped"],"probe_pitches":[12,7,3,6,8,3,9,15],"shifted_pitches":[12,7,3,5,8,3,9,15],"swapped_pitches":[12,7,3,8,6,3,9,15],"shift_direction":-1,"question_num":71,"has_decoy":false},{"rt":586,"stimulus":"[A] option 1, [L] option 2, [G] neither","key_press":65,"name":"choice","trial_type":"html-keyboard-response","trial_index":98,"time_elapsed":152722,"internal_node_id":"0.0-98.0","subject":"S1C0828","sona":"41658","block":6,"time":"2021-09-17T18:15:59.380Z","response":"1st","certainty":"high","char":"A","transposition":-3,"order":["shifted","swapped"],"probe_pitches":[4,6,13,10,5,15,13,7],"shifted_pitches":[4,6,13,9,5,15,13,7],"swapped_pitches":[4,6,13,5,10,15,13,7],"shift_direction":-1,"question_num":81,"has_decoy":false},{"rt":813.9000000953674,"stimulus":"[A] option 1, [L] option 2, [G] neither","key_press":65,"name":"choice","trial_type":"html-keyboard-response","trial_index":109,"time_elapsed":167860,"internal_node_id":"0.0-109.0","subject":"S1C0828","sona":"41658","block":6,"time":"2021-09-17T18:15:59.380Z","response":"1st","certainty":"high","char":"A","transposition":-1,"order":["shifted","swapped"],"probe_pitches":[4,9,8,12,10,7,5,15],"shifted_pitches":[4,9,8,12,11,7,5,15],"swapped_pitches":[4,9,8,10,12,7,5,15],"shift_direction":1,"question_num":91,"has_decoy":false},{"rt":413.8999996185303,"stimulus":"[A] option 1, [L] option 2, [G] neither","key_press":65,"name":"choice","trial_type":"html-keyboard-response","trial_index":120,"time_elapsed":182820,"internal_node_id":"0.0-120.0","subject":"S1C0828","sona":"41658","block":6,"time":"2021-09-17T18:15:59.380Z","response":"1st","certainty":"high","char":"A","transposition":-1,"order":["shifted","swapped"],"probe_pitches":[0,-2,5,7,-2,0,-2,2],"shifted_pitches":[0,-2,5,8,-2,0,-2,2],"swapped_pitches":[0,-2,5,-2,7,0,-2,2],"shift_direction":1,"question_num":101,"has_decoy":false},{"rt":472,"stimulus":"[A] option 1, [L] option 2, [G] neither","key_press":76,"name":"choice","trial_type":"html-keyboard-response","trial_index":131,"time_elapsed":197407,"internal_node_id":"0.0-131.0","subject":"S1C0828","sona":"41658","block":6,"time":"2021-09-17T18:15:59.380Z","response":"2nd","certainty":"high","char":"L","transposition":-2,"order":["swapped","shifted"],"probe_pitches":[15,12,9,12,5,4,11,15],"shifted_pitches":[15,12,9,12,6,4,11,15],"swapped_pitches":[15,12,9,5,12,4,11,15],"shift_direction":1,"question_num":111,"has_decoy":false},{"rt":195,"stimulus":"[A] option 1, [L] option 2, [G] neither","key_press":76,"name":"choice","trial_type":"html-keyboard-response","trial_index":142,"time_elapsed":214568,"internal_node_id":"0.0-142.0","subject":"S1C0828","sona":"41658","block":6,"time":"2021-09-17T18:15:59.380Z","response":"2nd","certainty":"high","char":"L","transposition":3,"order":["swapped","shifted"],"probe_pitches":[8,3,6,14,9,8,14,7],"shifted_pitches":[8,3,6,13,9,8,14,7],"swapped_pitches":[8,3,6,9,14,8,14,7],"shift_direction":-1,"question_num":121,"has_decoy":false},{"rt":277.2000002861023,"stimulus":"[A] option 1, [L] option 2, [G] neither","key_press":76,"name":"choice","trial_type":"html-keyboard-response","trial_index":153,"time_elapsed":229220,"internal_node_id":"0.0-153.0","subject":"S1C0828","sona":"41658","block":6,"time":"2021-09-17T18:15:59.380Z","response":"2nd","certainty":"high","char":"L","transposition":1,"order":["shifted","swapped"],"probe_pitches":[-2,1,3,8,5,10,3,8],"shifted_pitches":[-2,1,3,7,5,10,3,8],"swapped_pitches":[-2,1,3,5,8,10,3,8],"shift_direction":-1,"question_num":131,"has_decoy":false},{"rt":2348.4000000953674,"stimulus":"[A] option 1, [L] option 2, [G] neither","key_press":65,"name":"choice","trial_type":"html-keyboard-response","trial_index":164,"time_elapsed":245863,"internal_node_id":"0.0-164.0","subject":"S1C0828","sona":"41658","block":6,"time":"2021-09-17T18:15:59.380Z","response":"1st","certainty":"high","char":"A","transposition":1,"order":["swapped","shifted"],"probe_pitches":[8,5,3,11,12,8,14,13],"shifted_pitches":[8,5,3,10,12,8,14,13],"swapped_pitches":[8,5,3,12,11,8,14,13],"shift_direction":-1,"question_num":141,"has_decoy":false},{"rt":1641.5999999046326,"stimulus":"[A] option 1, [L] option 2, [G] neither","key_press":76,"name":"choice","trial_type":"html-keyboard-response","trial_index":175,"time_elapsed":261897,"internal_node_id":"0.0-175.0","subject":"S1C0828","sona":"41658","block":6,"time":"2021-09-17T18:15:59.380Z","response":"2nd","certainty":"high","char":"L","transposition":-2,"order":["swapped","shifted"],"probe_pitches":[7,6,3,11,7,5,6,11],"shifted_pitches":[7,6,3,11,8,5,6,11],"swapped_pitches":[7,6,3,7,11,5,6,11],"shift_direction":1,"question_num":151,"has_decoy":false},{"rt":774.5999999046326,"stimulus":"[A] option 1, [L] option 2, [G] neither","key_press":65,"name":"choice","trial_type":"html-keyboard-response","trial_index":186,"time_elapsed":277316,"internal_node_id":"0.0-186.0","subject":"S1C0828","sona":"41658","block":6,"time":"2021-09-17T18:15:59.380Z","response":"1st","certainty":"high","char":"A","transposition":0,"order":["shifted","swapped"],"probe_pitches":[1,3,8,3,6,1,8,-2],"shifted_pitches":[1,3,8,3,5,1,8,-2],"swapped_pitches":[1,3,8,6,3,1,8,-2],"shift_direction":-1,"question_num":161,"has_decoy":false},{"rt":1675.3000001907349,"stimulus":"[A] option 1, [L] option 2, [G] neither","key_press":65,"name":"choice","trial_type":"html-keyboard-response","trial_index":197,"time_elapsed":293540,"internal_node_id":"0.0-197.0","subject":"S1C0828","sona":"41658","block":6,"time":"2021-09-17T18:15:59.380Z","response":"1st","certainty":"high","char":"A","transposition":3,"order":["swapped","shifted"],"probe_pitches":[3,0,7,5,-2,3,-2,3],"shifted_pitches":[3,0,7,6,-2,3,-2,3],"swapped_pitches":[3,0,7,-2,5,3,-2,3],"shift_direction":1,"question_num":171,"has_decoy":false},{"rt":348.59999990463257,"stimulus":"[A] option 1, [L] option 2, [G] neither","key_press":76,"name":"choice","trial_type":"html-keyboard-response","trial_index":208,"time_elapsed":308172,"internal_node_id":"0.0-208.0","subject":"S1C0828","sona":"41658","block":6,"time":"2021-09-17T18:15:59.380Z","response":"2nd","certainty":"high","char":"L","transposition":-3,"order":["swapped","shifted"],"probe_pitches":[1,3,-2,6,10,1,3,8],"shifted_pitches":[1,3,-2,6,11,1,3,8],"swapped_pitches":[1,3,-2,10,6,1,3,8],"shift_direction":1,"question_num":181,"has_decoy":false},{"rt":1976.2999997138977,"stimulus":"[A] option 1, [L] option 2, [G] neither","key_press":76,"name":"choice","trial_type":"html-keyboard-response","trial_index":219,"time_elapsed":324867,"internal_node_id":"0.0-219.0","subject":"S1C0828","sona":"41658","block":6,"time":"2021-09-17T18:15:59.380Z","response":"2nd","certainty":"high","char":"L","transposition":2,"order":["swapped","shifted"],"probe_pitches":[3,8,3,5,11,7,4,7],"shifted_pitches":[3,8,3,5,12,7,4,7],"swapped_pitches":[3,8,3,11,5,7,4,7],"shift_direction":1,"question_num":191,"has_decoy":false}]