[{"rt":816.5999999046326,"stimulus":"[A] option 1, [L] option 2, [G] neither","key_press":76,"name":"choice","trial_type":"html-keyboard-response","trial_index":10,"time_elapsed":24867,"internal_node_id":"0.0-10.0","subject":"S1C0828","sona":"41658","block":2,"time":"2021-09-17T17:49:02.174Z","response":"2nd","certainty":"high","char":"L","transposition":-2,"order":["swapped","shifted"],"probe_pitches":[7,10,5,-2,3,5,0,5],"shifted_pitches":[7,10,5,-3,3,5,0,5],"swapped_pitches":[7,10,5,3,-2,5,0,5],"shift_direction":-1,"question_num":1,"has_decoy":false},{"rt":12407.800000190735,"stimulus":"[A] option 1, [L] option 2, [G] neither","key_press":65,"name":"choice","trial_type":"html-keyboard-response","trial_index":21,"time_elapsed":52778,"internal_node_id":"0.0-21.0","subject":"S1C0828","sona":"41658","block":2,"time":"2021-09-17T17:49:02.174Z","response":"1st","certainty":"high","char":"A","transposition":2,"order":["shifted","swapped"],"probe_pitches":[5,6,4,1,-2,-1,7,0],"shifted_pitches":[5,6,4,2,-2,-1,7,0],"swapped_pitches":[5,6,4,-2,1,-1,7,0],"shift_direction":1,"question_num":11,"has_decoy":false},{"rt":1014,"stimulus":"[A] option 1, [L] option 2, [G] neither","key_press":65,"name":"choice","trial_type":"html-keyboard-response","trial_index":32,"time_elapsed":68956,"internal_node_id":"0.0-32.0","subject":"S1C0828","sona":"41658","block":2,"time":"2021-09-17T17:49:02.174Z","response":"1st","certainty":"high","char":"A","transposition":-3,"order":["swapped","shifted"],"probe_pitches":[10,9,2,6,8,9,4,9],"shifted_pitches":[10,9,2,6,7,9,4,9],"swapped_pitches":[10,9,2,8,6,9,4,9],"shift_direction":-1,"question_num":21,"has_decoy":false},{"rt":298,"stimulus":"[A] option 1, [L] option 2, [G] neither","key_press":76,"name":"choice","trial_type":"html-keyboard-response","trial_index":43,"time_elapsed":84552,"internal_node_id":"0.0-43.0","subject":"S1C0828","sona":"41658","block":2,"time":"2021-09-17T17:49:02.174Z","response":"2nd","certainty":"high","char":"L","transposition":-2,"order":["shifted","swapped"],"probe_pitches":[2,-1,5,7,-1,6,3,4],"shifted_pitches":[2,-1,5,7,0,6,3,4],"swapped_pitches":[2,-1,5,-1,7,6,3,4],"shift_direction":1,"question_num":31,"has_decoy":false},{"rt":793.4000000953674,"stimulus":"[A] option 1, [L] option 2, [G] neither","key_press":65,"name":"choice","trial_type":"html-keyboard-response","trial_index":54,"time_elapsed":99983,"internal_node_id":"0.0-54.0","subject":"S1C0828","sona":"41658","block":2,"time":"2021-09-17T17:49:02.174Z","response":"1st","certainty":"high","char":"A","transposition":1,"order":["shifted","swapped"],"probe_pitches":[8,9,2,0,3,2,7,3],"shifted_pitches":[8,9,2,0,4,2,7,3],"swapped_pitches":[8,9,2,3,0,2,7,3],"shift_direction":1,"question_num":41,"has_decoy":false},{"rt":3013.300000190735,"stimulus":"[A] option 1, [L] option 2, [G] neither","key_press":65,"name":"choice","trial_type":"html-keyboard-response","trial_index":65,"time_elapsed":117564,"internal_node_id":"0.0-65.0","subject":"S1C0828","sona":"41658","block":2,"time":"2021-09-17T17:49:02.174Z","response":"1st","certainty":"high","char":"A","transposition":2,"order":["shifted","swapped"],"probe_pitches":[5,3,0,-2,3,8,10,-2],"shifted_pitches":[5,3,0,-1,3,8,10,-2],"swapped_pitches":[5,3,0,3,-2,8,10,-2],"shift_direction":1,"question_num":51,"has_decoy":false},{"rt":1212.8999996185303,"stimulus":"[A] option 1, [L] option 2, [G] neither","key_press":76,"name":"choice","trial_type":"html-keyboard-response","trial_index":76,"time_elapsed":133182,"internal_node_id":"0.0-76.0","subject":"S1C0828","sona":"41658","block":2,"time":"2021-09-17T17:49:02.174Z","response":"2nd","certainty":"high","char":"L","transposition":3,"order":["swapped","shifted"],"probe_pitches":[0,5,0,3,-2,7,3,0],"shifted_pitches":[0,5,0,3,-1,7,3,0],"swapped_pitches":[0,5,0,-2,3,7,3,0],"shift_direction":1,"question_num":61,"has_decoy":false},{"rt":587,"stimulus":"[A] option 1, [L] option 2, [G] neither","key_press":65,"name":"choice","trial_type":"html-keyboard-response","trial_index":87,"time_elapsed":148196,"internal_node_id":"0.0-87.0","subject":"S1C0828","sona":"41658","block":2,"time":"2021-09-17T17:49:02.174Z","response":"1st","certainty":"high","char":"A","transposition":-3,"order":["shifted","swapped"],"probe_pitches":[-2,0,3,10,8,3,0,5],"shifted_pitches":[-2,0,3,9,8,3,0,5],"swapped_pitches":[-2,0,3,8,10,3,0,5],"shift_direction":-1,"question_num":71,"has_decoy":false},{"rt":304.80000019073486,"stimulus":"[A] option 1, [L] option 2, [G] neither","key_press":76,"name":"choice","trial_type":"html-keyboard-response","trial_index":98,"time_elapsed":162839,"internal_node_id":"0.0-98.0","subject":"S1C0828","sona":"41658","block":2,"time":"2021-09-17T17:49:02.174Z","response":"2nd","certainty":"high","char":"L","transposition":3,"order":["swapped","shifted"],"probe_pitches":[1,6,-1,5,10,3,-1,4],"shifted_pitches":[1,6,-1,5,9,3,-1,4],"swapped_pitches":[1,6,-1,10,5,3,-1,4],"shift_direction":-1,"question_num":81,"has_decoy":false},{"rt":1089,"stimulus":"[A] option 1, [L] option 2, [G] neither","key_press":65,"name":"choice","trial_type":"html-keyboard-response","trial_index":109,"time_elapsed":180208,"internal_node_id":"0.0-109.0","subject":"S1C0828","sona":"41658","block":2,"time":"2021-09-17T17:49:02.174Z","response":"1st","certainty":"high","char":"A","transposition":-1,"order":["shifted","swapped"],"probe_pitches":[5,0,7,9,3,10,1,5],"shifted_pitches":[5,0,7,8,3,10,1,5],"swapped_pitches":[5,0,7,3,9,10,1,5],"shift_direction":-1,"question_num":91,"has_decoy":false},{"rt":2352.9000000953674,"stimulus":"[A] option 1, [L] option 2, [G] neither","key_press":76,"name":"choice","trial_type":"html-keyboard-response","trial_index":120,"time_elapsed":198077,"internal_node_id":"0.0-120.0","subject":"S1C0828","sona":"41658","block":2,"time":"2021-09-17T17:49:02.174Z","response":"2nd","certainty":"high","char":"L","transposition":0,"order":["swapped","shifted"],"probe_pitches":[6,5,-2,2,10,6,0,10],"shifted_pitches":[6,5,-2,3,10,6,0,10],"swapped_pitches":[6,5,-2,10,2,6,0,10],"shift_direction":1,"question_num":101,"has_decoy":false},{"rt":915.6999998092651,"stimulus":"[A] option 1, [L] option 2, [G] neither","key_press":65,"name":"choice","trial_type":"html-keyboard-response","trial_index":131,"time_elapsed":231383,"internal_node_id":"0.0-131.0","subject":"S1C0828","sona":"41658","block":2,"time":"2021-09-17T17:49:02.174Z","response":"1st","certainty":"high","char":"A","transposition":-1,"order":["swapped","shifted"],"probe_pitches":[9,4,8,2,7,8,4,-2],"shifted_pitches":[9,4,8,1,7,8,4,-2],"swapped_pitches":[9,4,8,7,2,8,4,-2],"shift_direction":-1,"question_num":111,"has_decoy":false},{"rt":3103.6000003814697,"stimulus":"[A] option 1, [L] option 2, [G] neither","key_press":65,"name":"choice","trial_type":"html-keyboard-response","trial_index":142,"time_elapsed":249139,"internal_node_id":"0.0-142.0","subject":"S1C0828","sona":"41658","block":2,"time":"2021-09-17T17:49:02.174Z","response":"1st","certainty":"high","char":"A","transposition":-3,"order":["swapped","shifted"],"probe_pitches":[5,0,5,7,10,2,5,10],"shifted_pitches":[5,0,5,8,10,2,5,10],"swapped_pitches":[5,0,5,10,7,2,5,10],"shift_direction":1,"question_num":121,"has_decoy":false},{"rt":513.4000000953674,"stimulus":"[A] option 1, [L] option 2, [G] neither","key_press":65,"name":"choice","trial_type":"html-keyboard-response","trial_index":153,"time_elapsed":263982,"internal_node_id":"0.0-153.0","subject":"S1C0828","sona":"41658","block":2,"time":"2021-09-17T17:49:02.174Z","response":"1st","certainty":"high","char":"A","transposition":-3,"order":["shifted","swapped"],"probe_pitches":[6,1,7,3,4,10,8,9],"shifted_pitches":[6,1,7,3,5,10,8,9],"swapped_pitches":[6,1,7,4,3,10,8,9],"shift_direction":1,"question_num":131,"has_decoy":false},{"rt":989.5,"stimulus":"[A] option 1, [L] option 2, [G] neither","key_press":65,"name":"choice","trial_type":"html-keyboard-response","trial_index":164,"time_elapsed":279267,"internal_node_id":"0.0-164.0","subject":"S1C0828","sona":"41658","block":2,"time":"2021-09-17T17:49:02.174Z","response":"1st","certainty":"high","char":"A","transposition":-2,"order":["swapped","shifted"],"probe_pitches":[7,8,9,7,0,2,0,4],"shifted_pitches":[7,8,9,6,0,2,0,4],"swapped_pitches":[7,8,9,0,7,2,0,4],"shift_direction":-1,"question_num":141,"has_decoy":false},{"rt":257.90000009536743,"stimulus":"[A] option 1, [L] option 2, [G] neither","key_press":76,"name":"choice","trial_type":"html-keyboard-response","trial_index":175,"time_elapsed":293856,"internal_node_id":"0.0-175.0","subject":"S1C0828","sona":"41658","block":2,"time":"2021-09-17T17:49:02.174Z","response":"2nd","certainty":"high","char":"L","transposition":0,"order":["shifted","swapped"],"probe_pitches":[8,10,6,1,10,6,3,8],"shifted_pitches":[8,10,6,1,9,6,3,8],"swapped_pitches":[8,10,6,10,1,6,3,8],"shift_direction":-1,"question_num":151,"has_decoy":false},{"rt":848.5999999046326,"stimulus":"[A] option 1, [L] option 2, [G] neither","key_press":65,"name":"choice","trial_type":"html-keyboard-response","trial_index":186,"time_elapsed":309217,"internal_node_id":"0.0-186.0","subject":"S1C0828","sona":"41658","block":2,"time":"2021-09-17T17:49:02.174Z","response":"1st","certainty":"high","char":"A","transposition":1,"order":["shifted","swapped"],"probe_pitches":[5,8,1,3,-2,1,5,1],"shifted_pitches":[5,8,1,3,-3,1,5,1],"swapped_pitches":[5,8,1,-2,3,1,5,1],"shift_direction":-1,"question_num":161,"has_decoy":false},{"rt":355.5,"stimulus":"[A] option 1, [L] option 2, [G] neither","key_press":76,"name":"choice","trial_type":"html-keyboard-response","trial_index":197,"time_elapsed":323924,"internal_node_id":"0.0-197.0","subject":"S1C0828","sona":"41658","block":2,"time":"2021-09-17T17:49:02.174Z","response":"2nd","certainty":"high","char":"L","transposition":-1,"order":["swapped","shifted"],"probe_pitches":[2,5,-2,2,10,7,0,5],"shifted_pitches":[2,5,-2,2,11,7,0,5],"swapped_pitches":[2,5,-2,10,2,7,0,5],"shift_direction":1,"question_num":171,"has_decoy":false},{"rt":474.8999996185303,"stimulus":"[A] option 1, [L] option 2, [G] neither","key_press":65,"name":"choice","trial_type":"html-keyboard-response","trial_index":208,"time_elapsed":338716,"internal_node_id":"0.0-208.0","subject":"S1C0828","sona":"41658","block":2,"time":"2021-09-17T17:49:02.174Z","response":"1st","certainty":"high","char":"A","transposition":-2,"order":["shifted","swapped"],"probe_pitches":[10,8,6,-2,3,8,-2,1],"shifted_pitches":[10,8,6,-2,4,8,-2,1],"swapped_pitches":[10,8,6,3,-2,8,-2,1],"shift_direction":1,"question_num":181,"has_decoy":false},{"rt":991.0999999046326,"stimulus":"[A] option 1, [L] option 2, [G] neither","key_press":76,"name":"choice","trial_type":"html-keyboard-response","trial_index":219,"time_elapsed":354045,"internal_node_id":"0.0-219.0","subject":"S1C0828","sona":"41658","block":2,"time":"2021-09-17T17:49:02.174Z","response":"2nd","certainty":"high","char":"L","transposition":-1,"order":["swapped","shifted"],"probe_pitches":[3,-2,5,10,8,-2,8,1],"shifted_pitches":[3,-2,5,9,8,-2,8,1],"swapped_pitches":[3,-2,5,8,10,-2,8,1],"shift_direction":-1,"question_num":191,"has_decoy":false}]