[{"rt":3014.0999999046326,"stimulus":"[A] option 1, [L] option 2, [G] neither","key_press":76,"name":"choice","trial_type":"html-keyboard-response","trial_index":10,"time_elapsed":18380,"internal_node_id":"0.0-10.0","subject":"S1C0828","sona":"41658","block":5,"time":"2021-09-17T18:10:30.508Z","response":"2nd","certainty":"high","char":"L","transposition":-2,"order":["swapped","shifted"],"probe_pitches":[-2,3,8,1,10,3,6,10],"shifted_pitches":[-2,3,8,2,10,3,6,10],"swapped_pitches":[-2,3,8,10,1,3,6,10],"shift_direction":1,"question_num":1,"has_decoy":false},{"rt":587.5,"stimulus":"[A] option 1, [L] option 2, [G] neither","key_press":65,"name":"choice","trial_type":"html-keyboard-response","trial_index":21,"time_elapsed":33476,"internal_node_id":"0.0-21.0","subject":"S1C0828","sona":"41658","block":5,"time":"2021-09-17T18:10:30.508Z","response":"1st","certainty":"high","char":"A","transposition":2,"order":["swapped","shifted"],"probe_pitches":[2,5,4,7,0,-1,3,-3],"shifted_pitches":[2,5,4,7,1,-1,3,-3],"swapped_pitches":[2,5,4,0,7,-1,3,-3],"shift_direction":1,"question_num":11,"has_decoy":false},{"rt":524.3999996185303,"stimulus":"[A] option 1, [L] option 2, [G] neither","key_press":65,"name":"choice","trial_type":"html-keyboard-response","trial_index":32,"time_elapsed":48471,"internal_node_id":"0.0-32.0","subject":"S1C0828","sona":"41658","block":5,"time":"2021-09-17T18:10:30.508Z","response":"1st","certainty":"high","char":"A","transposition":-1,"order":["shifted","swapped"],"probe_pitches":[-2,0,5,7,-2,3,7,10],"shifted_pitches":[-2,0,5,7,-3,3,7,10],"swapped_pitches":[-2,0,5,-2,7,3,7,10],"shift_direction":-1,"question_num":21,"has_decoy":false},{"rt":1413.4000000953674,"stimulus":"[A] option 1, [L] option 2, [G] neither","key_press":65,"name":"choice","trial_type":"html-keyboard-response","trial_index":43,"time_elapsed":65539,"internal_node_id":"0.0-43.0","subject":"S1C0828","sona":"41658","block":5,"time":"2021-09-17T18:10:30.508Z","response":"1st","certainty":"high","char":"A","transposition":-3,"order":["swapped","shifted"],"probe_pitches":[5,0,2,0,8,4,0,-2],"shifted_pitches":[5,0,2,0,7,4,0,-2],"swapped_pitches":[5,0,2,8,0,4,0,-2],"shift_direction":-1,"question_num":31,"has_decoy":false},{"rt":1999.5,"stimulus":"[A] option 1, [L] option 2, [G] neither","key_press":65,"name":"choice","trial_type":"html-keyboard-response","trial_index":54,"time_elapsed":83636,"internal_node_id":"0.0-54.0","subject":"S1C0828","sona":"41658","block":5,"time":"2021-09-17T18:10:30.508Z","response":"1st","certainty":"high","char":"A","transposition":-1,"order":["shifted","swapped"],"probe_pitches":[3,5,-2,5,1,3,8,3],"shifted_pitches":[3,5,-2,6,1,3,8,3],"swapped_pitches":[3,5,-2,1,5,3,8,3],"shift_direction":1,"question_num":41,"has_decoy":false},{"rt":148.09999990463257,"stimulus":"[A] option 1, [L] option 2, [G] neither","key_press":76,"name":"choice","trial_type":"html-keyboard-response","trial_index":65,"time_elapsed":98143,"internal_node_id":"0.0-65.0","subject":"S1C0828","sona":"41658","block":5,"time":"2021-09-17T18:10:30.508Z","response":"2nd","certainty":"high","char":"L","transposition":1,"order":["swapped","shifted"],"probe_pitches":[5,10,3,0,5,7,0,3],"shifted_pitches":[5,10,3,0,4,7,0,3],"swapped_pitches":[5,10,3,5,0,7,0,3],"shift_direction":-1,"question_num":51,"has_decoy":false},{"rt":4068.9000000953674,"stimulus":"[A] option 1, [L] option 2, [G] neither","key_press":76,"name":"choice","trial_type":"html-keyboard-response","trial_index":76,"time_elapsed":116741,"internal_node_id":"0.0-76.0","subject":"S1C0828","sona":"41658","block":5,"time":"2021-09-17T18:10:30.508Z","response":"2nd","certainty":"high","char":"L","transposition":2,"order":["swapped","shifted"],"probe_pitches":[5,2,-2,0,5,7,5,2],"shifted_pitches":[5,2,-2,-1,5,7,5,2],"swapped_pitches":[5,2,-2,5,0,7,5,2],"shift_direction":-1,"question_num":61,"has_decoy":false},{"rt":1103,"stimulus":"[A] option 1, [L] option 2, [G] neither","key_press":65,"name":"choice","trial_type":"html-keyboard-response","trial_index":87,"time_elapsed":132162,"internal_node_id":"0.0-87.0","subject":"S1C0828","sona":"41658","block":5,"time":"2021-09-17T18:10:30.508Z","response":"1st","certainty":"high","char":"A","transposition":0,"order":["shifted","swapped"],"probe_pitches":[5,8,3,0,5,10,5,3],"shifted_pitches":[5,8,3,1,5,10,5,3],"swapped_pitches":[5,8,3,5,0,10,5,3],"shift_direction":1,"question_num":71,"has_decoy":false},{"rt":898.8999996185303,"stimulus":"[A] option 1, [L] option 2, [G] neither","key_press":65,"name":"choice","trial_type":"html-keyboard-response","trial_index":98,"time_elapsed":147375,"internal_node_id":"0.0-98.0","subject":"S1C0828","sona":"41658","block":5,"time":"2021-09-17T18:10:30.508Z","response":"1st","certainty":"high","char":"A","transposition":-2,"order":["shifted","swapped"],"probe_pitches":[0,3,-3,3,6,0,-2,-3],"shifted_pitches":[0,3,-3,3,5,0,-2,-3],"swapped_pitches":[0,3,-3,6,3,0,-2,-3],"shift_direction":-1,"question_num":81,"has_decoy":false},{"rt":286.19999980926514,"stimulus":"[A] option 1, [L] option 2, [G] neither","key_press":76,"name":"choice","trial_type":"html-keyboard-response","trial_index":109,"time_elapsed":161974,"internal_node_id":"0.0-109.0","subject":"S1C0828","sona":"41658","block":5,"time":"2021-09-17T18:10:30.508Z","response":"2nd","certainty":"high","char":"L","transposition":-2,"order":["swapped","shifted"],"probe_pitches":[0,5,3,0,-2,8,5,-2],"shifted_pitches":[0,5,3,0,-1,8,5,-2],"swapped_pitches":[0,5,3,-2,0,8,5,-2],"shift_direction":1,"question_num":91,"has_decoy":false},{"rt":640.9000000953674,"stimulus":"[A] option 1, [L] option 2, [G] neither","key_press":65,"name":"choice","trial_type":"html-keyboard-response","trial_index":120,"time_elapsed":177010,"internal_node_id":"0.0-120.0","subject":"S1C0828","sona":"41658","block":5,"time":"2021-09-17T18:10:30.508Z","response":"1st","certainty":"high","char":"A","transposition":-1,"order":["swapped","shifted"],"probe_pitches":[-1,5,-2,-3,3,0,3,1],"shifted_pitches":[-1,5,-2,-4,3,0,3,1],"swapped_pitches":[-1,5,-2,3,-3,0,3,1],"shift_direction":-1,"question_num":101,"has_decoy":false},{"rt":748.7999997138977,"stimulus":"[A] option 1, [L] option 2, [G] neither","key_press":65,"name":"choice","trial_type":"html-keyboard-response","trial_index":131,"time_elapsed":192068,"internal_node_id":"0.0-131.0","subject":"S1C0828","sona":"41658","block":5,"time":"2021-09-17T18:10:30.508Z","response":"1st","certainty":"high","char":"A","transposition":1,"order":["shifted","swapped"],"probe_pitches":[7,3,4,5,7,2,8,2],"shifted_pitches":[7,3,4,6,7,2,8,2],"swapped_pitches":[7,3,4,7,5,2,8,2],"shift_direction":1,"question_num":111,"has_decoy":false},{"rt":552.8000001907349,"stimulus":"[A] option 1, [L] option 2, [G] neither","key_press":65,"name":"choice","trial_type":"html-keyboard-response","trial_index":142,"time_elapsed":206971,"internal_node_id":"0.0-142.0","subject":"S1C0828","sona":"41658","block":5,"time":"2021-09-17T18:10:30.508Z","response":"1st","certainty":"high","char":"A","transposition":3,"order":["shifted","swapped"],"probe_pitches":[5,-1,0,5,1,6,0,6],"shifted_pitches":[5,-1,0,4,1,6,0,6],"swapped_pitches":[5,-1,0,1,5,6,0,6],"shift_direction":-1,"question_num":121,"has_decoy":false},{"rt":383.19999980926514,"stimulus":"[A] option 1, [L] option 2, [G] neither","key_press":76,"name":"choice","trial_type":"html-keyboard-response","trial_index":153,"time_elapsed":222189,"internal_node_id":"0.0-153.0","subject":"S1C0828","sona":"41658","block":5,"time":"2021-09-17T18:10:30.508Z","response":"2nd","certainty":"high","char":"L","transposition":-1,"order":["shifted","swapped"],"probe_pitches":[4,8,4,1,6,0,6,7],"shifted_pitches":[4,8,4,2,6,0,6,7],"swapped_pitches":[4,8,4,6,1,0,6,7],"shift_direction":1,"question_num":131,"has_decoy":false},{"rt":951.7000002861023,"stimulus":"[A] option 1, [L] option 2, [G] neither","key_press":65,"name":"choice","trial_type":"html-keyboard-response","trial_index":164,"time_elapsed":237708,"internal_node_id":"0.0-164.0","subject":"S1C0828","sona":"41658","block":5,"time":"2021-09-17T18:10:30.508Z","response":"1st","certainty":"high","char":"A","transposition":0,"order":["swapped","shifted"],"probe_pitches":[6,0,6,-2,5,6,-3,6],"shifted_pitches":[6,0,6,-1,5,6,-3,6],"swapped_pitches":[6,0,6,5,-2,6,-3,6],"shift_direction":1,"question_num":141,"has_decoy":false},{"rt":737.6000003814697,"stimulus":"[A] option 1, [L] option 2, [G] neither","key_press":65,"name":"choice","trial_type":"html-keyboard-response","trial_index":175,"time_elapsed":252762,"internal_node_id":"0.0-175.0","subject":"S1C0828","sona":"41658","block":5,"time":"2021-09-17T18:10:30.508Z","response":"1st","certainty":"high","char":"A","transposition":3,"order":["shifted","swapped"],"probe_pitches":[2,7,0,2,-2,5,-2,10],"shifted_pitches":[2,7,0,2,-3,5,-2,10],"swapped_pitches":[2,7,0,-2,2,5,-2,10],"shift_direction":-1,"question_num":151,"has_decoy":false},{"rt":575.6999998092651,"stimulus":"[A] option 1, [L] option 2, [G] neither","key_press":65,"name":"choice","trial_type":"html-keyboard-response","trial_index":186,"time_elapsed":267653,"internal_node_id":"0.0-186.0","subject":"S1C0828","sona":"41658","block":5,"time":"2021-09-17T18:10:30.508Z","response":"1st","certainty":"high","char":"A","transposition":-2,"order":["shifted","swapped"],"probe_pitches":[5,6,7,2,4,6,4,-2],"shifted_pitches":[5,6,7,2,3,6,4,-2],"swapped_pitches":[5,6,7,4,2,6,4,-2],"shift_direction":-1,"question_num":161,"has_decoy":false},{"rt":974.6999998092651,"stimulus":"[A] option 1, [L] option 2, [G] neither","key_press":65,"name":"choice","trial_type":"html-keyboard-response","trial_index":197,"time_elapsed":282933,"internal_node_id":"0.0-197.0","subject":"S1C0828","sona":"41658","block":5,"time":"2021-09-17T18:10:30.508Z","response":"1st","certainty":"high","char":"A","transposition":-3,"order":["swapped","shifted"],"probe_pitches":[1,3,8,1,5,-2,3,1],"shifted_pitches":[1,3,8,2,5,-2,3,1],"swapped_pitches":[1,3,8,5,1,-2,3,1],"shift_direction":1,"question_num":171,"has_decoy":false},{"rt":1400.6000003814697,"stimulus":"[A] option 1, [L] option 2, [G] neither","key_press":76,"name":"choice","trial_type":"html-keyboard-response","trial_index":208,"time_elapsed":298799,"internal_node_id":"0.0-208.0","subject":"S1C0828","sona":"41658","block":5,"time":"2021-09-17T18:10:30.508Z","response":"2nd","certainty":"high","char":"L","transposition":-3,"order":["shifted","swapped"],"probe_pitches":[3,8,1,6,10,1,6,-2],"shifted_pitches":[3,8,1,6,9,1,6,-2],"swapped_pitches":[3,8,1,10,6,1,6,-2],"shift_direction":-1,"question_num":181,"has_decoy":false},{"rt":4482.5,"stimulus":"[A] option 1, [L] option 2, [G] neither","key_press":65,"name":"choice","trial_type":"html-keyboard-response","trial_index":219,"time_elapsed":317561,"internal_node_id":"0.0-219.0","subject":"S1C0828","sona":"41658","block":5,"time":"2021-09-17T18:10:30.508Z","response":"1st","certainty":"high","char":"A","transposition":-3,"order":["swapped","shifted"],"probe_pitches":[-1,-2,3,2,-1,1,8,7],"shifted_pitches":[-1,-2,3,2,0,1,8,7],"swapped_pitches":[-1,-2,3,-1,2,1,8,7],"shift_direction":1,"question_num":191,"has_decoy":false}]