[{"rt":233.5,"stimulus":"[A] option 1, [L] option 2, [G] neither","key_press":76,"name":"choice","trial_type":"html-keyboard-response","trial_index":10,"time_elapsed":16914,"internal_node_id":"0.0-10.0","subject":"S1C0828","sona":"41658","block":3,"time":"2021-09-17T17:54:39.145Z","response":"2nd","certainty":"high","char":"L","transposition":-1,"order":["swapped","shifted"],"probe_pitches":[5,8,13,12,10,13,3,12],"shifted_pitches":[5,8,13,12,9,13,3,12],"swapped_pitches":[5,8,13,10,12,13,3,12],"shift_direction":-1,"question_num":1,"has_decoy":false},{"rt":407.90000009536743,"stimulus":"[A] option 1, [L] option 2, [G] neither","key_press":76,"name":"choice","trial_type":"html-keyboard-response","trial_index":21,"time_elapsed":31869,"internal_node_id":"0.0-21.0","subject":"S1C0828","sona":"41658","block":3,"time":"2021-09-17T17:54:39.145Z","response":"2nd","certainty":"high","char":"L","transposition":3,"order":["shifted","swapped"],"probe_pitches":[5,7,14,8,12,4,6,11],"shifted_pitches":[5,7,14,8,13,4,6,11],"swapped_pitches":[5,7,14,12,8,4,6,11],"shift_direction":1,"question_num":11,"has_decoy":false},{"rt":319.19999980926514,"stimulus":"[A] option 1, [L] option 2, [G] neither","key_press":76,"name":"choice","trial_type":"html-keyboard-response","trial_index":32,"time_elapsed":46866,"internal_node_id":"0.0-32.0","subject":"S1C0828","sona":"41658","block":3,"time":"2021-09-17T17:54:39.145Z","response":"2nd","certainty":"high","char":"L","transposition":-2,"order":["swapped","shifted"],"probe_pitches":[-3,-1,1,4,9,-1,6,-3],"shifted_pitches":[-3,-1,1,4,10,-1,6,-3],"swapped_pitches":[-3,-1,1,9,4,-1,6,-3],"shift_direction":1,"question_num":21,"has_decoy":false},{"rt":12108.400000095367,"stimulus":"[A] option 1, [L] option 2, [G] neither","key_press":76,"name":"choice","trial_type":"html-keyboard-response","trial_index":43,"time_elapsed":73378,"internal_node_id":"0.0-43.0","subject":"S1C0828","sona":"41658","block":3,"time":"2021-09-17T17:54:39.145Z","response":"2nd","certainty":"high","char":"L","transposition":-1,"order":["swapped","shifted"],"probe_pitches":[10,14,9,13,4,6,13,6],"shifted_pitches":[10,14,9,13,5,6,13,6],"swapped_pitches":[10,14,9,4,13,6,13,6],"shift_direction":1,"question_num":31,"has_decoy":false},{"rt":395,"stimulus":"[A] option 1, [L] option 2, [G] neither","key_press":76,"name":"choice","trial_type":"html-keyboard-response","trial_index":54,"time_elapsed":88402,"internal_node_id":"0.0-54.0","subject":"S1C0828","sona":"41658","block":3,"time":"2021-09-17T17:54:39.145Z","response":"2nd","certainty":"high","char":"L","transposition":-3,"order":["shifted","swapped"],"probe_pitches":[11,12,13,6,3,11,12,8],"shifted_pitches":[11,12,13,7,3,11,12,8],"swapped_pitches":[11,12,13,3,6,11,12,8],"shift_direction":1,"question_num":41,"has_decoy":false},{"rt":5439.300000190735,"stimulus":"[A] option 1, [L] option 2, [G] neither","key_press":71,"name":"choice","trial_type":"html-keyboard-response","trial_index":65,"time_elapsed":108112,"internal_node_id":"0.0-65.0","subject":"S1C0828","sona":"41658","block":3,"time":"2021-09-17T17:54:39.145Z","response":"neither","certainty":"high","char":"G","transposition":0,"order":["shifted","swapped"],"probe_pitches":[2,4,10,7,5,8,14,2],"shifted_pitches":[2,4,10,6,5,8,14,2],"swapped_pitches":[2,4,10,5,7,8,14,2],"shift_direction":-1,"question_num":51,"has_decoy":false},{"rt":6712.5,"stimulus":"[A] option 1, [L] option 2, [G] neither","key_press":65,"name":"choice","trial_type":"html-keyboard-response","trial_index":76,"time_elapsed":129632,"internal_node_id":"0.0-76.0","subject":"S1C0828","sona":"41658","block":3,"time":"2021-09-17T17:54:39.145Z","response":"1st","certainty":"high","char":"A","transposition":-3,"order":["shifted","swapped"],"probe_pitches":[2,5,9,10,5,13,2,14],"shifted_pitches":[2,5,9,11,5,13,2,14],"swapped_pitches":[2,5,9,5,10,13,2,14],"shift_direction":1,"question_num":61,"has_decoy":false},{"rt":1873.9000000953674,"stimulus":"[A] option 1, [L] option 2, [G] neither","key_press":76,"name":"choice","trial_type":"html-keyboard-response","trial_index":87,"time_elapsed":146263,"internal_node_id":"0.0-87.0","subject":"S1C0828","sona":"41658","block":3,"time":"2021-09-17T17:54:39.145Z","response":"2nd","certainty":"high","char":"L","transposition":1,"order":["shifted","swapped"],"probe_pitches":[6,2,4,6,9,2,-1,9],"shifted_pitches":[6,2,4,6,8,2,-1,9],"swapped_pitches":[6,2,4,9,6,2,-1,9],"shift_direction":-1,"question_num":71,"has_decoy":false},{"rt":255.09999990463257,"stimulus":"[A] option 1, [L] option 2, [G] neither","key_press":76,"name":"choice","trial_type":"html-keyboard-response","trial_index":98,"time_elapsed":161567,"internal_node_id":"0.0-98.0","subject":"S1C0828","sona":"41658","block":3,"time":"2021-09-17T17:54:39.145Z","response":"2nd","certainty":"high","char":"L","transposition":-2,"order":["swapped","shifted"],"probe_pitches":[14,10,4,9,11,13,6,5],"shifted_pitches":[14,10,4,8,11,13,6,5],"swapped_pitches":[14,10,4,11,9,13,6,5],"shift_direction":-1,"question_num":81,"has_decoy":false},{"rt":324.90000009536743,"stimulus":"[A] option 1, [L] option 2, [G] neither","key_press":76,"name":"choice","trial_type":"html-keyboard-response","trial_index":109,"time_elapsed":176167,"internal_node_id":"0.0-109.0","subject":"S1C0828","sona":"41658","block":3,"time":"2021-09-17T17:54:39.145Z","response":"2nd","certainty":"high","char":"L","transposition":-2,"order":["shifted","swapped"],"probe_pitches":[7,2,7,2,9,-1,4,7],"shifted_pitches":[7,2,7,2,10,-1,4,7],"swapped_pitches":[7,2,7,9,2,-1,4,7],"shift_direction":1,"question_num":91,"has_decoy":false},{"rt":873.2000002861023,"stimulus":"[A] option 1, [L] option 2, [G] neither","key_press":65,"name":"choice","trial_type":"html-keyboard-response","trial_index":120,"time_elapsed":193082,"internal_node_id":"0.0-120.0","subject":"S1C0828","sona":"41658","block":3,"time":"2021-09-17T17:54:39.145Z","response":"1st","certainty":"high","char":"A","transposition":2,"order":["swapped","shifted"],"probe_pitches":[9,14,7,12,9,7,13,12],"shifted_pitches":[9,14,7,12,10,7,13,12],"swapped_pitches":[9,14,7,9,12,7,13,12],"shift_direction":1,"question_num":101,"has_decoy":false},{"rt":2199.4000000953674,"stimulus":"[A] option 1, [L] option 2, [G] neither","key_press":65,"name":"choice","trial_type":"html-keyboard-response","trial_index":131,"time_elapsed":209641,"internal_node_id":"0.0-131.0","subject":"S1C0828","sona":"41658","block":3,"time":"2021-09-17T17:54:39.145Z","response":"1st","certainty":"high","char":"A","transposition":3,"order":["swapped","shifted"],"probe_pitches":[5,0,7,5,-3,2,5,-3],"shifted_pitches":[5,0,7,4,-3,2,5,-3],"swapped_pitches":[5,0,7,-3,5,2,5,-3],"shift_direction":-1,"question_num":111,"has_decoy":false},{"rt":1848.8000001907349,"stimulus":"[A] option 1, [L] option 2, [G] neither","key_press":76,"name":"choice","trial_type":"html-keyboard-response","trial_index":142,"time_elapsed":225862,"internal_node_id":"0.0-142.0","subject":"S1C0828","sona":"41658","block":3,"time":"2021-09-17T17:54:39.145Z","response":"2nd","certainty":"high","char":"L","transposition":0,"order":["swapped","shifted"],"probe_pitches":[7,2,7,2,9,0,2,4],"shifted_pitches":[7,2,7,3,9,0,2,4],"swapped_pitches":[7,2,7,9,2,0,2,4],"shift_direction":1,"question_num":121,"has_decoy":false},{"rt":460.09999990463257,"stimulus":"[A] option 1, [L] option 2, [G] neither","key_press":76,"name":"choice","trial_type":"html-keyboard-response","trial_index":153,"time_elapsed":241073,"internal_node_id":"0.0-153.0","subject":"S1C0828","sona":"41658","block":3,"time":"2021-09-17T17:54:39.145Z","response":"2nd","certainty":"high","char":"L","transposition":-3,"order":["swapped","shifted"],"probe_pitches":[2,7,4,-3,2,0,7,4],"shifted_pitches":[2,7,4,-4,2,0,7,4],"swapped_pitches":[2,7,4,2,-3,0,7,4],"shift_direction":-1,"question_num":131,"has_decoy":false},{"rt":2118.2000002861023,"stimulus":"[A] option 1, [L] option 2, [G] neither","key_press":76,"name":"choice","trial_type":"html-keyboard-response","trial_index":164,"time_elapsed":259129,"internal_node_id":"0.0-164.0","subject":"S1C0828","sona":"41658","block":3,"time":"2021-09-17T17:54:39.145Z","response":"2nd","certainty":"high","char":"L","transposition":1,"order":["swapped","shifted"],"probe_pitches":[13,8,9,13,6,7,11,7],"shifted_pitches":[13,8,9,12,6,7,11,7],"swapped_pitches":[13,8,9,6,13,7,11,7],"shift_direction":-1,"question_num":141,"has_decoy":false},{"rt":637.4000000953674,"stimulus":"[A] option 1, [L] option 2, [G] neither","key_press":65,"name":"choice","trial_type":"html-keyboard-response","trial_index":175,"time_elapsed":274910,"internal_node_id":"0.0-175.0","subject":"S1C0828","sona":"41658","block":3,"time":"2021-09-17T17:54:39.145Z","response":"1st","certainty":"high","char":"A","transposition":-1,"order":["shifted","swapped"],"probe_pitches":[4,-1,1,-3,6,4,9,6],"shifted_pitches":[4,-1,1,-4,6,4,9,6],"swapped_pitches":[4,-1,1,6,-3,4,9,6],"shift_direction":-1,"question_num":151,"has_decoy":false},{"rt":911.8999996185303,"stimulus":"[A] option 1, [L] option 2, [G] neither","key_press":65,"name":"choice","trial_type":"html-keyboard-response","trial_index":186,"time_elapsed":290056,"internal_node_id":"0.0-186.0","subject":"S1C0828","sona":"41658","block":3,"time":"2021-09-17T17:54:39.145Z","response":"1st","certainty":"high","char":"A","transposition":-1,"order":["swapped","shifted"],"probe_pitches":[0,-3,2,7,5,0,5,7],"shifted_pitches":[0,-3,2,7,4,0,5,7],"swapped_pitches":[0,-3,2,5,7,0,5,7],"shift_direction":-1,"question_num":161,"has_decoy":false},{"rt":348.6000003814697,"stimulus":"[A] option 1, [L] option 2, [G] neither","key_press":65,"name":"choice","trial_type":"html-keyboard-response","trial_index":197,"time_elapsed":304667,"internal_node_id":"0.0-197.0","subject":"S1C0828","sona":"41658","block":3,"time":"2021-09-17T17:54:39.145Z","response":"1st","certainty":"high","char":"A","transposition":-3,"order":["shifted","swapped"],"probe_pitches":[-3,2,6,-1,4,9,2,-1],"shifted_pitches":[-3,2,6,-1,5,9,2,-1],"swapped_pitches":[-3,2,6,4,-1,9,2,-1],"shift_direction":1,"question_num":171,"has_decoy":false},{"rt":542,"stimulus":"[A] option 1, [L] option 2, [G] neither","key_press":76,"name":"choice","trial_type":"html-keyboard-response","trial_index":208,"time_elapsed":319499,"internal_node_id":"0.0-208.0","subject":"S1C0828","sona":"41658","block":3,"time":"2021-09-17T17:54:39.145Z","response":"2nd","certainty":"high","char":"L","transposition":-2,"order":["shifted","swapped"],"probe_pitches":[13,11,13,14,5,10,8,9],"shifted_pitches":[13,11,13,14,4,10,8,9],"swapped_pitches":[13,11,13,5,14,10,8,9],"shift_direction":-1,"question_num":181,"has_decoy":false},{"rt":581.4000000953674,"stimulus":"[A] option 1, [L] option 2, [G] neither","key_press":65,"name":"choice","trial_type":"html-keyboard-response","trial_index":219,"time_elapsed":334478,"internal_node_id":"0.0-219.0","subject":"S1C0828","sona":"41658","block":3,"time":"2021-09-17T17:54:39.145Z","response":"1st","certainty":"high","char":"A","transposition":2,"order":["shifted","swapped"],"probe_pitches":[9,7,2,4,9,-1,2,-3],"shifted_pitches":[9,7,2,5,9,-1,2,-3],"swapped_pitches":[9,7,2,9,4,-1,2,-3],"shift_direction":1,"question_num":191,"has_decoy":false}]