[{"rt":1656.2000002861023,"stimulus":"[A] option 1, [L] option 2, [G] neither","key_press":71,"name":"choice","trial_type":"html-keyboard-response","trial_index":10,"time_elapsed":17843,"internal_node_id":"0.0-10.0","subject":"S1C0828","sona":"41658","block":4,"time":"2021-09-17T18:04:50.929Z","response":"neither","certainty":"high","char":"G","transposition":-3,"order":["swapped","shifted"],"probe_pitches":[1,3,10,5,1,10,8,5],"shifted_pitches":[1,3,10,6,1,10,8,5],"swapped_pitches":[1,3,10,1,5,10,8,5],"shift_direction":1,"question_num":1,"has_decoy":false},{"rt":570.2999997138977,"stimulus":"[A] option 1, [L] option 2, [G] neither","key_press":76,"name":"choice","trial_type":"html-keyboard-response","trial_index":21,"time_elapsed":33300,"internal_node_id":"0.0-21.0","subject":"S1C0828","sona":"41658","block":4,"time":"2021-09-17T18:04:50.929Z","response":"2nd","certainty":"high","char":"L","transposition":-2,"order":["swapped","shifted"],"probe_pitches":[3,9,4,0,-1,5,3,10],"shifted_pitches":[3,9,4,1,-1,5,3,10],"swapped_pitches":[3,9,4,-1,0,5,3,10],"shift_direction":1,"question_num":11,"has_decoy":false},{"rt":406.09999990463257,"stimulus":"[A] option 1, [L] option 2, [G] neither","key_press":65,"name":"choice","trial_type":"html-keyboard-response","trial_index":32,"time_elapsed":48042,"internal_node_id":"0.0-32.0","subject":"S1C0828","sona":"41658","block":4,"time":"2021-09-17T18:04:50.929Z","response":"1st","certainty":"high","char":"A","transposition":-1,"order":["swapped","shifted"],"probe_pitches":[13,8,6,11,4,8,4,13],"shifted_pitches":[13,8,6,11,3,8,4,13],"swapped_pitches":[13,8,6,4,11,8,4,13],"shift_direction":-1,"question_num":21,"has_decoy":false},{"rt":4698.299999713898,"stimulus":"[A] option 1, [L] option 2, [G] neither","key_press":65,"name":"choice","trial_type":"html-keyboard-response","trial_index":43,"time_elapsed":67068,"internal_node_id":"0.0-43.0","subject":"S1C0828","sona":"41658","block":4,"time":"2021-09-17T18:04:50.929Z","response":"1st","certainty":"high","char":"A","transposition":-1,"order":["shifted","swapped"],"probe_pitches":[10,7,10,8,5,4,2,4],"shifted_pitches":[10,7,10,9,5,4,2,4],"swapped_pitches":[10,7,10,5,8,4,2,4],"shift_direction":1,"question_num":31,"has_decoy":false},{"rt":2931.199999809265,"stimulus":"[A] option 1, [L] option 2, [G] neither","key_press":65,"name":"choice","trial_type":"html-keyboard-response","trial_index":54,"time_elapsed":84838,"internal_node_id":"0.0-54.0","subject":"S1C0828","sona":"41658","block":4,"time":"2021-09-17T18:04:50.929Z","response":"1st","certainty":"high","char":"A","transposition":-2,"order":["shifted","swapped"],"probe_pitches":[4,1,6,11,13,4,13,9],"shifted_pitches":[4,1,6,11,12,4,13,9],"swapped_pitches":[4,1,6,13,11,4,13,9],"shift_direction":-1,"question_num":41,"has_decoy":false},{"rt":1164.2000002861023,"stimulus":"[A] option 1, [L] option 2, [G] neither","key_press":65,"name":"choice","trial_type":"html-keyboard-response","trial_index":65,"time_elapsed":101640,"internal_node_id":"0.0-65.0","subject":"S1C0828","sona":"41658","block":4,"time":"2021-09-17T18:04:50.929Z","response":"1st","certainty":"high","char":"A","transposition":1,"order":["shifted","swapped"],"probe_pitches":[0,2,-2,6,5,-1,3,7],"shifted_pitches":[0,2,-2,6,4,-1,3,7],"swapped_pitches":[0,2,-2,5,6,-1,3,7],"shift_direction":-1,"question_num":51,"has_decoy":false},{"rt":386.5,"stimulus":"[A] option 1, [L] option 2, [G] neither","key_press":65,"name":"choice","trial_type":"html-keyboard-response","trial_index":76,"time_elapsed":116373,"internal_node_id":"0.0-76.0","subject":"S1C0828","sona":"41658","block":4,"time":"2021-09-17T18:04:50.929Z","response":"1st","certainty":"high","char":"A","transposition":-3,"order":["swapped","shifted"],"probe_pitches":[9,10,5,6,9,3,6,4],"shifted_pitches":[9,10,5,7,9,3,6,4],"swapped_pitches":[9,10,5,9,6,3,6,4],"shift_direction":1,"question_num":61,"has_decoy":false},{"rt":602.1999998092651,"stimulus":"[A] option 1, [L] option 2, [G] neither","key_press":76,"name":"choice","trial_type":"html-keyboard-response","trial_index":87,"time_elapsed":131278,"internal_node_id":"0.0-87.0","subject":"S1C0828","sona":"41658","block":4,"time":"2021-09-17T18:04:50.929Z","response":"2nd","certainty":"high","char":"L","transposition":-2,"order":["swapped","shifted"],"probe_pitches":[3,1,8,6,11,3,1,3],"shifted_pitches":[3,1,8,5,11,3,1,3],"swapped_pitches":[3,1,8,11,6,3,1,3],"shift_direction":-1,"question_num":71,"has_decoy":false},{"rt":706.5999999046326,"stimulus":"[A] option 1, [L] option 2, [G] neither","key_press":65,"name":"choice","trial_type":"html-keyboard-response","trial_index":98,"time_elapsed":146272,"internal_node_id":"0.0-98.0","subject":"S1C0828","sona":"41658","block":4,"time":"2021-09-17T18:04:50.929Z","response":"1st","certainty":"high","char":"A","transposition":3,"order":["swapped","shifted"],"probe_pitches":[8,10,4,8,3,-1,0,1],"shifted_pitches":[8,10,4,8,2,-1,0,1],"swapped_pitches":[8,10,4,3,8,-1,0,1],"shift_direction":-1,"question_num":81,"has_decoy":false},{"rt":846.8999996185303,"stimulus":"[A] option 1, [L] option 2, [G] neither","key_press":65,"name":"choice","trial_type":"html-keyboard-response","trial_index":109,"time_elapsed":161493,"internal_node_id":"0.0-109.0","subject":"S1C0828","sona":"41658","block":4,"time":"2021-09-17T18:04:50.929Z","response":"1st","certainty":"high","char":"A","transposition":-3,"order":["shifted","swapped"],"probe_pitches":[13,10,3,10,8,5,1,10],"shifted_pitches":[13,10,3,11,8,5,1,10],"swapped_pitches":[13,10,3,8,10,5,1,10],"shift_direction":1,"question_num":91,"has_decoy":false},{"rt":1879.5999999046326,"stimulus":"[A] option 1, [L] option 2, [G] neither","key_press":65,"name":"choice","trial_type":"html-keyboard-response","trial_index":120,"time_elapsed":177708,"internal_node_id":"0.0-120.0","subject":"S1C0828","sona":"41658","block":4,"time":"2021-09-17T18:04:50.929Z","response":"1st","certainty":"high","char":"A","transposition":2,"order":["shifted","swapped"],"probe_pitches":[13,9,4,11,6,13,6,1],"shifted_pitches":[13,9,4,11,5,13,6,1],"swapped_pitches":[13,9,4,6,11,13,6,1],"shift_direction":-1,"question_num":101,"has_decoy":false},{"rt":619.0999999046326,"stimulus":"[A] option 1, [L] option 2, [G] neither","key_press":65,"name":"choice","trial_type":"html-keyboard-response","trial_index":131,"time_elapsed":193412,"internal_node_id":"0.0-131.0","subject":"S1C0828","sona":"41658","block":4,"time":"2021-09-17T18:04:50.929Z","response":"1st","certainty":"high","char":"A","transposition":1,"order":["shifted","swapped"],"probe_pitches":[8,6,13,8,10,3,10,13],"shifted_pitches":[8,6,13,8,11,3,10,13],"swapped_pitches":[8,6,13,10,8,3,10,13],"shift_direction":1,"question_num":111,"has_decoy":false},{"rt":243.69999980926514,"stimulus":"[A] option 1, [L] option 2, [G] neither","key_press":76,"name":"choice","trial_type":"html-keyboard-response","trial_index":142,"time_elapsed":208577,"internal_node_id":"0.0-142.0","subject":"S1C0828","sona":"41658","block":4,"time":"2021-09-17T18:04:50.929Z","response":"2nd","certainty":"high","char":"L","transposition":-1,"order":["swapped","shifted"],"probe_pitches":[8,6,11,4,6,8,1,8],"shifted_pitches":[8,6,11,4,7,8,1,8],"swapped_pitches":[8,6,11,6,4,8,1,8],"shift_direction":1,"question_num":121,"has_decoy":false},{"rt":1160.5999999046326,"stimulus":"[A] option 1, [L] option 2, [G] neither","key_press":65,"name":"choice","trial_type":"html-keyboard-response","trial_index":153,"time_elapsed":224294,"internal_node_id":"0.0-153.0","subject":"S1C0828","sona":"41658","block":4,"time":"2021-09-17T18:04:50.929Z","response":"1st","certainty":"high","char":"A","transposition":-1,"order":["swapped","shifted"],"probe_pitches":[8,3,-2,1,-1,7,4,10],"shifted_pitches":[8,3,-2,1,0,7,4,10],"swapped_pitches":[8,3,-2,-1,1,7,4,10],"shift_direction":1,"question_num":131,"has_decoy":false},{"rt":1899.2000002861023,"stimulus":"[A] option 1, [L] option 2, [G] neither","key_press":65,"name":"choice","trial_type":"html-keyboard-response","trial_index":164,"time_elapsed":240961,"internal_node_id":"0.0-164.0","subject":"S1C0828","sona":"41658","block":4,"time":"2021-09-17T18:04:50.929Z","response":"1st","certainty":"high","char":"A","transposition":-3,"order":["shifted","swapped"],"probe_pitches":[6,0,-1,7,6,2,4,3],"shifted_pitches":[6,0,-1,7,5,2,4,3],"swapped_pitches":[6,0,-1,6,7,2,4,3],"shift_direction":-1,"question_num":141,"has_decoy":false},{"rt":2755.9000000953674,"stimulus":"[A] option 1, [L] option 2, [G] neither","key_press":76,"name":"choice","trial_type":"html-keyboard-response","trial_index":175,"time_elapsed":258961,"internal_node_id":"0.0-175.0","subject":"S1C0828","sona":"41658","block":4,"time":"2021-09-17T18:04:50.929Z","response":"2nd","certainty":"high","char":"L","transposition":2,"order":["shifted","swapped"],"probe_pitches":[6,5,0,2,-2,6,4,7],"shifted_pitches":[6,5,0,3,-2,6,4,7],"swapped_pitches":[6,5,0,-2,2,6,4,7],"shift_direction":1,"question_num":151,"has_decoy":false},{"rt":371.2000002861023,"stimulus":"[A] option 1, [L] option 2, [G] neither","key_press":76,"name":"choice","trial_type":"html-keyboard-response","trial_index":186,"time_elapsed":274220,"internal_node_id":"0.0-186.0","subject":"S1C0828","sona":"41658","block":4,"time":"2021-09-17T18:04:50.929Z","response":"2nd","certainty":"high","char":"L","transposition":3,"order":["swapped","shifted"],"probe_pitches":[13,8,3,6,13,8,11,1],"shifted_pitches":[13,8,3,7,13,8,11,1],"swapped_pitches":[13,8,3,13,6,8,11,1],"shift_direction":1,"question_num":161,"has_decoy":false},{"rt":442,"stimulus":"[A] option 1, [L] option 2, [G] neither","key_press":65,"name":"choice","trial_type":"html-keyboard-response","trial_index":197,"time_elapsed":289101,"internal_node_id":"0.0-197.0","subject":"S1C0828","sona":"41658","block":4,"time":"2021-09-17T18:04:50.929Z","response":"1st","certainty":"high","char":"A","transposition":0,"order":["swapped","shifted"],"probe_pitches":[1,4,8,7,9,4,1,4],"shifted_pitches":[1,4,8,6,9,4,1,4],"swapped_pitches":[1,4,8,9,7,4,1,4],"shift_direction":-1,"question_num":171,"has_decoy":false},{"rt":625.9000000953674,"stimulus":"[A] option 1, [L] option 2, [G] neither","key_press":65,"name":"choice","trial_type":"html-keyboard-response","trial_index":208,"time_elapsed":304104,"internal_node_id":"0.0-208.0","subject":"S1C0828","sona":"41658","block":4,"time":"2021-09-17T18:04:50.929Z","response":"1st","certainty":"high","char":"A","transposition":0,"order":["shifted","swapped"],"probe_pitches":[1,3,10,8,13,10,6,1],"shifted_pitches":[1,3,10,7,13,10,6,1],"swapped_pitches":[1,3,10,13,8,10,6,1],"shift_direction":-1,"question_num":181,"has_decoy":false},{"rt":1010.8000001907349,"stimulus":"[A] option 1, [L] option 2, [G] neither","key_press":65,"name":"choice","trial_type":"html-keyboard-response","trial_index":219,"time_elapsed":319490,"internal_node_id":"0.0-219.0","subject":"S1C0828","sona":"41658","block":4,"time":"2021-09-17T18:04:50.929Z","response":"1st","certainty":"high","char":"A","transposition":-2,"order":["shifted","swapped"],"probe_pitches":[5,0,3,10,9,4,1,4],"shifted_pitches":[5,0,3,10,8,4,1,4],"swapped_pitches":[5,0,3,9,10,4,1,4],"shift_direction":-1,"question_num":191,"has_decoy":false}]