[{"rt":15338.5,"stimulus":"[A] option 1, [L] option 2, [G] neither","key_press":76,"name":"choice","trial_type":"html-keyboard-response","trial_index":15,"time_elapsed":120040,"internal_node_id":"0.0-15.0","response":"2nd","certainty":"high","char":"L","transposition":-3,"order":["shifted","swapped"],"probe_pitches":[10,8,5,13,10,5,3,1],"shifted_pitches":[10,8,5,12,10,5,3,1],"swapped_pitches":[10,8,5,10,13,5,3,1],"shift_direction":-1,"question_num":1,"has_decoy":false,"subject":"S1C0828","sona":"41658","block":1,"time":"2021-09-17T17:43:02.449Z"},{"rt":10806.900000095367,"stimulus":"[A] option 1, [L] option 2, [G] neither","key_press":76,"name":"choice","trial_type":"html-keyboard-response","trial_index":26,"time_elapsed":146685,"internal_node_id":"0.0-26.0","response":"2nd","certainty":"high","char":"L","transposition":0,"order":["shifted","swapped"],"probe_pitches":[1,6,7,6,2,11,13,10],"shifted_pitches":[1,6,7,6,3,11,13,10],"swapped_pitches":[1,6,7,2,6,11,13,10],"shift_direction":1,"question_num":11,"has_decoy":false,"subject":"S1C0828","sona":"41658","block":1,"time":"2021-09-17T17:43:02.449Z"},{"rt":925.2000002861023,"stimulus":"[A] option 1, [L] option 2, [G] neither","key_press":76,"name":"choice","trial_type":"html-keyboard-response","trial_index":37,"time_elapsed":164023,"internal_node_id":"0.0-37.0","response":"2nd","certainty":"high","char":"L","transposition":-2,"order":["swapped","shifted"],"probe_pitches":[11,13,9,4,7,8,13,3],"shifted_pitches":[11,13,9,5,7,8,13,3],"swapped_pitches":[11,13,9,7,4,8,13,3],"shift_direction":1,"question_num":21,"has_decoy":false,"subject":"S1C0828","sona":"41658","block":1,"time":"2021-09-17T17:43:02.449Z"},{"rt":1198.8000001907349,"stimulus":"[A] option 1, [L] option 2, [G] neither","key_press":76,"name":"choice","trial_type":"html-keyboard-response","trial_index":48,"time_elapsed":180897,"internal_node_id":"0.0-48.0","response":"2nd","certainty":"high","char":"L","transposition":-2,"order":["shifted","swapped"],"probe_pitches":[1,4,11,6,13,4,8,6],"shifted_pitches":[1,4,11,7,13,4,8,6],"swapped_pitches":[1,4,11,13,6,4,8,6],"shift_direction":1,"question_num":31,"has_decoy":false,"subject":"S1C0828","sona":"41658","block":1,"time":"2021-09-17T17:43:02.449Z"},{"rt":1704,"stimulus":"[A] option 1, [L] option 2, [G] neither","key_press":65,"name":"choice","trial_type":"html-keyboard-response","trial_index":59,"time_elapsed":198162,"internal_node_id":"0.0-59.0","response":"1st","certainty":"high","char":"A","transposition":-1,"order":["swapped","shifted"],"probe_pitches":[7,10,3,5,8,12,9,12],"shifted_pitches":[7,10,3,6,8,12,9,12],"swapped_pitches":[7,10,3,8,5,12,9,12],"shift_direction":1,"question_num":41,"has_decoy":false,"subject":"S1C0828","sona":"41658","block":1,"time":"2021-09-17T17:43:02.449Z"},{"rt":12798.900000095367,"stimulus":"[A] option 1, [L] option 2, [G] neither","key_press":65,"name":"choice","trial_type":"html-keyboard-response","trial_index":70,"time_elapsed":226282,"internal_node_id":"0.0-70.0","response":"1st","certainty":"high","char":"A","transposition":-2,"order":["swapped","shifted"],"probe_pitches":[8,13,6,10,3,6,8,6],"shifted_pitches":[8,13,6,10,4,6,8,6],"swapped_pitches":[8,13,6,3,10,6,8,6],"shift_direction":1,"question_num":51,"has_decoy":false,"subject":"S1C0828","sona":"41658","block":1,"time":"2021-09-17T17:43:02.449Z"},{"rt":997.7999997138977,"stimulus":"[A] option 1, [L] option 2, [G] neither","key_press":76,"name":"choice","trial_type":"html-keyboard-response","trial_index":81,"time_elapsed":244419,"internal_node_id":"0.0-81.0","response":"2nd","certainty":"high","char":"L","transposition":-3,"order":["shifted","swapped"],"probe_pitches":[5,3,1,5,7,2,4,5],"shifted_pitches":[5,3,1,5,8,2,4,5],"swapped_pitches":[5,3,1,7,5,2,4,5],"shift_direction":1,"question_num":61,"has_decoy":false,"subject":"S1C0828","sona":"41658","block":1,"time":"2021-09-17T17:43:02.449Z"},{"rt":458.2999997138977,"stimulus":"[A] option 1, [L] option 2, [G] neither","key_press":76,"name":"choice","trial_type":"html-keyboard-response","trial_index":92,"time_elapsed":259829,"internal_node_id":"0.0-92.0","response":"2nd","certainty":"high","char":"L","transposition":0,"order":["swapped","shifted"],"probe_pitches":[8,3,8,6,13,10,8,6],"shifted_pitches":[8,3,8,7,13,10,8,6],"swapped_pitches":[8,3,8,13,6,10,8,6],"shift_direction":1,"question_num":71,"has_decoy":false,"subject":"S1C0828","sona":"41658","block":1,"time":"2021-09-17T17:43:02.449Z"},{"rt":845.0999999046326,"stimulus":"[A] option 1, [L] option 2, [G] neither","key_press":65,"name":"choice","trial_type":"html-keyboard-response","trial_index":103,"time_elapsed":275411,"internal_node_id":"0.0-103.0","response":"1st","certainty":"high","char":"A","transposition":-3,"order":["shifted","swapped"],"probe_pitches":[1,6,4,11,9,6,13,6],"shifted_pitches":[1,6,4,10,9,6,13,6],"swapped_pitches":[1,6,4,9,11,6,13,6],"shift_direction":-1,"question_num":81,"has_decoy":false,"subject":"S1C0828","sona":"41658","block":1,"time":"2021-09-17T17:43:02.449Z"},{"rt":532.5,"stimulus":"[A] option 1, [L] option 2, [G] neither","key_press":76,"name":"choice","trial_type":"html-keyboard-response","trial_index":114,"time_elapsed":291019,"internal_node_id":"0.0-114.0","response":"2nd","certainty":"high","char":"L","transposition":2,"order":["swapped","shifted"],"probe_pitches":[6,9,13,9,1,11,4,11],"shifted_pitches":[6,9,13,9,0,11,4,11],"swapped_pitches":[6,9,13,1,9,11,4,11],"shift_direction":-1,"question_num":91,"has_decoy":false,"subject":"S1C0828","sona":"41658","block":1,"time":"2021-09-17T17:43:02.449Z"},{"rt":1408.4000000953674,"stimulus":"[A] option 1, [L] option 2, [G] neither","key_press":65,"name":"choice","trial_type":"html-keyboard-response","trial_index":125,"time_elapsed":308004,"internal_node_id":"0.0-125.0","response":"1st","certainty":"high","char":"A","transposition":-1,"order":["shifted","swapped"],"probe_pitches":[1,4,11,13,10,7,3,10],"shifted_pitches":[1,4,11,12,10,7,3,10],"swapped_pitches":[1,4,11,10,13,7,3,10],"shift_direction":-1,"question_num":101,"has_decoy":false,"subject":"S1C0828","sona":"41658","block":1,"time":"2021-09-17T17:43:02.449Z"},{"rt":1077.9000000953674,"stimulus":"[A] option 1, [L] option 2, [G] neither","key_press":76,"name":"choice","trial_type":"html-keyboard-response","trial_index":136,"time_elapsed":324441,"internal_node_id":"0.0-136.0","response":"2nd","certainty":"high","char":"L","transposition":-1,"order":["swapped","shifted"],"probe_pitches":[6,3,6,8,1,6,13,11],"shifted_pitches":[6,3,6,8,0,6,13,11],"swapped_pitches":[6,3,6,1,8,6,13,11],"shift_direction":-1,"question_num":111,"has_decoy":false,"subject":"S1C0828","sona":"41658","block":1,"time":"2021-09-17T17:43:02.449Z"},{"rt":508.30000019073486,"stimulus":"[A] option 1, [L] option 2, [G] neither","key_press":65,"name":"choice","trial_type":"html-keyboard-response","trial_index":147,"time_elapsed":339889,"internal_node_id":"0.0-147.0","response":"1st","certainty":"high","char":"A","transposition":3,"order":["shifted","swapped"],"probe_pitches":[3,6,8,11,13,3,13,3],"shifted_pitches":[3,6,8,11,14,3,13,3],"swapped_pitches":[3,6,8,13,11,3,13,3],"shift_direction":1,"question_num":121,"has_decoy":false,"subject":"S1C0828","sona":"41658","block":1,"time":"2021-09-17T17:43:02.449Z"},{"rt":3727.0999999046326,"stimulus":"[A] option 1, [L] option 2, [G] neither","key_press":65,"name":"choice","trial_type":"html-keyboard-response","trial_index":158,"time_elapsed":362327,"internal_node_id":"0.0-158.0","response":"1st","certainty":"high","char":"A","transposition":1,"order":["shifted","swapped"],"probe_pitches":[1,5,3,8,5,1,10,8],"shifted_pitches":[1,5,3,9,5,1,10,8],"swapped_pitches":[1,5,3,5,8,1,10,8],"shift_direction":1,"question_num":131,"has_decoy":false,"subject":"S1C0828","sona":"41658","block":1,"time":"2021-09-17T17:43:02.449Z"},{"rt":2434.2000002861023,"stimulus":"[A] option 1, [L] option 2, [G] neither","key_press":65,"name":"choice","trial_type":"html-keyboard-response","trial_index":169,"time_elapsed":380455,"internal_node_id":"0.0-169.0","response":"1st","certainty":"high","char":"A","transposition":2,"order":["shifted","swapped"],"probe_pitches":[4,3,9,8,10,5,4,5],"shifted_pitches":[4,3,9,7,10,5,4,5],"swapped_pitches":[4,3,9,10,8,5,4,5],"shift_direction":-1,"question_num":141,"has_decoy":false,"subject":"S1C0828","sona":"41658","block":1,"time":"2021-09-17T17:43:02.449Z"},{"rt":1579.2999997138977,"stimulus":"[A] option 1, [L] option 2, [G] neither","key_press":71,"name":"choice","trial_type":"html-keyboard-response","trial_index":180,"time_elapsed":397243,"internal_node_id":"0.0-180.0","response":"neither","certainty":"high","char":"G","transposition":1,"order":["swapped","shifted"],"probe_pitches":[1,3,7,1,3,13,2,6],"shifted_pitches":[1,3,7,1,4,13,2,6],"swapped_pitches":[1,3,7,3,1,13,2,6],"shift_direction":1,"question_num":151,"has_decoy":false,"subject":"S1C0828","sona":"41658","block":1,"time":"2021-09-17T17:43:02.449Z"},{"rt":1164.1999998092651,"stimulus":"[A] option 1, [L] option 2, [G] neither","key_press":76,"name":"choice","trial_type":"html-keyboard-response","trial_index":191,"time_elapsed":415040,"internal_node_id":"0.0-191.0","response":"2nd","certainty":"high","char":"L","transposition":-2,"order":["swapped","shifted"],"probe_pitches":[4,3,6,12,3,4,6,2],"shifted_pitches":[4,3,6,11,3,4,6,2],"swapped_pitches":[4,3,6,3,12,4,6,2],"shift_direction":-1,"question_num":161,"has_decoy":false,"subject":"S1C0828","sona":"41658","block":1,"time":"2021-09-17T17:43:02.449Z"},{"rt":2477.2000002861023,"stimulus":"[A] option 1, [L] option 2, [G] neither","key_press":65,"name":"choice","trial_type":"html-keyboard-response","trial_index":202,"time_elapsed":432781,"internal_node_id":"0.0-202.0","response":"1st","certainty":"high","char":"A","transposition":3,"order":["swapped","shifted"],"probe_pitches":[12,9,13,12,11,6,9,12],"shifted_pitches":[12,9,13,12,10,6,9,12],"swapped_pitches":[12,9,13,11,12,6,9,12],"shift_direction":-1,"question_num":171,"has_decoy":false,"subject":"S1C0828","sona":"41658","block":1,"time":"2021-09-17T17:43:02.449Z"},{"rt":309.3999996185303,"stimulus":"[A] option 1, [L] option 2, [G] neither","key_press":76,"name":"choice","trial_type":"html-keyboard-response","trial_index":213,"time_elapsed":448173,"internal_node_id":"0.0-213.0","response":"2nd","certainty":"high","char":"L","transposition":-3,"order":["shifted","swapped"],"probe_pitches":[13,10,4,12,10,2,1,12],"shifted_pitches":[13,10,4,12,9,2,1,12],"swapped_pitches":[13,10,4,10,12,2,1,12],"shift_direction":-1,"question_num":181,"has_decoy":false,"subject":"S1C0828","sona":"41658","block":1,"time":"2021-09-17T17:43:02.449Z"},{"rt":1156.8000001907349,"stimulus":"[A] option 1, [L] option 2, [G] neither","key_press":76,"name":"choice","trial_type":"html-keyboard-response","trial_index":224,"time_elapsed":464255,"internal_node_id":"0.0-224.0","response":"2nd","certainty":"high","char":"L","transposition":-1,"order":["swapped","shifted"],"probe_pitches":[13,11,6,1,4,8,4,11],"shifted_pitches":[13,11,6,1,3,8,4,11],"swapped_pitches":[13,11,6,4,1,8,4,11],"shift_direction":-1,"question_num":191,"has_decoy":false,"subject":"S1C0828","sona":"41658","block":1,"time":"2021-09-17T17:43:02.449Z"}]