[{"rt":5179.800000011921,"stimulus":"[A] option 1, [L] option 2, [G] neither","key_press":71,"name":"choice","trial_type":"html-keyboard-response","trial_index":10,"time_elapsed":31431,"internal_node_id":"0.0-10.0","subject":"S1C1664","sona":"41828","block":5,"time":"2021-09-23T01:44:58.184Z","response":"neither","certainty":"high","char":"G","transposition":-2,"order":["shifted","swapped"],"probe_pitches":[6,5,7,6,9,1,8,4,3,-3,0,6,8,6,0,5],"shifted_pitches":[6,5,7,6,9,1,8,4,2,-3,0,6,8,6,0,5],"swapped_pitches":[6,5,7,6,9,1,8,3,4,-3,0,6,8,6,0,5],"shift_direction":-1,"question_num":1,"has_decoy":false},{"rt":679.1999999880791,"stimulus":"[A] option 1, [L] option 2, [G] neither","key_press":76,"name":"choice","trial_type":"html-keyboard-response","trial_index":21,"time_elapsed":54643,"internal_node_id":"0.0-21.0","subject":"S1C1664","sona":"41828","block":5,"time":"2021-09-23T01:44:58.184Z","response":"2nd","certainty":"high","char":"L","transposition":1,"order":["shifted","swapped"],"probe_pitches":[7,1,7,-1,6,2,9,0,6,-1,7,4,-1,1,-3,9],"shifted_pitches":[7,1,7,-1,6,2,9,0,5,-1,7,4,-1,1,-3,9],"swapped_pitches":[7,1,7,-1,6,2,9,6,0,-1,7,4,-1,1,-3,9],"shift_direction":-1,"question_num":11,"has_decoy":false},{"rt":735.8000000119209,"stimulus":"[A] option 1, [L] option 2, [G] neither","key_press":65,"name":"choice","trial_type":"html-keyboard-response","trial_index":32,"time_elapsed":77830,"internal_node_id":"0.0-32.0","subject":"S1C1664","sona":"41828","block":5,"time":"2021-09-23T01:44:58.184Z","response":"1st","certainty":"high","char":"A","transposition":-1,"order":["swapped","shifted"],"probe_pitches":[7,2,8,2,-3,7,0,3,2,8,-3,5,3,9,3,1],"shifted_pitches":[7,2,8,2,-3,7,0,4,2,8,-3,5,3,9,3,1],"swapped_pitches":[7,2,8,2,-3,7,0,2,3,8,-3,5,3,9,3,1],"shift_direction":1,"question_num":21,"has_decoy":false},{"rt":337.0999999642372,"stimulus":"[A] option 1, [L] option 2, [G] neither","key_press":76,"name":"choice","trial_type":"html-keyboard-response","trial_index":43,"time_elapsed":100440,"internal_node_id":"0.0-43.0","subject":"S1C1664","sona":"41828","block":5,"time":"2021-09-23T01:44:58.184Z","response":"2nd","certainty":"high","char":"L","transposition":-3,"order":["swapped","shifted"],"probe_pitches":[7,4,-1,2,11,4,2,7,-1,4,9,2,11,-1,9,2],"shifted_pitches":[7,4,-1,2,11,4,2,7,-2,4,9,2,11,-1,9,2],"swapped_pitches":[7,4,-1,2,11,4,2,-1,7,4,9,2,11,-1,9,2],"shift_direction":-1,"question_num":31,"has_decoy":false},{"rt":366.5,"stimulus":"[A] option 1, [L] option 2, [G] neither","key_press":65,"name":"choice","trial_type":"html-keyboard-response","trial_index":54,"time_elapsed":123120,"internal_node_id":"0.0-54.0","subject":"S1C1664","sona":"41828","block":5,"time":"2021-09-23T01:44:58.184Z","response":"1st","certainty":"high","char":"A","transposition":-1,"order":["shifted","swapped"],"probe_pitches":[-1,1,-1,1,-1,4,9,1,6,4,6,9,6,4,1,9],"shifted_pitches":[-1,1,-1,1,-1,4,9,1,7,4,6,9,6,4,1,9],"swapped_pitches":[-1,1,-1,1,-1,4,9,6,1,4,6,9,6,4,1,9],"shift_direction":1,"question_num":41,"has_decoy":false},{"rt":1206.800000011921,"stimulus":"[A] option 1, [L] option 2, [G] neither","key_press":76,"name":"choice","trial_type":"html-keyboard-response","trial_index":65,"time_elapsed":146611,"internal_node_id":"0.0-65.0","subject":"S1C1664","sona":"41828","block":5,"time":"2021-09-23T01:44:58.184Z","response":"2nd","certainty":"high","char":"L","transposition":2,"order":["shifted","swapped"],"probe_pitches":[3,2,1,2,-1,9,3,-3,-2,5,3,-3,-2,1,3,6],"shifted_pitches":[3,2,1,2,-1,9,3,-4,-2,5,3,-3,-2,1,3,6],"swapped_pitches":[3,2,1,2,-1,9,3,-2,-3,5,3,-3,-2,1,3,6],"shift_direction":-1,"question_num":51,"has_decoy":false},{"rt":992.8000000119209,"stimulus":"[A] option 1, [L] option 2, [G] neither","key_press":76,"name":"choice","trial_type":"html-keyboard-response","trial_index":76,"time_elapsed":169932,"internal_node_id":"0.0-76.0","subject":"S1C1664","sona":"41828","block":5,"time":"2021-09-23T01:44:58.184Z","response":"2nd","certainty":"high","char":"L","transposition":-3,"order":["swapped","shifted"],"probe_pitches":[3,1,3,6,8,7,6,-1,1,-2,5,7,9,8,3,7],"shifted_pitches":[3,1,3,6,8,7,6,-1,0,-2,5,7,9,8,3,7],"swapped_pitches":[3,1,3,6,8,7,6,1,-1,-2,5,7,9,8,3,7],"shift_direction":-1,"question_num":61,"has_decoy":false},{"rt":1591,"stimulus":"[A] option 1, [L] option 2, [G] neither","key_press":76,"name":"choice","trial_type":"html-keyboard-response","trial_index":87,"time_elapsed":193822,"internal_node_id":"0.0-87.0","subject":"S1C1664","sona":"41828","block":5,"time":"2021-09-23T01:44:58.184Z","response":"2nd","certainty":"high","char":"L","transposition":-1,"order":["swapped","shifted"],"probe_pitches":[6,11,8,4,-1,8,6,4,8,-1,1,4,11,-1,8,11],"shifted_pitches":[6,11,8,4,-1,8,6,4,9,-1,1,4,11,-1,8,11],"swapped_pitches":[6,11,8,4,-1,8,6,8,4,-1,1,4,11,-1,8,11],"shift_direction":1,"question_num":71,"has_decoy":false},{"rt":454.5,"stimulus":"[A] option 1, [L] option 2, [G] neither","key_press":65,"name":"choice","trial_type":"html-keyboard-response","trial_index":98,"time_elapsed":216706,"internal_node_id":"0.0-98.0","subject":"S1C1664","sona":"41828","block":5,"time":"2021-09-23T01:44:58.184Z","response":"1st","certainty":"high","char":"A","transposition":-2,"order":["shifted","swapped"],"probe_pitches":[9,6,9,4,6,2,-1,2,4,9,11,-1,11,6,2,4],"shifted_pitches":[9,6,9,4,6,2,-1,2,3,9,11,-1,11,6,2,4],"swapped_pitches":[9,6,9,4,6,2,-1,4,2,9,11,-1,11,6,2,4],"shift_direction":-1,"question_num":81,"has_decoy":false},{"rt":408.4000000357628,"stimulus":"[A] option 1, [L] option 2, [G] neither","key_press":65,"name":"choice","trial_type":"html-keyboard-response","trial_index":109,"time_elapsed":239578,"internal_node_id":"0.0-109.0","subject":"S1C1664","sona":"41828","block":5,"time":"2021-09-23T01:44:58.184Z","response":"1st","certainty":"high","char":"A","transposition":1,"order":["shifted","swapped"],"probe_pitches":[4,2,9,4,11,2,11,2,6,-1,2,6,9,2,9,-1],"shifted_pitches":[4,2,9,4,11,2,11,1,6,-1,2,6,9,2,9,-1],"swapped_pitches":[4,2,9,4,11,2,11,6,2,-1,2,6,9,2,9,-1],"shift_direction":-1,"question_num":91,"has_decoy":false},{"rt":951.3000000119209,"stimulus":"[A] option 1, [L] option 2, [G] neither","key_press":76,"name":"choice","trial_type":"html-keyboard-response","trial_index":120,"time_elapsed":262841,"internal_node_id":"0.0-120.0","subject":"S1C1664","sona":"41828","block":5,"time":"2021-09-23T01:44:58.184Z","response":"2nd","certainty":"high","char":"L","transposition":3,"order":["shifted","swapped"],"probe_pitches":[-2,3,6,0,7,-2,2,3,0,6,7,-2,9,-1,2,5],"shifted_pitches":[-2,3,6,0,7,-2,2,3,1,6,7,-2,9,-1,2,5],"swapped_pitches":[-2,3,6,0,7,-2,2,0,3,6,7,-2,9,-1,2,5],"shift_direction":1,"question_num":101,"has_decoy":false},{"rt":914,"stimulus":"[A] option 1, [L] option 2, [G] neither","key_press":76,"name":"choice","trial_type":"html-keyboard-response","trial_index":131,"time_elapsed":286846,"internal_node_id":"0.0-131.0","subject":"S1C1664","sona":"41828","block":5,"time":"2021-09-23T01:44:58.184Z","response":"2nd","certainty":"high","char":"L","transposition":-3,"order":["shifted","swapped"],"probe_pitches":[11,7,4,11,2,11,2,7,-1,9,2,7,9,-1,11,7],"shifted_pitches":[11,7,4,11,2,11,2,7,-2,9,2,7,9,-1,11,7],"swapped_pitches":[11,7,4,11,2,11,2,-1,7,9,2,7,9,-1,11,7],"shift_direction":-1,"question_num":111,"has_decoy":false},{"rt":282.39999997615814,"stimulus":"[A] option 1, [L] option 2, [G] neither","key_press":76,"name":"choice","trial_type":"html-keyboard-response","trial_index":142,"time_elapsed":309628,"internal_node_id":"0.0-142.0","subject":"S1C1664","sona":"41828","block":5,"time":"2021-09-23T01:44:58.184Z","response":"2nd","certainty":"high","char":"L","transposition":3,"order":["swapped","shifted"],"probe_pitches":[1,3,1,8,3,8,1,11,6,8,-1,8,-1,1,-1,6],"shifted_pitches":[1,3,1,8,3,8,1,12,6,8,-1,8,-1,1,-1,6],"swapped_pitches":[1,3,1,8,3,8,1,6,11,8,-1,8,-1,1,-1,6],"shift_direction":1,"question_num":121,"has_decoy":false},{"rt":1316.800000011921,"stimulus":"[A] option 1, [L] option 2, [G] neither","key_press":65,"name":"choice","trial_type":"html-keyboard-response","trial_index":153,"time_elapsed":333275,"internal_node_id":"0.0-153.0","subject":"S1C1664","sona":"41828","block":5,"time":"2021-09-23T01:44:58.184Z","response":"1st","certainty":"high","char":"A","transposition":-1,"order":["swapped","shifted"],"probe_pitches":[-2,-1,1,-3,2,6,7,-3,2,-2,1,7,8,-1,-2,1],"shifted_pitches":[-2,-1,1,-3,2,6,7,-3,3,-2,1,7,8,-1,-2,1],"swapped_pitches":[-2,-1,1,-3,2,6,7,2,-3,-2,1,7,8,-1,-2,1],"shift_direction":1,"question_num":131,"has_decoy":false},{"rt":313.80000001192093,"stimulus":"[A] option 1, [L] option 2, [G] neither","key_press":65,"name":"choice","trial_type":"html-keyboard-response","trial_index":164,"time_elapsed":356283,"internal_node_id":"0.0-164.0","subject":"S1C1664","sona":"41828","block":5,"time":"2021-09-23T01:44:58.184Z","response":"1st","certainty":"high","char":"A","transposition":2,"order":["shifted","swapped"],"probe_pitches":[-1,4,8,4,-1,6,-1,1,8,11,6,-1,1,-1,4,11],"shifted_pitches":[-1,4,8,4,-1,6,-1,2,8,11,6,-1,1,-1,4,11],"swapped_pitches":[-1,4,8,4,-1,6,-1,8,1,11,6,-1,1,-1,4,11],"shift_direction":1,"question_num":141,"has_decoy":false},{"rt":286.89999997615814,"stimulus":"[A] option 1, [L] option 2, [G] neither","key_press":76,"name":"choice","trial_type":"html-keyboard-response","trial_index":175,"time_elapsed":378901,"internal_node_id":"0.0-175.0","subject":"S1C1664","sona":"41828","block":5,"time":"2021-09-23T01:44:58.184Z","response":"2nd","certainty":"high","char":"L","transposition":-2,"order":["swapped","shifted"],"probe_pitches":[11,6,-1,6,9,11,4,11,-1,9,6,9,11,4,11,1],"shifted_pitches":[11,6,-1,6,9,11,4,10,-1,9,6,9,11,4,11,1],"swapped_pitches":[11,6,-1,6,9,11,4,-1,11,9,6,9,11,4,11,1],"shift_direction":-1,"question_num":151,"has_decoy":false},{"rt":376.19999998807907,"stimulus":"[A] option 1, [L] option 2, [G] neither","key_press":76,"name":"choice","trial_type":"html-keyboard-response","trial_index":186,"time_elapsed":402164,"internal_node_id":"0.0-186.0","subject":"S1C1664","sona":"41828","block":5,"time":"2021-09-23T01:44:58.184Z","response":"2nd","certainty":"high","char":"L","transposition":-2,"order":["swapped","shifted"],"probe_pitches":[5,0,4,8,-1,-3,6,8,0,5,-2,1,2,0,9,4],"shifted_pitches":[5,0,4,8,-1,-3,6,7,0,5,-2,1,2,0,9,4],"swapped_pitches":[5,0,4,8,-1,-3,6,0,8,5,-2,1,2,0,9,4],"shift_direction":-1,"question_num":161,"has_decoy":false},{"rt":2053,"stimulus":"[A] option 1, [L] option 2, [G] neither","key_press":71,"name":"choice","trial_type":"html-keyboard-response","trial_index":197,"time_elapsed":427388,"internal_node_id":"0.0-197.0","subject":"S1C1664","sona":"41828","block":5,"time":"2021-09-23T01:44:58.184Z","response":"neither","certainty":"high","char":"G","transposition":-3,"order":["shifted","swapped"],"probe_pitches":[2,-2,0,8,6,7,4,-2,0,4,2,9,-3,7,1,2],"shifted_pitches":[2,-2,0,8,6,7,4,-1,0,4,2,9,-3,7,1,2],"swapped_pitches":[2,-2,0,8,6,7,4,0,-2,4,2,9,-3,7,1,2],"shift_direction":1,"question_num":171,"has_decoy":false},{"rt":1205.8999999761581,"stimulus":"[A] option 1, [L] option 2, [G] neither","key_press":76,"name":"choice","trial_type":"html-keyboard-response","trial_index":208,"time_elapsed":450999,"internal_node_id":"0.0-208.0","subject":"S1C1664","sona":"41828","block":5,"time":"2021-09-23T01:44:58.184Z","response":"2nd","certainty":"high","char":"L","transposition":0,"order":["swapped","shifted"],"probe_pitches":[-1,3,8,1,6,1,11,8,1,-1,3,11,8,11,-1,1],"shifted_pitches":[-1,3,8,1,6,1,11,9,1,-1,3,11,8,11,-1,1],"swapped_pitches":[-1,3,8,1,6,1,11,1,8,-1,3,11,8,11,-1,1],"shift_direction":1,"question_num":181,"has_decoy":false},{"rt":475.5,"stimulus":"[A] option 1, [L] option 2, [G] neither","key_press":65,"name":"choice","trial_type":"html-keyboard-response","trial_index":219,"time_elapsed":473944,"internal_node_id":"0.0-219.0","subject":"S1C1664","sona":"41828","block":5,"time":"2021-09-23T01:44:58.184Z","response":"1st","certainty":"high","char":"A","transposition":0,"order":["swapped","shifted"],"probe_pitches":[-3,3,8,3,-3,0,-2,5,3,7,1,5,2,9,-3,9],"shifted_pitches":[-3,3,8,3,-3,0,-2,6,3,7,1,5,2,9,-3,9],"swapped_pitches":[-3,3,8,3,-3,0,-2,3,5,7,1,5,2,9,-3,9],"shift_direction":1,"question_num":191,"has_decoy":false}]