[{"rt":3496,"stimulus":"[A] option 1, [L] option 2, [G] neither","key_press":65,"name":"choice","trial_type":"html-keyboard-response","trial_index":10,"time_elapsed":28417,"internal_node_id":"0.0-10.0","subject":"S1C1664","sona":"41828","block":2,"time":"2021-09-23T01:20:38.786Z","response":"1st","certainty":"high","char":"A","transposition":-1,"order":["swapped","shifted"],"probe_pitches":[9,10,12,8,4,10,8,12,15,4,10,9,15,14,5,3],"shifted_pitches":[9,10,12,8,4,10,8,13,15,4,10,9,15,14,5,3],"swapped_pitches":[9,10,12,8,4,10,8,15,12,4,10,9,15,14,5,3],"shift_direction":1,"question_num":1,"has_decoy":false},{"rt":1217.8999999761581,"stimulus":"[A] option 1, [L] option 2, [G] neither","key_press":76,"name":"choice","trial_type":"html-keyboard-response","trial_index":21,"time_elapsed":52838,"internal_node_id":"0.0-21.0","subject":"S1C1664","sona":"41828","block":2,"time":"2021-09-23T01:20:38.786Z","response":"2nd","certainty":"high","char":"L","transposition":1,"order":["swapped","shifted"],"probe_pitches":[0,3,0,3,7,5,10,7,3,-2,10,5,3,-2,3,7],"shifted_pitches":[0,3,0,3,7,5,10,8,3,-2,10,5,3,-2,3,7],"swapped_pitches":[0,3,0,3,7,5,10,3,7,-2,10,5,3,-2,3,7],"shift_direction":1,"question_num":11,"has_decoy":false},{"rt":1096.800000011921,"stimulus":"[A] option 1, [L] option 2, [G] neither","key_press":65,"name":"choice","trial_type":"html-keyboard-response","trial_index":32,"time_elapsed":76514,"internal_node_id":"0.0-32.0","subject":"S1C1664","sona":"41828","block":2,"time":"2021-09-23T01:20:38.786Z","response":"1st","certainty":"high","char":"A","transposition":-2,"order":["shifted","swapped"],"probe_pitches":[-2,2,0,7,2,10,2,10,7,-2,5,0,-2,5,10,-2],"shifted_pitches":[-2,2,0,7,2,10,2,10,6,-2,5,0,-2,5,10,-2],"swapped_pitches":[-2,2,0,7,2,10,2,7,10,-2,5,0,-2,5,10,-2],"shift_direction":-1,"question_num":21,"has_decoy":false},{"rt":1243.7000000476837,"stimulus":"[A] option 1, [L] option 2, [G] neither","key_press":65,"name":"choice","trial_type":"html-keyboard-response","trial_index":43,"time_elapsed":132601,"internal_node_id":"0.0-43.0","subject":"S1C1664","sona":"41828","block":2,"time":"2021-09-23T01:20:38.786Z","response":"1st","certainty":"high","char":"A","transposition":-1,"order":["shifted","swapped"],"probe_pitches":[14,13,7,4,5,11,10,7,4,9,10,7,13,14,8,3],"shifted_pitches":[14,13,7,4,5,11,10,6,4,9,10,7,13,14,8,3],"swapped_pitches":[14,13,7,4,5,11,10,4,7,9,10,7,13,14,8,3],"shift_direction":-1,"question_num":31,"has_decoy":false},{"rt":875.7999999523163,"stimulus":"[A] option 1, [L] option 2, [G] neither","key_press":65,"name":"choice","trial_type":"html-keyboard-response","trial_index":54,"time_elapsed":157075,"internal_node_id":"0.0-54.0","subject":"S1C1664","sona":"41828","block":2,"time":"2021-09-23T01:20:38.786Z","response":"1st","certainty":"high","char":"A","transposition":3,"order":["shifted","swapped"],"probe_pitches":[6,5,10,14,13,10,7,13,5,14,7,9,14,9,15,14],"shifted_pitches":[6,5,10,14,13,10,7,12,5,14,7,9,14,9,15,14],"swapped_pitches":[6,5,10,14,13,10,7,5,13,14,7,9,14,9,15,14],"shift_direction":-1,"question_num":41,"has_decoy":false},{"rt":1234.1000000238419,"stimulus":"[A] option 1, [L] option 2, [G] neither","key_press":76,"name":"choice","trial_type":"html-keyboard-response","trial_index":65,"time_elapsed":182689,"internal_node_id":"0.0-65.0","subject":"S1C1664","sona":"41828","block":2,"time":"2021-09-23T01:20:38.786Z","response":"2nd","certainty":"high","char":"L","transposition":-2,"order":["shifted","swapped"],"probe_pitches":[8,10,11,6,11,15,8,13,7,3,15,6,10,15,5,15],"shifted_pitches":[8,10,11,6,11,15,8,14,7,3,15,6,10,15,5,15],"swapped_pitches":[8,10,11,6,11,15,8,7,13,3,15,6,10,15,5,15],"shift_direction":1,"question_num":51,"has_decoy":false},{"rt":2178.5,"stimulus":"[A] option 1, [L] option 2, [G] neither","key_press":65,"name":"choice","trial_type":"html-keyboard-response","trial_index":76,"time_elapsed":245503,"internal_node_id":"0.0-76.0","subject":"S1C1664","sona":"41828","block":2,"time":"2021-09-23T01:20:38.786Z","response":"1st","certainty":"high","char":"A","transposition":2,"order":["shifted","swapped"],"probe_pitches":[3,-2,3,10,8,0,5,10,-2,3,0,-2,5,0,10,0],"shifted_pitches":[3,-2,3,10,8,0,5,9,-2,3,0,-2,5,0,10,0],"swapped_pitches":[3,-2,3,10,8,0,5,-2,10,3,0,-2,5,0,10,0],"shift_direction":-1,"question_num":61,"has_decoy":false},{"rt":1648.5999999642372,"stimulus":"[A] option 1, [L] option 2, [G] neither","key_press":76,"name":"choice","trial_type":"html-keyboard-response","trial_index":87,"time_elapsed":271608,"internal_node_id":"0.0-87.0","subject":"S1C1664","sona":"41828","block":2,"time":"2021-09-23T01:20:38.786Z","response":"2nd","certainty":"high","char":"L","transposition":0,"order":["swapped","shifted"],"probe_pitches":[5,4,7,4,7,4,14,12,10,15,13,5,3,6,4,8],"shifted_pitches":[5,4,7,4,7,4,14,11,10,15,13,5,3,6,4,8],"swapped_pitches":[5,4,7,4,7,4,14,10,12,15,13,5,3,6,4,8],"shift_direction":-1,"question_num":71,"has_decoy":false},{"rt":1545.7000000476837,"stimulus":"[A] option 1, [L] option 2, [G] neither","key_press":76,"name":"choice","trial_type":"html-keyboard-response","trial_index":98,"time_elapsed":296166,"internal_node_id":"0.0-98.0","subject":"S1C1664","sona":"41828","block":2,"time":"2021-09-23T01:20:38.786Z","response":"2nd","certainty":"high","char":"L","transposition":-3,"order":["swapped","shifted"],"probe_pitches":[-2,1,8,10,3,1,3,1,-2,8,1,-2,10,1,5,-2],"shifted_pitches":[-2,1,8,10,3,1,3,2,-2,8,1,-2,10,1,5,-2],"swapped_pitches":[-2,1,8,10,3,1,3,-2,1,8,1,-2,10,1,5,-2],"shift_direction":1,"question_num":81,"has_decoy":false},{"rt":1137.5999999642372,"stimulus":"[A] option 1, [L] option 2, [G] neither","key_press":76,"name":"choice","trial_type":"html-keyboard-response","trial_index":109,"time_elapsed":321838,"internal_node_id":"0.0-109.0","subject":"S1C1664","sona":"41828","block":2,"time":"2021-09-23T01:20:38.786Z","response":"2nd","certainty":"high","char":"L","transposition":-1,"order":["swapped","shifted"],"probe_pitches":[-2,3,8,3,5,-2,1,3,-2,10,5,3,-2,3,-2,8],"shifted_pitches":[-2,3,8,3,5,-2,1,3,-1,10,5,3,-2,3,-2,8],"swapped_pitches":[-2,3,8,3,5,-2,1,-2,3,10,5,3,-2,3,-2,8],"shift_direction":1,"question_num":91,"has_decoy":false},{"rt":1412.1000000238419,"stimulus":"[A] option 1, [L] option 2, [G] neither","key_press":65,"name":"choice","trial_type":"html-keyboard-response","trial_index":120,"time_elapsed":346225,"internal_node_id":"0.0-120.0","subject":"S1C1664","sona":"41828","block":2,"time":"2021-09-23T01:20:38.786Z","response":"1st","certainty":"high","char":"A","transposition":2,"order":["shifted","swapped"],"probe_pitches":[13,8,10,9,5,6,9,5,6,12,3,11,15,11,15,9],"shifted_pitches":[13,8,10,9,5,6,9,5,7,12,3,11,15,11,15,9],"swapped_pitches":[13,8,10,9,5,6,9,6,5,12,3,11,15,11,15,9],"shift_direction":1,"question_num":101,"has_decoy":false},{"rt":1383,"stimulus":"[A] option 1, [L] option 2, [G] neither","key_press":76,"name":"choice","trial_type":"html-keyboard-response","trial_index":131,"time_elapsed":371240,"internal_node_id":"0.0-131.0","subject":"S1C1664","sona":"41828","block":2,"time":"2021-09-23T01:20:38.786Z","response":"2nd","certainty":"high","char":"L","transposition":-3,"order":["swapped","shifted"],"probe_pitches":[15,11,5,7,13,4,14,3,9,11,8,13,7,14,6,12],"shifted_pitches":[15,11,5,7,13,4,14,3,10,11,8,13,7,14,6,12],"swapped_pitches":[15,11,5,7,13,4,14,9,3,11,8,13,7,14,6,12],"shift_direction":1,"question_num":111,"has_decoy":false},{"rt":992.1000000238419,"stimulus":"[A] option 1, [L] option 2, [G] neither","key_press":76,"name":"choice","trial_type":"html-keyboard-response","trial_index":142,"time_elapsed":406615,"internal_node_id":"0.0-142.0","subject":"S1C1664","sona":"41828","block":2,"time":"2021-09-23T01:20:38.786Z","response":"2nd","certainty":"high","char":"L","transposition":-2,"order":["swapped","shifted"],"probe_pitches":[10,13,12,5,11,14,4,14,8,5,15,8,12,7,14,11],"shifted_pitches":[10,13,12,5,11,14,4,14,9,5,15,8,12,7,14,11],"swapped_pitches":[10,13,12,5,11,14,4,8,14,5,15,8,12,7,14,11],"shift_direction":1,"question_num":121,"has_decoy":false},{"rt":969.0999999642372,"stimulus":"[A] option 1, [L] option 2, [G] neither","key_press":65,"name":"choice","trial_type":"html-keyboard-response","trial_index":153,"time_elapsed":429877,"internal_node_id":"0.0-153.0","subject":"S1C1664","sona":"41828","block":2,"time":"2021-09-23T01:20:38.786Z","response":"1st","certainty":"high","char":"A","transposition":-3,"order":["shifted","swapped"],"probe_pitches":[-2,1,8,10,8,10,8,6,-2,3,10,-2,1,3,-2,3],"shifted_pitches":[-2,1,8,10,8,10,8,6,-3,3,10,-2,1,3,-2,3],"swapped_pitches":[-2,1,8,10,8,10,8,-2,6,3,10,-2,1,3,-2,3],"shift_direction":-1,"question_num":131,"has_decoy":false},{"rt":823.5999999642372,"stimulus":"[A] option 1, [L] option 2, [G] neither","key_press":65,"name":"choice","trial_type":"html-keyboard-response","trial_index":164,"time_elapsed":452804,"internal_node_id":"0.0-164.0","subject":"S1C1664","sona":"41828","block":2,"time":"2021-09-23T01:20:38.786Z","response":"1st","certainty":"high","char":"A","transposition":1,"order":["shifted","swapped"],"probe_pitches":[7,6,3,4,11,13,10,3,9,14,5,3,4,15,9,15],"shifted_pitches":[7,6,3,4,11,13,10,3,8,14,5,3,4,15,9,15],"swapped_pitches":[7,6,3,4,11,13,10,9,3,14,5,3,4,15,9,15],"shift_direction":-1,"question_num":141,"has_decoy":false},{"rt":1485.2999999523163,"stimulus":"[A] option 1, [L] option 2, [G] neither","key_press":76,"name":"choice","trial_type":"html-keyboard-response","trial_index":175,"time_elapsed":476671,"internal_node_id":"0.0-175.0","subject":"S1C1664","sona":"41828","block":2,"time":"2021-09-23T01:20:38.786Z","response":"2nd","certainty":"high","char":"L","transposition":3,"order":["swapped","shifted"],"probe_pitches":[3,8,1,8,1,6,1,8,-2,1,8,3,8,3,-2,8],"shifted_pitches":[3,8,1,8,1,6,1,8,-1,1,8,3,8,3,-2,8],"swapped_pitches":[3,8,1,8,1,6,1,-2,8,1,8,3,8,3,-2,8],"shift_direction":1,"question_num":151,"has_decoy":false},{"rt":1112.4000000357628,"stimulus":"[A] option 1, [L] option 2, [G] neither","key_press":76,"name":"choice","trial_type":"html-keyboard-response","trial_index":186,"time_elapsed":500090,"internal_node_id":"0.0-186.0","subject":"S1C1664","sona":"41828","block":2,"time":"2021-09-23T01:20:38.786Z","response":"2nd","certainty":"high","char":"L","transposition":-1,"order":["swapped","shifted"],"probe_pitches":[5,7,0,5,10,5,7,0,-2,7,10,0,5,7,5,2],"shifted_pitches":[5,7,0,5,10,5,7,0,-3,7,10,0,5,7,5,2],"swapped_pitches":[5,7,0,5,10,5,7,-2,0,7,10,0,5,7,5,2],"shift_direction":-1,"question_num":161,"has_decoy":false},{"rt":1156.0999999642372,"stimulus":"[A] option 1, [L] option 2, [G] neither","key_press":76,"name":"choice","trial_type":"html-keyboard-response","trial_index":197,"time_elapsed":525963,"internal_node_id":"0.0-197.0","subject":"S1C1664","sona":"41828","block":2,"time":"2021-09-23T01:20:38.786Z","response":"2nd","certainty":"high","char":"L","transposition":-3,"order":["swapped","shifted"],"probe_pitches":[13,8,11,10,6,11,4,3,6,15,4,11,8,4,14,3],"shifted_pitches":[13,8,11,10,6,11,4,3,5,15,4,11,8,4,14,3],"swapped_pitches":[13,8,11,10,6,11,4,6,3,15,4,11,8,4,14,3],"shift_direction":-1,"question_num":171,"has_decoy":false},{"rt":1172,"stimulus":"[A] option 1, [L] option 2, [G] neither","key_press":65,"name":"choice","trial_type":"html-keyboard-response","trial_index":208,"time_elapsed":552475,"internal_node_id":"0.0-208.0","subject":"S1C1664","sona":"41828","block":2,"time":"2021-09-23T01:20:38.786Z","response":"1st","certainty":"high","char":"A","transposition":-2,"order":["shifted","swapped"],"probe_pitches":[5,10,3,8,10,0,3,5,8,0,10,8,-2,0,8,-2],"shifted_pitches":[5,10,3,8,10,0,3,4,8,0,10,8,-2,0,8,-2],"swapped_pitches":[5,10,3,8,10,0,3,8,5,0,10,8,-2,0,8,-2],"shift_direction":-1,"question_num":181,"has_decoy":false},{"rt":1240.9000000357628,"stimulus":"[A] option 1, [L] option 2, [G] neither","key_press":65,"name":"choice","trial_type":"html-keyboard-response","trial_index":219,"time_elapsed":576032,"internal_node_id":"0.0-219.0","subject":"S1C1664","sona":"41828","block":2,"time":"2021-09-23T01:20:38.786Z","response":"1st","certainty":"high","char":"A","transposition":0,"order":["shifted","swapped"],"probe_pitches":[7,3,5,7,0,3,5,3,-2,0,-2,7,3,-2,5,10],"shifted_pitches":[7,3,5,7,0,3,5,4,-2,0,-2,7,3,-2,5,10],"swapped_pitches":[7,3,5,7,0,3,5,-2,3,0,-2,7,3,-2,5,10],"shift_direction":1,"question_num":191,"has_decoy":false}]