[{"rt":892.1000000238419,"stimulus":"[A] option 1, [L] option 2, [G] neither","key_press":76,"name":"choice","trial_type":"html-keyboard-response","trial_index":10,"time_elapsed":28284,"internal_node_id":"0.0-10.0","subject":"S1C1664","sona":"41828","block":4,"time":"2021-09-23T01:37:00.490Z","response":"2nd","certainty":"high","char":"L","transposition":2,"order":["shifted","swapped"],"probe_pitches":[4,5,3,-2,4,3,-2,5,4,8,-2,-3,4,-2,5,-1],"shifted_pitches":[4,5,3,-2,4,3,-2,6,4,8,-2,-3,4,-2,5,-1],"swapped_pitches":[4,5,3,-2,4,3,-2,4,5,8,-2,-3,4,-2,5,-1],"shift_direction":1,"question_num":1,"has_decoy":false},{"rt":1209.1000000238419,"stimulus":"[A] option 1, [L] option 2, [G] neither","key_press":76,"name":"choice","trial_type":"html-keyboard-response","trial_index":21,"time_elapsed":53071,"internal_node_id":"0.0-21.0","subject":"S1C1664","sona":"41828","block":4,"time":"2021-09-23T01:37:00.490Z","response":"2nd","certainty":"high","char":"L","transposition":0,"order":["swapped","shifted"],"probe_pitches":[3,6,8,3,1,8,-1,3,6,1,11,-1,3,6,3,11],"shifted_pitches":[3,6,8,3,1,8,-1,4,6,1,11,-1,3,6,3,11],"swapped_pitches":[3,6,8,3,1,8,-1,6,3,1,11,-1,3,6,3,11],"shift_direction":1,"question_num":11,"has_decoy":false},{"rt":744.5,"stimulus":"[A] option 1, [L] option 2, [G] neither","key_press":76,"name":"choice","trial_type":"html-keyboard-response","trial_index":32,"time_elapsed":76147,"internal_node_id":"0.0-32.0","subject":"S1C1664","sona":"41828","block":4,"time":"2021-09-23T01:37:00.490Z","response":"2nd","certainty":"high","char":"L","transposition":2,"order":["swapped","shifted"],"probe_pitches":[11,6,8,6,-1,6,11,6,8,4,-1,1,4,1,-1,4],"shifted_pitches":[11,6,8,6,-1,6,11,5,8,4,-1,1,4,1,-1,4],"swapped_pitches":[11,6,8,6,-1,6,11,8,6,4,-1,1,4,1,-1,4],"shift_direction":-1,"question_num":21,"has_decoy":false},{"rt":502.69999998807907,"stimulus":"[A] option 1, [L] option 2, [G] neither","key_press":65,"name":"choice","trial_type":"html-keyboard-response","trial_index":43,"time_elapsed":98971,"internal_node_id":"0.0-43.0","subject":"S1C1664","sona":"41828","block":4,"time":"2021-09-23T01:37:00.490Z","response":"1st","certainty":"high","char":"A","transposition":-2,"order":["shifted","swapped"],"probe_pitches":[4,8,4,-1,4,11,1,6,4,-1,1,6,8,11,6,-1],"shifted_pitches":[4,8,4,-1,4,11,1,7,4,-1,1,6,8,11,6,-1],"swapped_pitches":[4,8,4,-1,4,11,1,4,6,-1,1,6,8,11,6,-1],"shift_direction":1,"question_num":31,"has_decoy":false},{"rt":383.80000001192093,"stimulus":"[A] option 1, [L] option 2, [G] neither","key_press":65,"name":"choice","trial_type":"html-keyboard-response","trial_index":54,"time_elapsed":121695,"internal_node_id":"0.0-54.0","subject":"S1C1664","sona":"41828","block":4,"time":"2021-09-23T01:37:00.490Z","response":"1st","certainty":"high","char":"A","transposition":-2,"order":["swapped","shifted"],"probe_pitches":[5,8,9,6,-2,0,5,6,-3,8,0,5,0,3,2,-1],"shifted_pitches":[5,8,9,6,-2,0,5,7,-3,8,0,5,0,3,2,-1],"swapped_pitches":[5,8,9,6,-2,0,5,-3,6,8,0,5,0,3,2,-1],"shift_direction":1,"question_num":41,"has_decoy":false},{"rt":1269,"stimulus":"[A] option 1, [L] option 2, [G] neither","key_press":65,"name":"choice","trial_type":"html-keyboard-response","trial_index":65,"time_elapsed":145402,"internal_node_id":"0.0-65.0","subject":"S1C1664","sona":"41828","block":4,"time":"2021-09-23T01:37:00.490Z","response":"1st","certainty":"high","char":"A","transposition":-3,"order":["shifted","swapped"],"probe_pitches":[0,1,-3,5,1,0,8,3,7,4,-3,6,0,9,-2,-3],"shifted_pitches":[0,1,-3,5,1,0,8,2,7,4,-3,6,0,9,-2,-3],"swapped_pitches":[0,1,-3,5,1,0,8,7,3,4,-3,6,0,9,-2,-3],"shift_direction":-1,"question_num":51,"has_decoy":false},{"rt":613.6000000238419,"stimulus":"[A] option 1, [L] option 2, [G] neither","key_press":65,"name":"choice","trial_type":"html-keyboard-response","trial_index":76,"time_elapsed":168570,"internal_node_id":"0.0-76.0","subject":"S1C1664","sona":"41828","block":4,"time":"2021-09-23T01:37:00.490Z","response":"1st","certainty":"high","char":"A","transposition":1,"order":["shifted","swapped"],"probe_pitches":[-1,4,9,7,-1,2,7,-1,9,11,2,11,9,-1,4,2],"shifted_pitches":[-1,4,9,7,-1,2,7,-1,10,11,2,11,9,-1,4,2],"swapped_pitches":[-1,4,9,7,-1,2,7,9,-1,11,2,11,9,-1,4,2],"shift_direction":1,"question_num":61,"has_decoy":false},{"rt":751.3000000119209,"stimulus":"[A] option 1, [L] option 2, [G] neither","key_press":65,"name":"choice","trial_type":"html-keyboard-response","trial_index":87,"time_elapsed":191769,"internal_node_id":"0.0-87.0","subject":"S1C1664","sona":"41828","block":4,"time":"2021-09-23T01:37:00.490Z","response":"1st","certainty":"high","char":"A","transposition":-1,"order":["shifted","swapped"],"probe_pitches":[11,9,6,11,6,-1,9,-1,11,9,6,1,4,11,-1,11],"shifted_pitches":[11,9,6,11,6,-1,9,0,11,9,6,1,4,11,-1,11],"swapped_pitches":[11,9,6,11,6,-1,9,11,-1,9,6,1,4,11,-1,11],"shift_direction":1,"question_num":71,"has_decoy":false},{"rt":762,"stimulus":"[A] option 1, [L] option 2, [G] neither","key_press":76,"name":"choice","trial_type":"html-keyboard-response","trial_index":98,"time_elapsed":214889,"internal_node_id":"0.0-98.0","subject":"S1C1664","sona":"41828","block":4,"time":"2021-09-23T01:37:00.490Z","response":"2nd","certainty":"high","char":"L","transposition":-3,"order":["swapped","shifted"],"probe_pitches":[4,1,6,4,-1,1,11,1,-1,11,1,11,4,6,1,9],"shifted_pitches":[4,1,6,4,-1,1,11,1,-2,11,1,11,4,6,1,9],"swapped_pitches":[4,1,6,4,-1,1,11,-1,1,11,1,11,4,6,1,9],"shift_direction":-1,"question_num":81,"has_decoy":false},{"rt":1343.699999988079,"stimulus":"[A] option 1, [L] option 2, [G] neither","key_press":65,"name":"choice","trial_type":"html-keyboard-response","trial_index":109,"time_elapsed":238538,"internal_node_id":"0.0-109.0","subject":"S1C1664","sona":"41828","block":4,"time":"2021-09-23T01:37:00.490Z","response":"1st","certainty":"high","char":"A","transposition":3,"order":["shifted","swapped"],"probe_pitches":[0,2,7,9,2,-2,2,-3,7,-2,4,7,9,0,-1,7],"shifted_pitches":[0,2,7,9,2,-2,2,-3,8,-2,4,7,9,0,-1,7],"swapped_pitches":[0,2,7,9,2,-2,2,7,-3,-2,4,7,9,0,-1,7],"shift_direction":1,"question_num":91,"has_decoy":false},{"rt":607.8000000119209,"stimulus":"[A] option 1, [L] option 2, [G] neither","key_press":65,"name":"choice","trial_type":"html-keyboard-response","trial_index":120,"time_elapsed":261610,"internal_node_id":"0.0-120.0","subject":"S1C1664","sona":"41828","block":4,"time":"2021-09-23T01:37:00.490Z","response":"1st","certainty":"high","char":"A","transposition":-1,"order":["swapped","shifted"],"probe_pitches":[9,4,1,6,-1,7,6,2,4,0,1,-3,4,7,6,2],"shifted_pitches":[9,4,1,6,-1,7,6,2,5,0,1,-3,4,7,6,2],"swapped_pitches":[9,4,1,6,-1,7,6,4,2,0,1,-3,4,7,6,2],"shift_direction":1,"question_num":101,"has_decoy":false},{"rt":1936.800000011921,"stimulus":"[A] option 1, [L] option 2, [G] neither","key_press":76,"name":"choice","trial_type":"html-keyboard-response","trial_index":131,"time_elapsed":285830,"internal_node_id":"0.0-131.0","subject":"S1C1664","sona":"41828","block":4,"time":"2021-09-23T01:37:00.490Z","response":"2nd","certainty":"high","char":"L","transposition":-3,"order":["shifted","swapped"],"probe_pitches":[9,11,4,2,-1,6,11,-1,9,6,2,11,4,9,11,4],"shifted_pitches":[9,11,4,2,-1,6,11,-1,8,6,2,11,4,9,11,4],"swapped_pitches":[9,11,4,2,-1,6,11,9,-1,6,2,11,4,9,11,4],"shift_direction":-1,"question_num":111,"has_decoy":false},{"rt":10199.600000023842,"stimulus":"[A] option 1, [L] option 2, [G] neither","key_press":65,"name":"choice","trial_type":"html-keyboard-response","trial_index":142,"time_elapsed":318823,"internal_node_id":"0.0-142.0","subject":"S1C1664","sona":"41828","block":4,"time":"2021-09-23T01:37:00.490Z","response":"1st","certainty":"high","char":"A","transposition":-2,"order":["swapped","shifted"],"probe_pitches":[-3,-2,-3,5,2,8,-1,4,-2,0,4,8,2,0,7,5],"shifted_pitches":[-3,-2,-3,5,2,8,-1,3,-2,0,4,8,2,0,7,5],"swapped_pitches":[-3,-2,-3,5,2,8,-1,-2,4,0,4,8,2,0,7,5],"shift_direction":-1,"question_num":121,"has_decoy":false},{"rt":683.5999999642372,"stimulus":"[A] option 1, [L] option 2, [G] neither","key_press":76,"name":"choice","trial_type":"html-keyboard-response","trial_index":153,"time_elapsed":341931,"internal_node_id":"0.0-153.0","subject":"S1C1664","sona":"41828","block":4,"time":"2021-09-23T01:37:00.490Z","response":"2nd","certainty":"high","char":"L","transposition":3,"order":["swapped","shifted"],"probe_pitches":[-1,4,9,7,2,4,11,9,2,7,11,4,7,11,4,2],"shifted_pitches":[-1,4,9,7,2,4,11,9,1,7,11,4,7,11,4,2],"swapped_pitches":[-1,4,9,7,2,4,11,2,9,7,11,4,7,11,4,2],"shift_direction":-1,"question_num":131,"has_decoy":false},{"rt":616.3999999761581,"stimulus":"[A] option 1, [L] option 2, [G] neither","key_press":65,"name":"choice","trial_type":"html-keyboard-response","trial_index":164,"time_elapsed":364845,"internal_node_id":"0.0-164.0","subject":"S1C1664","sona":"41828","block":4,"time":"2021-09-23T01:37:00.490Z","response":"1st","certainty":"high","char":"A","transposition":-2,"order":["shifted","swapped"],"probe_pitches":[6,9,4,-1,4,11,4,11,2,9,-1,2,9,4,6,2],"shifted_pitches":[6,9,4,-1,4,11,4,10,2,9,-1,2,9,4,6,2],"swapped_pitches":[6,9,4,-1,4,11,4,2,11,9,-1,2,9,4,6,2],"shift_direction":-1,"question_num":141,"has_decoy":false},{"rt":779,"stimulus":"[A] option 1, [L] option 2, [G] neither","key_press":76,"name":"choice","trial_type":"html-keyboard-response","trial_index":175,"time_elapsed":387904,"internal_node_id":"0.0-175.0","subject":"S1C1664","sona":"41828","block":4,"time":"2021-09-23T01:37:00.490Z","response":"2nd","certainty":"high","char":"L","transposition":1,"order":["shifted","swapped"],"probe_pitches":[7,6,2,7,8,7,-2,9,-1,4,5,8,6,2,1,3],"shifted_pitches":[7,6,2,7,8,7,-2,9,0,4,5,8,6,2,1,3],"swapped_pitches":[7,6,2,7,8,7,-2,-1,9,4,5,8,6,2,1,3],"shift_direction":1,"question_num":151,"has_decoy":false},{"rt":634,"stimulus":"[A] option 1, [L] option 2, [G] neither","key_press":76,"name":"choice","trial_type":"html-keyboard-response","trial_index":186,"time_elapsed":410980,"internal_node_id":"0.0-186.0","subject":"S1C1664","sona":"41828","block":4,"time":"2021-09-23T01:37:00.490Z","response":"2nd","certainty":"high","char":"L","transposition":-1,"order":["shifted","swapped"],"probe_pitches":[6,0,3,5,8,2,1,5,0,7,0,-3,6,5,7,2],"shifted_pitches":[6,0,3,5,8,2,1,4,0,7,0,-3,6,5,7,2],"swapped_pitches":[6,0,3,5,8,2,1,0,5,7,0,-3,6,5,7,2],"shift_direction":-1,"question_num":161,"has_decoy":false},{"rt":958.6999999880791,"stimulus":"[A] option 1, [L] option 2, [G] neither","key_press":76,"name":"choice","trial_type":"html-keyboard-response","trial_index":197,"time_elapsed":434478,"internal_node_id":"0.0-197.0","subject":"S1C1664","sona":"41828","block":4,"time":"2021-09-23T01:37:00.490Z","response":"2nd","certainty":"high","char":"L","transposition":0,"order":["swapped","shifted"],"probe_pitches":[9,4,0,7,5,-2,5,3,0,9,-3,5,3,9,2,-3],"shifted_pitches":[9,4,0,7,5,-2,5,3,-1,9,-3,5,3,9,2,-3],"swapped_pitches":[9,4,0,7,5,-2,5,0,3,9,-3,5,3,9,2,-3],"shift_direction":-1,"question_num":171,"has_decoy":false},{"rt":6143.5,"stimulus":"[A] option 1, [L] option 2, [G] neither","key_press":76,"name":"choice","trial_type":"html-keyboard-response","trial_index":208,"time_elapsed":463092,"internal_node_id":"0.0-208.0","subject":"S1C1664","sona":"41828","block":4,"time":"2021-09-23T01:37:00.490Z","response":"2nd","certainty":"high","char":"L","transposition":-3,"order":["swapped","shifted"],"probe_pitches":[5,4,-3,0,3,8,5,3,2,9,4,7,0,-2,6,5],"shifted_pitches":[5,4,-3,0,3,8,5,3,1,9,4,7,0,-2,6,5],"swapped_pitches":[5,4,-3,0,3,8,5,2,3,9,4,7,0,-2,6,5],"shift_direction":-1,"question_num":181,"has_decoy":false},{"rt":2756.600000023842,"stimulus":"[A] option 1, [L] option 2, [G] neither","key_press":65,"name":"choice","trial_type":"html-keyboard-response","trial_index":219,"time_elapsed":488777,"internal_node_id":"0.0-219.0","subject":"S1C1664","sona":"41828","block":4,"time":"2021-09-23T01:37:00.490Z","response":"1st","certainty":"high","char":"A","transposition":-1,"order":["swapped","shifted"],"probe_pitches":[1,6,3,1,-1,6,3,6,1,3,1,11,8,1,6,11],"shifted_pitches":[1,6,3,1,-1,6,3,6,2,3,1,11,8,1,6,11],"swapped_pitches":[1,6,3,1,-1,6,3,1,6,3,1,11,8,1,6,11],"shift_direction":1,"question_num":191,"has_decoy":false}]