[{"rt":690.8999999761581,"stimulus":"[A] option 1, [L] option 2, [G] neither","key_press":65,"name":"choice","trial_type":"html-keyboard-response","trial_index":10,"time_elapsed":29151,"internal_node_id":"0.0-10.0","subject":"S1C1664","sona":"41828","block":6,"time":"2021-09-23T01:56:37.093Z","response":"1st","certainty":"high","char":"A","transposition":1,"order":["swapped","shifted"],"probe_pitches":[6,8,7,10,9,2,7,11,4,0,3,8,11,8,12,9],"shifted_pitches":[6,8,7,10,9,2,7,11,5,0,3,8,11,8,12,9],"swapped_pitches":[6,8,7,10,9,2,7,4,11,0,3,8,11,8,12,9],"shift_direction":1,"question_num":1,"has_decoy":false},{"rt":413.69999998807907,"stimulus":"[A] option 1, [L] option 2, [G] neither","key_press":76,"name":"choice","trial_type":"html-keyboard-response","trial_index":21,"time_elapsed":55172,"internal_node_id":"0.0-21.0","subject":"S1C1664","sona":"41828","block":6,"time":"2021-09-23T01:56:37.093Z","response":"2nd","certainty":"high","char":"L","transposition":-1,"order":["shifted","swapped"],"probe_pitches":[1,4,1,-1,1,4,11,1,8,6,1,-1,11,4,11,-1],"shifted_pitches":[1,4,1,-1,1,4,11,1,7,6,1,-1,11,4,11,-1],"swapped_pitches":[1,4,1,-1,1,4,11,8,1,6,1,-1,11,4,11,-1],"shift_direction":-1,"question_num":11,"has_decoy":false},{"rt":1144.7999999523163,"stimulus":"[A] option 1, [L] option 2, [G] neither","key_press":76,"name":"choice","trial_type":"html-keyboard-response","trial_index":32,"time_elapsed":79157,"internal_node_id":"0.0-32.0","subject":"S1C1664","sona":"41828","block":6,"time":"2021-09-23T01:56:37.093Z","response":"2nd","certainty":"high","char":"L","transposition":0,"order":["swapped","shifted"],"probe_pitches":[6,0,5,12,7,12,8,10,0,4,10,3,11,10,1,4],"shifted_pitches":[6,0,5,12,7,12,8,9,0,4,10,3,11,10,1,4],"swapped_pitches":[6,0,5,12,7,12,8,0,10,4,10,3,11,10,1,4],"shift_direction":-1,"question_num":21,"has_decoy":false},{"rt":1886.800000011921,"stimulus":"[A] option 1, [L] option 2, [G] neither","key_press":65,"name":"choice","trial_type":"html-keyboard-response","trial_index":43,"time_elapsed":103483,"internal_node_id":"0.0-43.0","subject":"S1C1664","sona":"41828","block":6,"time":"2021-09-23T01:56:37.093Z","response":"1st","certainty":"high","char":"A","transposition":-1,"order":["shifted","swapped"],"probe_pitches":[0,1,7,0,6,9,6,12,8,3,10,2,3,12,4,0],"shifted_pitches":[0,1,7,0,6,9,6,11,8,3,10,2,3,12,4,0],"swapped_pitches":[0,1,7,0,6,9,6,8,12,3,10,2,3,12,4,0],"shift_direction":-1,"question_num":31,"has_decoy":false},{"rt":289.5,"stimulus":"[A] option 1, [L] option 2, [G] neither","key_press":76,"name":"choice","trial_type":"html-keyboard-response","trial_index":54,"time_elapsed":127432,"internal_node_id":"0.0-54.0","subject":"S1C1664","sona":"41828","block":6,"time":"2021-09-23T01:56:37.093Z","response":"2nd","certainty":"high","char":"L","transposition":-3,"order":["shifted","swapped"],"probe_pitches":[7,2,0,6,0,4,0,2,7,10,5,9,1,8,10,7],"shifted_pitches":[7,2,0,6,0,4,0,3,7,10,5,9,1,8,10,7],"swapped_pitches":[7,2,0,6,0,4,0,7,2,10,5,9,1,8,10,7],"shift_direction":1,"question_num":41,"has_decoy":false},{"rt":270.4000000357628,"stimulus":"[A] option 1, [L] option 2, [G] neither","key_press":65,"name":"choice","trial_type":"html-keyboard-response","trial_index":65,"time_elapsed":150203,"internal_node_id":"0.0-65.0","subject":"S1C1664","sona":"41828","block":6,"time":"2021-09-23T01:56:37.093Z","response":"1st","certainty":"high","char":"A","transposition":2,"order":["shifted","swapped"],"probe_pitches":[11,6,-1,2,6,2,6,4,11,-1,11,-1,4,11,9,-1],"shifted_pitches":[11,6,-1,2,6,2,6,4,12,-1,11,-1,4,11,9,-1],"swapped_pitches":[11,6,-1,2,6,2,6,11,4,-1,11,-1,4,11,9,-1],"shift_direction":1,"question_num":51,"has_decoy":false},{"rt":1141.6000000238419,"stimulus":"[A] option 1, [L] option 2, [G] neither","key_press":76,"name":"choice","trial_type":"html-keyboard-response","trial_index":76,"time_elapsed":174226,"internal_node_id":"0.0-76.0","subject":"S1C1664","sona":"41828","block":6,"time":"2021-09-23T01:56:37.093Z","response":"2nd","certainty":"high","char":"L","transposition":-2,"order":["shifted","swapped"],"probe_pitches":[7,12,9,12,9,10,4,1,5,12,5,10,4,0,12,8],"shifted_pitches":[7,12,9,12,9,10,4,1,6,12,5,10,4,0,12,8],"swapped_pitches":[7,12,9,12,9,10,4,5,1,12,5,10,4,0,12,8],"shift_direction":1,"question_num":61,"has_decoy":false},{"rt":1768.2999999523163,"stimulus":"[A] option 1, [L] option 2, [G] neither","key_press":65,"name":"choice","trial_type":"html-keyboard-response","trial_index":87,"time_elapsed":198031,"internal_node_id":"0.0-87.0","subject":"S1C1664","sona":"41828","block":6,"time":"2021-09-23T01:56:37.093Z","response":"1st","certainty":"high","char":"A","transposition":-1,"order":["shifted","swapped"],"probe_pitches":[8,4,8,1,4,11,4,1,6,11,1,8,-1,6,8,6],"shifted_pitches":[8,4,8,1,4,11,4,0,6,11,1,8,-1,6,8,6],"swapped_pitches":[8,4,8,1,4,11,4,6,1,11,1,8,-1,6,8,6],"shift_direction":-1,"question_num":71,"has_decoy":false},{"rt":423.5999999642372,"stimulus":"[A] option 1, [L] option 2, [G] neither","key_press":76,"name":"choice","trial_type":"html-keyboard-response","trial_index":98,"time_elapsed":220969,"internal_node_id":"0.0-98.0","subject":"S1C1664","sona":"41828","block":6,"time":"2021-09-23T01:56:37.093Z","response":"2nd","certainty":"high","char":"L","transposition":-3,"order":["swapped","shifted"],"probe_pitches":[-1,1,3,6,1,8,-1,11,3,-1,1,8,6,1,3,-1],"shifted_pitches":[-1,1,3,6,1,8,-1,12,3,-1,1,8,6,1,3,-1],"swapped_pitches":[-1,1,3,6,1,8,-1,3,11,-1,1,8,6,1,3,-1],"shift_direction":1,"question_num":81,"has_decoy":false},{"rt":319.2999999523163,"stimulus":"[A] option 1, [L] option 2, [G] neither","key_press":76,"name":"choice","trial_type":"html-keyboard-response","trial_index":109,"time_elapsed":244561,"internal_node_id":"0.0-109.0","subject":"S1C1664","sona":"41828","block":6,"time":"2021-09-23T01:56:37.093Z","response":"2nd","certainty":"high","char":"L","transposition":-2,"order":["swapped","shifted"],"probe_pitches":[11,7,2,4,2,4,-1,9,2,7,2,11,2,9,-1,9],"shifted_pitches":[11,7,2,4,2,4,-1,8,2,7,2,11,2,9,-1,9],"swapped_pitches":[11,7,2,4,2,4,-1,2,9,7,2,11,2,9,-1,9],"shift_direction":-1,"question_num":91,"has_decoy":false},{"rt":315.69999998807907,"stimulus":"[A] option 1, [L] option 2, [G] neither","key_press":76,"name":"choice","trial_type":"html-keyboard-response","trial_index":120,"time_elapsed":267240,"internal_node_id":"0.0-120.0","subject":"S1C1664","sona":"41828","block":6,"time":"2021-09-23T01:56:37.093Z","response":"2nd","certainty":"high","char":"L","transposition":-3,"order":["swapped","shifted"],"probe_pitches":[2,4,2,4,2,4,9,2,-1,11,-1,2,6,4,6,9],"shifted_pitches":[2,4,2,4,2,4,9,2,0,11,-1,2,6,4,6,9],"swapped_pitches":[2,4,2,4,2,4,9,-1,2,11,-1,2,6,4,6,9],"shift_direction":1,"question_num":101,"has_decoy":false},{"rt":1434.1000000238419,"stimulus":"[A] option 1, [L] option 2, [G] neither","key_press":76,"name":"choice","trial_type":"html-keyboard-response","trial_index":131,"time_elapsed":291035,"internal_node_id":"0.0-131.0","subject":"S1C1664","sona":"41828","block":6,"time":"2021-09-23T01:56:37.093Z","response":"2nd","certainty":"high","char":"L","transposition":-3,"order":["swapped","shifted"],"probe_pitches":[9,7,8,3,1,5,2,5,3,12,11,0,12,9,1,10],"shifted_pitches":[9,7,8,3,1,5,2,4,3,12,11,0,12,9,1,10],"swapped_pitches":[9,7,8,3,1,5,2,3,5,12,11,0,12,9,1,10],"shift_direction":-1,"question_num":111,"has_decoy":false},{"rt":4369.900000035763,"stimulus":"[A] option 1, [L] option 2, [G] neither","key_press":65,"name":"choice","trial_type":"html-keyboard-response","trial_index":142,"time_elapsed":320392,"internal_node_id":"0.0-142.0","subject":"S1C1664","sona":"41828","block":6,"time":"2021-09-23T01:56:37.093Z","response":"1st","certainty":"high","char":"A","transposition":3,"order":["shifted","swapped"],"probe_pitches":[5,8,7,12,6,1,9,1,11,9,10,6,0,10,5,10],"shifted_pitches":[5,8,7,12,6,1,9,2,11,9,10,6,0,10,5,10],"swapped_pitches":[5,8,7,12,6,1,9,11,1,9,10,6,0,10,5,10],"shift_direction":1,"question_num":121,"has_decoy":false},{"rt":1077.5,"stimulus":"[A] option 1, [L] option 2, [G] neither","key_press":76,"name":"choice","trial_type":"html-keyboard-response","trial_index":153,"time_elapsed":352700,"internal_node_id":"0.0-153.0","subject":"S1C1664","sona":"41828","block":6,"time":"2021-09-23T01:56:37.093Z","response":"2nd","certainty":"high","char":"L","transposition":0,"order":["swapped","shifted"],"probe_pitches":[11,6,11,8,6,-1,3,11,6,3,6,1,3,1,8,6],"shifted_pitches":[11,6,11,8,6,-1,3,12,6,3,6,1,3,1,8,6],"swapped_pitches":[11,6,11,8,6,-1,3,6,11,3,6,1,3,1,8,6],"shift_direction":1,"question_num":131,"has_decoy":false},{"rt":430.89999997615814,"stimulus":"[A] option 1, [L] option 2, [G] neither","key_press":76,"name":"choice","trial_type":"html-keyboard-response","trial_index":164,"time_elapsed":575942,"internal_node_id":"0.0-164.0","subject":"S1C1664","sona":"41828","block":6,"time":"2021-09-23T01:56:37.093Z","response":"2nd","certainty":"high","char":"L","transposition":3,"order":["swapped","shifted"],"probe_pitches":[7,9,4,-1,2,7,2,9,7,11,-1,9,7,2,9,7],"shifted_pitches":[7,9,4,-1,2,7,2,8,7,11,-1,9,7,2,9,7],"swapped_pitches":[7,9,4,-1,2,7,2,7,9,11,-1,9,7,2,9,7],"shift_direction":-1,"question_num":141,"has_decoy":false},{"rt":1051.7999999523163,"stimulus":"[A] option 1, [L] option 2, [G] neither","key_press":65,"name":"choice","trial_type":"html-keyboard-response","trial_index":175,"time_elapsed":599406,"internal_node_id":"0.0-175.0","subject":"S1C1664","sona":"41828","block":6,"time":"2021-09-23T01:56:37.093Z","response":"1st","certainty":"high","char":"A","transposition":2,"order":["shifted","swapped"],"probe_pitches":[1,6,0,6,12,11,4,11,6,1,6,3,6,0,9,3],"shifted_pitches":[1,6,0,6,12,11,4,11,7,1,6,3,6,0,9,3],"swapped_pitches":[1,6,0,6,12,11,4,6,11,1,6,3,6,0,9,3],"shift_direction":1,"question_num":151,"has_decoy":false},{"rt":292.0999999642372,"stimulus":"[A] option 1, [L] option 2, [G] neither","key_press":65,"name":"choice","trial_type":"html-keyboard-response","trial_index":186,"time_elapsed":624001,"internal_node_id":"0.0-186.0","subject":"S1C1664","sona":"41828","block":6,"time":"2021-09-23T01:56:37.093Z","response":"1st","certainty":"high","char":"A","transposition":-2,"order":["shifted","swapped"],"probe_pitches":[1,6,4,-1,1,4,1,4,9,11,9,4,9,-1,6,4],"shifted_pitches":[1,6,4,-1,1,4,1,4,10,11,9,4,9,-1,6,4],"swapped_pitches":[1,6,4,-1,1,4,1,9,4,11,9,4,9,-1,6,4],"shift_direction":1,"question_num":161,"has_decoy":false},{"rt":548.1999999880791,"stimulus":"[A] option 1, [L] option 2, [G] neither","key_press":65,"name":"choice","trial_type":"html-keyboard-response","trial_index":197,"time_elapsed":646923,"internal_node_id":"0.0-197.0","subject":"S1C1664","sona":"41828","block":6,"time":"2021-09-23T01:56:37.093Z","response":"1st","certainty":"high","char":"A","transposition":-2,"order":["swapped","shifted"],"probe_pitches":[8,9,11,12,7,8,7,0,11,5,8,0,5,6,7,1],"shifted_pitches":[8,9,11,12,7,8,7,0,10,5,8,0,5,6,7,1],"swapped_pitches":[8,9,11,12,7,8,7,11,0,5,8,0,5,6,7,1],"shift_direction":-1,"question_num":171,"has_decoy":false},{"rt":434.5,"stimulus":"[A] option 1, [L] option 2, [G] neither","key_press":65,"name":"choice","trial_type":"html-keyboard-response","trial_index":208,"time_elapsed":670143,"internal_node_id":"0.0-208.0","subject":"S1C1664","sona":"41828","block":6,"time":"2021-09-23T01:56:37.093Z","response":"1st","certainty":"high","char":"A","transposition":1,"order":["shifted","swapped"],"probe_pitches":[6,9,4,-1,6,1,-1,6,1,-1,9,-1,9,4,11,4],"shifted_pitches":[6,9,4,-1,6,1,-1,6,0,-1,9,-1,9,4,11,4],"swapped_pitches":[6,9,4,-1,6,1,-1,1,6,-1,9,-1,9,4,11,4],"shift_direction":-1,"question_num":181,"has_decoy":false},{"rt":821.5999999642372,"stimulus":"[A] option 1, [L] option 2, [G] neither","key_press":65,"name":"choice","trial_type":"html-keyboard-response","trial_index":219,"time_elapsed":693272,"internal_node_id":"0.0-219.0","subject":"S1C1664","sona":"41828","block":6,"time":"2021-09-23T01:56:37.093Z","response":"1st","certainty":"high","char":"A","transposition":-1,"order":["swapped","shifted"],"probe_pitches":[7,9,6,11,2,4,6,7,9,4,10,5,1,3,5,4],"shifted_pitches":[7,9,6,11,2,4,6,7,8,4,10,5,1,3,5,4],"swapped_pitches":[7,9,6,11,2,4,6,9,7,4,10,5,1,3,5,4],"shift_direction":-1,"question_num":191,"has_decoy":false}]