[{"rt":8896.800000011921,"stimulus":"[A] option 1, [L] option 2, [G] neither","key_press":65,"name":"choice","trial_type":"html-keyboard-response","trial_index":15,"time_elapsed":65387,"internal_node_id":"0.0-15.0","response":"1st","certainty":"high","char":"A","transposition":-3,"order":["shifted","swapped"],"probe_pitches":[7,9,7,4,7,2,7,2,4,7,-1,11,4,2,7,9],"shifted_pitches":[7,9,7,4,7,2,7,2,5,7,-1,11,4,2,7,9],"swapped_pitches":[7,9,7,4,7,2,7,4,2,7,-1,11,4,2,7,9],"shift_direction":1,"question_num":1,"has_decoy":false,"subject":"S1C1664","sona":"41828","block":1,"time":"2021-09-23T01:10:55.855Z"},{"rt":3399.199999988079,"stimulus":"[A] option 1, [L] option 2, [G] neither","key_press":76,"name":"choice","trial_type":"html-keyboard-response","trial_index":26,"time_elapsed":95356,"internal_node_id":"0.0-26.0","response":"2nd","certainty":"high","char":"L","transposition":-3,"order":["swapped","shifted"],"probe_pitches":[11,6,4,-1,4,-1,2,9,4,11,4,9,4,2,9,2],"shifted_pitches":[11,6,4,-1,4,-1,2,10,4,11,4,9,4,2,9,2],"swapped_pitches":[11,6,4,-1,4,-1,2,4,9,11,4,9,4,2,9,2],"shift_direction":1,"question_num":11,"has_decoy":false,"subject":"S1C1664","sona":"41828","block":1,"time":"2021-09-23T01:10:55.855Z"},{"rt":2175.800000011921,"stimulus":"[A] option 1, [L] option 2, [G] neither","key_press":76,"name":"choice","trial_type":"html-keyboard-response","trial_index":37,"time_elapsed":140756,"internal_node_id":"0.0-37.0","response":"2nd","certainty":"high","char":"L","transposition":-1,"order":["swapped","shifted"],"probe_pitches":[10,14,9,2,3,8,11,3,5,2,5,3,11,14,3,14],"shifted_pitches":[10,14,9,2,3,8,11,4,5,2,5,3,11,14,3,14],"swapped_pitches":[10,14,9,2,3,8,11,5,3,2,5,3,11,14,3,14],"shift_direction":1,"question_num":21,"has_decoy":false,"subject":"S1C1664","sona":"41828","block":1,"time":"2021-09-23T01:10:55.855Z"},{"rt":3684.5,"stimulus":"[A] option 1, [L] option 2, [G] neither","key_press":76,"name":"choice","trial_type":"html-keyboard-response","trial_index":48,"time_elapsed":167684,"internal_node_id":"0.0-48.0","response":"2nd","certainty":"high","char":"L","transposition":-2,"order":["shifted","swapped"],"probe_pitches":[11,6,-1,4,6,9,4,9,11,1,9,-1,11,6,4,1],"shifted_pitches":[11,6,-1,4,6,9,4,9,12,1,9,-1,11,6,4,1],"swapped_pitches":[11,6,-1,4,6,9,4,11,9,1,9,-1,11,6,4,1],"shift_direction":1,"question_num":31,"has_decoy":false,"subject":"S1C1664","sona":"41828","block":1,"time":"2021-09-23T01:10:55.855Z"},{"rt":1516.7999999523163,"stimulus":"[A] option 1, [L] option 2, [G] neither","key_press":65,"name":"choice","trial_type":"html-keyboard-response","trial_index":59,"time_elapsed":224961,"internal_node_id":"0.0-59.0","response":"1st","certainty":"high","char":"A","transposition":3,"order":["swapped","shifted"],"probe_pitches":[14,8,11,3,4,5,13,7,11,12,6,4,8,12,14,2],"shifted_pitches":[14,8,11,3,4,5,13,7,10,12,6,4,8,12,14,2],"swapped_pitches":[14,8,11,3,4,5,13,11,7,12,6,4,8,12,14,2],"shift_direction":-1,"question_num":41,"has_decoy":false,"subject":"S1C1664","sona":"41828","block":1,"time":"2021-09-23T01:10:55.855Z"},{"rt":1585.3999999761581,"stimulus":"[A] option 1, [L] option 2, [G] neither","key_press":76,"name":"choice","trial_type":"html-keyboard-response","trial_index":70,"time_elapsed":249756,"internal_node_id":"0.0-70.0","response":"2nd","certainty":"high","char":"L","transposition":-2,"order":["swapped","shifted"],"probe_pitches":[8,4,8,4,6,4,14,8,5,11,8,4,3,12,3,12],"shifted_pitches":[8,4,8,4,6,4,14,9,5,11,8,4,3,12,3,12],"swapped_pitches":[8,4,8,4,6,4,14,5,8,11,8,4,3,12,3,12],"shift_direction":1,"question_num":51,"has_decoy":false,"subject":"S1C1664","sona":"41828","block":1,"time":"2021-09-23T01:10:55.855Z"},{"rt":1682.8999999761581,"stimulus":"[A] option 1, [L] option 2, [G] neither","key_press":76,"name":"choice","trial_type":"html-keyboard-response","trial_index":81,"time_elapsed":307982,"internal_node_id":"0.0-81.0","response":"2nd","certainty":"high","char":"L","transposition":-1,"order":["shifted","swapped"],"probe_pitches":[11,9,6,-1,2,-1,6,-1,2,4,2,11,-1,2,9,-1],"shifted_pitches":[11,9,6,-1,2,-1,6,-2,2,4,2,11,-1,2,9,-1],"swapped_pitches":[11,9,6,-1,2,-1,6,2,-1,4,2,11,-1,2,9,-1],"shift_direction":-1,"question_num":61,"has_decoy":false,"subject":"S1C1664","sona":"41828","block":1,"time":"2021-09-23T01:10:55.855Z"},{"rt":1403.3999999761581,"stimulus":"[A] option 1, [L] option 2, [G] neither","key_press":76,"name":"choice","trial_type":"html-keyboard-response","trial_index":92,"time_elapsed":332465,"internal_node_id":"0.0-92.0","response":"2nd","certainty":"high","char":"L","transposition":0,"order":["swapped","shifted"],"probe_pitches":[11,8,11,14,5,10,9,13,5,8,11,8,7,8,13,2],"shifted_pitches":[11,8,11,14,5,10,9,12,5,8,11,8,7,8,13,2],"swapped_pitches":[11,8,11,14,5,10,9,5,13,8,11,8,7,8,13,2],"shift_direction":-1,"question_num":71,"has_decoy":false,"subject":"S1C1664","sona":"41828","block":1,"time":"2021-09-23T01:10:55.855Z"},{"rt":320.80000001192093,"stimulus":"[A] option 1, [L] option 2, [G] neither","key_press":76,"name":"choice","trial_type":"html-keyboard-response","trial_index":103,"time_elapsed":447095,"internal_node_id":"0.0-103.0","response":"2nd","certainty":"high","char":"L","transposition":-2,"order":["swapped","shifted"],"probe_pitches":[6,8,1,-1,3,8,-1,6,11,8,3,-1,3,-1,1,3],"shifted_pitches":[6,8,1,-1,3,8,-1,5,11,8,3,-1,3,-1,1,3],"swapped_pitches":[6,8,1,-1,3,8,-1,11,6,8,3,-1,3,-1,1,3],"shift_direction":-1,"question_num":81,"has_decoy":false,"subject":"S1C1664","sona":"41828","block":1,"time":"2021-09-23T01:10:55.855Z"},{"rt":37477.10000002384,"stimulus":"[A] option 1, [L] option 2, [G] neither","key_press":76,"name":"choice","trial_type":"html-keyboard-response","trial_index":114,"time_elapsed":508106,"internal_node_id":"0.0-114.0","response":"2nd","certainty":"high","char":"L","transposition":1,"order":["swapped","shifted"],"probe_pitches":[2,7,11,4,2,9,2,11,4,7,-1,2,4,2,-1,2],"shifted_pitches":[2,7,11,4,2,9,2,11,3,7,-1,2,4,2,-1,2],"swapped_pitches":[2,7,11,4,2,9,2,4,11,7,-1,2,4,2,-1,2],"shift_direction":-1,"question_num":91,"has_decoy":false,"subject":"S1C1664","sona":"41828","block":1,"time":"2021-09-23T01:10:55.855Z"},{"rt":995.2999999523163,"stimulus":"[A] option 1, [L] option 2, [G] neither","key_press":76,"name":"choice","trial_type":"html-keyboard-response","trial_index":125,"time_elapsed":531255,"internal_node_id":"0.0-125.0","response":"2nd","certainty":"high","char":"L","transposition":-1,"order":["shifted","swapped"],"probe_pitches":[7,2,5,8,2,8,3,10,5,12,8,12,2,4,10,2],"shifted_pitches":[7,2,5,8,2,8,3,10,6,12,8,12,2,4,10,2],"swapped_pitches":[7,2,5,8,2,8,3,5,10,12,8,12,2,4,10,2],"shift_direction":1,"question_num":101,"has_decoy":false,"subject":"S1C1664","sona":"41828","block":1,"time":"2021-09-23T01:10:55.855Z"},{"rt":1068.9000000357628,"stimulus":"[A] option 1, [L] option 2, [G] neither","key_press":65,"name":"choice","trial_type":"html-keyboard-response","trial_index":136,"time_elapsed":555157,"internal_node_id":"0.0-136.0","response":"1st","certainty":"high","char":"A","transposition":-3,"order":["swapped","shifted"],"probe_pitches":[5,6,12,4,10,12,5,4,8,11,8,10,9,4,10,14],"shifted_pitches":[5,6,12,4,10,12,5,4,7,11,8,10,9,4,10,14],"swapped_pitches":[5,6,12,4,10,12,5,8,4,11,8,10,9,4,10,14],"shift_direction":-1,"question_num":111,"has_decoy":false,"subject":"S1C1664","sona":"41828","block":1,"time":"2021-09-23T01:10:55.855Z"},{"rt":1130,"stimulus":"[A] option 1, [L] option 2, [G] neither","key_press":76,"name":"choice","trial_type":"html-keyboard-response","trial_index":147,"time_elapsed":578978,"internal_node_id":"0.0-147.0","response":"2nd","certainty":"high","char":"L","transposition":-2,"order":["shifted","swapped"],"probe_pitches":[7,9,14,6,3,2,3,4,6,9,12,4,8,2,8,2],"shifted_pitches":[7,9,14,6,3,2,3,5,6,9,12,4,8,2,8,2],"swapped_pitches":[7,9,14,6,3,2,3,6,4,9,12,4,8,2,8,2],"shift_direction":1,"question_num":121,"has_decoy":false,"subject":"S1C1664","sona":"41828","block":1,"time":"2021-09-23T01:10:55.855Z"},{"rt":1114.0999999642372,"stimulus":"[A] option 1, [L] option 2, [G] neither","key_press":65,"name":"choice","trial_type":"html-keyboard-response","trial_index":158,"time_elapsed":613096,"internal_node_id":"0.0-158.0","response":"1st","certainty":"high","char":"A","transposition":-3,"order":["shifted","swapped"],"probe_pitches":[3,7,9,2,4,10,2,9,10,4,5,4,14,13,9,13],"shifted_pitches":[3,7,9,2,4,10,2,8,10,4,5,4,14,13,9,13],"swapped_pitches":[3,7,9,2,4,10,2,10,9,4,5,4,14,13,9,13],"shift_direction":-1,"question_num":131,"has_decoy":false,"subject":"S1C1664","sona":"41828","block":1,"time":"2021-09-23T01:10:55.855Z"},{"rt":1100.699999988079,"stimulus":"[A] option 1, [L] option 2, [G] neither","key_press":65,"name":"choice","trial_type":"html-keyboard-response","trial_index":169,"time_elapsed":636288,"internal_node_id":"0.0-169.0","response":"1st","certainty":"high","char":"A","transposition":2,"order":["shifted","swapped"],"probe_pitches":[13,12,8,3,9,4,13,10,12,9,7,4,3,10,3,7],"shifted_pitches":[13,12,8,3,9,4,13,10,11,9,7,4,3,10,3,7],"swapped_pitches":[13,12,8,3,9,4,13,12,10,9,7,4,3,10,3,7],"shift_direction":-1,"question_num":141,"has_decoy":false,"subject":"S1C1664","sona":"41828","block":1,"time":"2021-09-23T01:10:55.855Z"},{"rt":1128.9000000357628,"stimulus":"[A] option 1, [L] option 2, [G] neither","key_press":65,"name":"choice","trial_type":"html-keyboard-response","trial_index":180,"time_elapsed":660716,"internal_node_id":"0.0-180.0","response":"1st","certainty":"high","char":"A","transposition":-1,"order":["shifted","swapped"],"probe_pitches":[6,1,4,6,11,6,11,-1,8,4,6,11,1,-1,11,4],"shifted_pitches":[6,1,4,6,11,6,11,-1,7,4,6,11,1,-1,11,4],"swapped_pitches":[6,1,4,6,11,6,11,8,-1,4,6,11,1,-1,11,4],"shift_direction":-1,"question_num":151,"has_decoy":false,"subject":"S1C1664","sona":"41828","block":1,"time":"2021-09-23T01:10:55.855Z"},{"rt":715,"stimulus":"[A] option 1, [L] option 2, [G] neither","key_press":76,"name":"choice","trial_type":"html-keyboard-response","trial_index":191,"time_elapsed":684036,"internal_node_id":"0.0-191.0","response":"2nd","certainty":"high","char":"L","transposition":1,"order":["shifted","swapped"],"probe_pitches":[9,11,7,11,12,3,7,2,12,11,10,3,12,14,2,10],"shifted_pitches":[9,11,7,11,12,3,7,2,13,11,10,3,12,14,2,10],"swapped_pitches":[9,11,7,11,12,3,7,12,2,11,10,3,12,14,2,10],"shift_direction":1,"question_num":161,"has_decoy":false,"subject":"S1C1664","sona":"41828","block":1,"time":"2021-09-23T01:10:55.855Z"},{"rt":938.8999999761581,"stimulus":"[A] option 1, [L] option 2, [G] neither","key_press":76,"name":"choice","trial_type":"html-keyboard-response","trial_index":202,"time_elapsed":707912,"internal_node_id":"0.0-202.0","response":"2nd","certainty":"high","char":"L","transposition":3,"order":["swapped","shifted"],"probe_pitches":[3,1,3,8,6,11,3,1,8,-1,11,1,8,3,6,1],"shifted_pitches":[3,1,3,8,6,11,3,0,8,-1,11,1,8,3,6,1],"swapped_pitches":[3,1,3,8,6,11,3,8,1,-1,11,1,8,3,6,1],"shift_direction":-1,"question_num":171,"has_decoy":false,"subject":"S1C1664","sona":"41828","block":1,"time":"2021-09-23T01:10:55.855Z"},{"rt":1567.300000011921,"stimulus":"[A] option 1, [L] option 2, [G] neither","key_press":65,"name":"choice","trial_type":"html-keyboard-response","trial_index":213,"time_elapsed":766776,"internal_node_id":"0.0-213.0","response":"1st","certainty":"high","char":"A","transposition":2,"order":["swapped","shifted"],"probe_pitches":[4,6,11,6,1,9,11,1,6,11,1,4,11,6,-1,9],"shifted_pitches":[4,6,11,6,1,9,11,2,6,11,1,4,11,6,-1,9],"swapped_pitches":[4,6,11,6,1,9,11,6,1,11,1,4,11,6,-1,9],"shift_direction":1,"question_num":181,"has_decoy":false,"subject":"S1C1664","sona":"41828","block":1,"time":"2021-09-23T01:10:55.855Z"},{"rt":1378.300000011921,"stimulus":"[A] option 1, [L] option 2, [G] neither","key_press":76,"name":"choice","trial_type":"html-keyboard-response","trial_index":224,"time_elapsed":791196,"internal_node_id":"0.0-224.0","response":"2nd","certainty":"high","char":"L","transposition":0,"order":["shifted","swapped"],"probe_pitches":[8,4,1,6,11,1,4,8,6,1,6,4,1,6,11,8],"shifted_pitches":[8,4,1,6,11,1,4,8,7,1,6,4,1,6,11,8],"swapped_pitches":[8,4,1,6,11,1,4,6,8,1,6,4,1,6,11,8],"shift_direction":1,"question_num":191,"has_decoy":false,"subject":"S1C1664","sona":"41828","block":1,"time":"2021-09-23T01:10:55.855Z"}]