[{"rt":892.2000000476837,"stimulus":"[A] option 1, [L] option 2, [G] neither","key_press":76,"name":"choice","trial_type":"html-keyboard-response","trial_index":10,"time_elapsed":24284,"internal_node_id":"0.0-10.0","subject":"S1C1664","sona":"41828","block":3,"time":"2021-09-23T01:28:48.427Z","response":"2nd","certainty":"high","char":"L","transposition":-1,"order":["shifted","swapped"],"probe_pitches":[11,14,12,8,7,11,3,8,11,3,6,12,3,7,12,2],"shifted_pitches":[11,14,12,8,7,11,3,8,10,3,6,12,3,7,12,2],"swapped_pitches":[11,14,12,8,7,11,3,11,8,3,6,12,3,7,12,2],"shift_direction":-1,"question_num":1,"has_decoy":false},{"rt":977.1999999880791,"stimulus":"[A] option 1, [L] option 2, [G] neither","key_press":65,"name":"choice","trial_type":"html-keyboard-response","trial_index":21,"time_elapsed":47563,"internal_node_id":"0.0-21.0","subject":"S1C1664","sona":"41828","block":3,"time":"2021-09-23T01:28:48.427Z","response":"1st","certainty":"high","char":"A","transposition":-2,"order":["swapped","shifted"],"probe_pitches":[12,13,7,6,4,5,3,8,4,3,6,5,14,7,10,6],"shifted_pitches":[12,13,7,6,4,5,3,9,4,3,6,5,14,7,10,6],"swapped_pitches":[12,13,7,6,4,5,3,4,8,3,6,5,14,7,10,6],"shift_direction":1,"question_num":11,"has_decoy":false},{"rt":797.7000000476837,"stimulus":"[A] option 1, [L] option 2, [G] neither","key_press":65,"name":"choice","trial_type":"html-keyboard-response","trial_index":32,"time_elapsed":70733,"internal_node_id":"0.0-32.0","subject":"S1C1664","sona":"41828","block":3,"time":"2021-09-23T01:28:48.427Z","response":"1st","certainty":"high","char":"A","transposition":1,"order":["shifted","swapped"],"probe_pitches":[8,5,8,0,8,12,3,5,0,8,5,12,5,10,0,8],"shifted_pitches":[8,5,8,0,8,12,3,4,0,8,5,12,5,10,0,8],"swapped_pitches":[8,5,8,0,8,12,3,0,5,8,5,12,5,10,0,8],"shift_direction":-1,"question_num":21,"has_decoy":false},{"rt":2255.199999988079,"stimulus":"[A] option 1, [L] option 2, [G] neither","key_press":76,"name":"choice","trial_type":"html-keyboard-response","trial_index":43,"time_elapsed":95289,"internal_node_id":"0.0-43.0","subject":"S1C1664","sona":"41828","block":3,"time":"2021-09-23T01:28:48.427Z","response":"2nd","certainty":"high","char":"L","transposition":-1,"order":["shifted","swapped"],"probe_pitches":[10,5,8,10,5,0,3,12,8,3,5,3,0,8,3,10],"shifted_pitches":[10,5,8,10,5,0,3,13,8,3,5,3,0,8,3,10],"swapped_pitches":[10,5,8,10,5,0,3,8,12,3,5,3,0,8,3,10],"shift_direction":1,"question_num":31,"has_decoy":false},{"rt":3954.5,"stimulus":"[A] option 1, [L] option 2, [G] neither","key_press":65,"name":"choice","trial_type":"html-keyboard-response","trial_index":54,"time_elapsed":123165,"internal_node_id":"0.0-54.0","subject":"S1C1664","sona":"41828","block":3,"time":"2021-09-23T01:28:48.427Z","response":"1st","certainty":"high","char":"A","transposition":0,"order":["swapped","shifted"],"probe_pitches":[12,9,12,4,0,9,2,7,12,9,0,2,7,12,2,0],"shifted_pitches":[12,9,12,4,0,9,2,7,13,9,0,2,7,12,2,0],"swapped_pitches":[12,9,12,4,0,9,2,12,7,9,0,2,7,12,2,0],"shift_direction":1,"question_num":41,"has_decoy":false},{"rt":301.89999997615814,"stimulus":"[A] option 1, [L] option 2, [G] neither","key_press":76,"name":"choice","trial_type":"html-keyboard-response","trial_index":65,"time_elapsed":146531,"internal_node_id":"0.0-65.0","subject":"S1C1664","sona":"41828","block":3,"time":"2021-09-23T01:28:48.427Z","response":"2nd","certainty":"high","char":"L","transposition":2,"order":["swapped","shifted"],"probe_pitches":[2,7,12,5,9,0,5,12,2,9,7,2,7,5,9,2],"shifted_pitches":[2,7,12,5,9,0,5,13,2,9,7,2,7,5,9,2],"swapped_pitches":[2,7,12,5,9,0,5,2,12,9,7,2,7,5,9,2],"shift_direction":1,"question_num":51,"has_decoy":false},{"rt":269.80000001192093,"stimulus":"[A] option 1, [L] option 2, [G] neither","key_press":76,"name":"choice","trial_type":"html-keyboard-response","trial_index":76,"time_elapsed":169545,"internal_node_id":"0.0-76.0","subject":"S1C1664","sona":"41828","block":3,"time":"2021-09-23T01:28:48.427Z","response":"2nd","certainty":"high","char":"L","transposition":-2,"order":["swapped","shifted"],"probe_pitches":[0,5,3,5,10,12,5,7,12,10,3,12,0,5,0,5],"shifted_pitches":[0,5,3,5,10,12,5,6,12,10,3,12,0,5,0,5],"swapped_pitches":[0,5,3,5,10,12,5,12,7,10,3,12,0,5,0,5],"shift_direction":-1,"question_num":61,"has_decoy":false},{"rt":1496.5,"stimulus":"[A] option 1, [L] option 2, [G] neither","key_press":76,"name":"choice","trial_type":"html-keyboard-response","trial_index":87,"time_elapsed":193363,"internal_node_id":"0.0-87.0","subject":"S1C1664","sona":"41828","block":3,"time":"2021-09-23T01:28:48.427Z","response":"2nd","certainty":"high","char":"L","transposition":3,"order":["swapped","shifted"],"probe_pitches":[0,2,4,9,4,12,7,9,0,7,9,12,0,4,0,7],"shifted_pitches":[0,2,4,9,4,12,7,9,-1,7,9,12,0,4,0,7],"swapped_pitches":[0,2,4,9,4,12,7,0,9,7,9,12,0,4,0,7],"shift_direction":-1,"question_num":71,"has_decoy":false},{"rt":299.4000000357628,"stimulus":"[A] option 1, [L] option 2, [G] neither","key_press":65,"name":"choice","trial_type":"html-keyboard-response","trial_index":98,"time_elapsed":217494,"internal_node_id":"0.0-98.0","subject":"S1C1664","sona":"41828","block":3,"time":"2021-09-23T01:28:48.427Z","response":"1st","certainty":"high","char":"A","transposition":-3,"order":["shifted","swapped"],"probe_pitches":[10,12,10,12,10,0,10,5,2,10,7,12,2,5,0,5],"shifted_pitches":[10,12,10,12,10,0,10,5,3,10,7,12,2,5,0,5],"swapped_pitches":[10,12,10,12,10,0,10,2,5,10,7,12,2,5,0,5],"shift_direction":1,"question_num":81,"has_decoy":false},{"rt":495.69999998807907,"stimulus":"[A] option 1, [L] option 2, [G] neither","key_press":65,"name":"choice","trial_type":"html-keyboard-response","trial_index":109,"time_elapsed":240245,"internal_node_id":"0.0-109.0","subject":"S1C1664","sona":"41828","block":3,"time":"2021-09-23T01:28:48.427Z","response":"1st","certainty":"high","char":"A","transposition":0,"order":["swapped","shifted"],"probe_pitches":[4,9,12,5,6,12,6,11,12,8,4,11,10,8,12,9],"shifted_pitches":[4,9,12,5,6,12,6,11,13,8,4,11,10,8,12,9],"swapped_pitches":[4,9,12,5,6,12,6,12,11,8,4,11,10,8,12,9],"shift_direction":1,"question_num":91,"has_decoy":false},{"rt":286.39999997615814,"stimulus":"[A] option 1, [L] option 2, [G] neither","key_press":76,"name":"choice","trial_type":"html-keyboard-response","trial_index":120,"time_elapsed":262899,"internal_node_id":"0.0-120.0","subject":"S1C1664","sona":"41828","block":3,"time":"2021-09-23T01:28:48.427Z","response":"2nd","certainty":"high","char":"L","transposition":-2,"order":["shifted","swapped"],"probe_pitches":[13,8,4,11,6,7,10,11,9,14,5,6,3,6,13,8],"shifted_pitches":[13,8,4,11,6,7,10,12,9,14,5,6,3,6,13,8],"swapped_pitches":[13,8,4,11,6,7,10,9,11,14,5,6,3,6,13,8],"shift_direction":1,"question_num":101,"has_decoy":false},{"rt":312.5,"stimulus":"[A] option 1, [L] option 2, [G] neither","key_press":65,"name":"choice","trial_type":"html-keyboard-response","trial_index":131,"time_elapsed":286686,"internal_node_id":"0.0-131.0","subject":"S1C1664","sona":"41828","block":3,"time":"2021-09-23T01:28:48.427Z","response":"1st","certainty":"high","char":"A","transposition":2,"order":["swapped","shifted"],"probe_pitches":[7,5,10,14,9,3,10,5,11,9,5,8,13,7,13,11],"shifted_pitches":[7,5,10,14,9,3,10,4,11,9,5,8,13,7,13,11],"swapped_pitches":[7,5,10,14,9,3,10,11,5,9,5,8,13,7,13,11],"shift_direction":-1,"question_num":111,"has_decoy":false},{"rt":15670.900000035763,"stimulus":"[A] option 1, [L] option 2, [G] neither","key_press":76,"name":"choice","trial_type":"html-keyboard-response","trial_index":142,"time_elapsed":324758,"internal_node_id":"0.0-142.0","subject":"S1C1664","sona":"41828","block":3,"time":"2021-09-23T01:28:48.427Z","response":"2nd","certainty":"high","char":"L","transposition":-2,"order":["shifted","swapped"],"probe_pitches":[5,0,2,5,2,10,0,2,10,0,2,7,5,0,5,2],"shifted_pitches":[5,0,2,5,2,10,0,1,10,0,2,7,5,0,5,2],"swapped_pitches":[5,0,2,5,2,10,0,10,2,0,2,7,5,0,5,2],"shift_direction":-1,"question_num":121,"has_decoy":false},{"rt":285,"stimulus":"[A] option 1, [L] option 2, [G] neither","key_press":65,"name":"choice","trial_type":"html-keyboard-response","trial_index":153,"time_elapsed":347809,"internal_node_id":"0.0-153.0","subject":"S1C1664","sona":"41828","block":3,"time":"2021-09-23T01:28:48.427Z","response":"1st","certainty":"high","char":"A","transposition":-1,"order":["shifted","swapped"],"probe_pitches":[9,12,5,12,9,7,9,2,5,7,0,9,0,12,7,9],"shifted_pitches":[9,12,5,12,9,7,9,2,6,7,0,9,0,12,7,9],"swapped_pitches":[9,12,5,12,9,7,9,5,2,7,0,9,0,12,7,9],"shift_direction":1,"question_num":131,"has_decoy":false},{"rt":1855.4000000357628,"stimulus":"[A] option 1, [L] option 2, [G] neither","key_press":76,"name":"choice","trial_type":"html-keyboard-response","trial_index":164,"time_elapsed":372324,"internal_node_id":"0.0-164.0","subject":"S1C1664","sona":"41828","block":3,"time":"2021-09-23T01:28:48.427Z","response":"2nd","certainty":"high","char":"L","transposition":3,"order":["swapped","shifted"],"probe_pitches":[5,4,7,9,12,11,5,9,4,12,4,7,13,10,13,12],"shifted_pitches":[5,4,7,9,12,11,5,8,4,12,4,7,13,10,13,12],"swapped_pitches":[5,4,7,9,12,11,5,4,9,12,4,7,13,10,13,12],"shift_direction":-1,"question_num":141,"has_decoy":false},{"rt":315.19999998807907,"stimulus":"[A] option 1, [L] option 2, [G] neither","key_press":76,"name":"choice","trial_type":"html-keyboard-response","trial_index":175,"time_elapsed":394955,"internal_node_id":"0.0-175.0","subject":"S1C1664","sona":"41828","block":3,"time":"2021-09-23T01:28:48.427Z","response":"2nd","certainty":"high","char":"L","transposition":-3,"order":["shifted","swapped"],"probe_pitches":[14,13,6,9,8,7,13,12,14,10,5,14,2,3,10,13],"shifted_pitches":[14,13,6,9,8,7,13,11,14,10,5,14,2,3,10,13],"swapped_pitches":[14,13,6,9,8,7,13,14,12,10,5,14,2,3,10,13],"shift_direction":-1,"question_num":151,"has_decoy":false},{"rt":248,"stimulus":"[A] option 1, [L] option 2, [G] neither","key_press":76,"name":"choice","trial_type":"html-keyboard-response","trial_index":186,"time_elapsed":417544,"internal_node_id":"0.0-186.0","subject":"S1C1664","sona":"41828","block":3,"time":"2021-09-23T01:28:48.427Z","response":"2nd","certainty":"high","char":"L","transposition":-1,"order":["shifted","swapped"],"probe_pitches":[8,12,8,3,4,6,14,8,4,13,7,11,4,12,7,13],"shifted_pitches":[8,12,8,3,4,6,14,8,5,13,7,11,4,12,7,13],"swapped_pitches":[8,12,8,3,4,6,14,4,8,13,7,11,4,12,7,13],"shift_direction":1,"question_num":161,"has_decoy":false},{"rt":1018.6999999880791,"stimulus":"[A] option 1, [L] option 2, [G] neither","key_press":76,"name":"choice","trial_type":"html-keyboard-response","trial_index":197,"time_elapsed":440848,"internal_node_id":"0.0-197.0","subject":"S1C1664","sona":"41828","block":3,"time":"2021-09-23T01:28:48.427Z","response":"2nd","certainty":"high","char":"L","transposition":-3,"order":["swapped","shifted"],"probe_pitches":[10,5,3,0,5,3,5,10,0,12,7,3,12,10,0,7],"shifted_pitches":[10,5,3,0,5,3,5,10,-1,12,7,3,12,10,0,7],"swapped_pitches":[10,5,3,0,5,3,5,0,10,12,7,3,12,10,0,7],"shift_direction":-1,"question_num":171,"has_decoy":false},{"rt":892.8000000119209,"stimulus":"[A] option 1, [L] option 2, [G] neither","key_press":76,"name":"choice","trial_type":"html-keyboard-response","trial_index":208,"time_elapsed":464124,"internal_node_id":"0.0-208.0","subject":"S1C1664","sona":"41828","block":3,"time":"2021-09-23T01:28:48.427Z","response":"2nd","certainty":"high","char":"L","transposition":1,"order":["shifted","swapped"],"probe_pitches":[12,9,3,8,12,4,5,14,7,9,7,10,2,12,7,14],"shifted_pitches":[12,9,3,8,12,4,5,14,6,9,7,10,2,12,7,14],"swapped_pitches":[12,9,3,8,12,4,5,7,14,9,7,10,2,12,7,14],"shift_direction":-1,"question_num":181,"has_decoy":false},{"rt":297.89999997615814,"stimulus":"[A] option 1, [L] option 2, [G] neither","key_press":76,"name":"choice","trial_type":"html-keyboard-response","trial_index":219,"time_elapsed":486586,"internal_node_id":"0.0-219.0","subject":"S1C1664","sona":"41828","block":3,"time":"2021-09-23T01:28:48.427Z","response":"2nd","certainty":"high","char":"L","transposition":-3,"order":["swapped","shifted"],"probe_pitches":[6,11,12,9,12,14,9,8,6,14,5,8,13,11,9,12],"shifted_pitches":[6,11,12,9,12,14,9,8,7,14,5,8,13,11,9,12],"swapped_pitches":[6,11,12,9,12,14,9,6,8,14,5,8,13,11,9,12],"shift_direction":1,"question_num":191,"has_decoy":false}]