[{"rt":1090.2000000029802,"stimulus":"[A] option 1, [L] option 2, [G] neither","key_press":65,"name":"choice","trial_type":"html-keyboard-response","trial_index":10,"time_elapsed":16767,"internal_node_id":"0.0-10.0","subject":"S1C0829","sona":"38164","block":2,"time":"2021-09-17T18:42:34.703Z","response":"1st","certainty":"high","char":"A","transposition":-1,"order":["swapped","shifted"],"probe_pitches":[-1,4,-3,-1,1,6,9,4],"shifted_pitches":[-1,4,-3,0,1,6,9,4],"swapped_pitches":[-1,4,-3,1,-1,6,9,4],"shift_direction":1,"question_num":1,"has_decoy":false},{"rt":525.7999999970198,"stimulus":"[A] option 1, [L] option 2, [G] neither","key_press":76,"name":"choice","trial_type":"html-keyboard-response","trial_index":21,"time_elapsed":31902,"internal_node_id":"0.0-21.0","subject":"S1C0829","sona":"38164","block":2,"time":"2021-09-17T18:42:34.703Z","response":"2nd","certainty":"high","char":"L","transposition":3,"order":["shifted","swapped"],"probe_pitches":[-3,2,4,2,7,-1,-3,2],"shifted_pitches":[-3,2,4,1,7,-1,-3,2],"swapped_pitches":[-3,2,4,7,2,-1,-3,2],"shift_direction":-1,"question_num":11,"has_decoy":false},{"rt":1136.5,"stimulus":"[A] option 1, [L] option 2, [G] neither","key_press":76,"name":"choice","trial_type":"html-keyboard-response","trial_index":32,"time_elapsed":48460,"internal_node_id":"0.0-32.0","subject":"S1C0829","sona":"38164","block":2,"time":"2021-09-17T18:42:34.703Z","response":"2nd","certainty":"high","char":"L","transposition":2,"order":["shifted","swapped"],"probe_pitches":[11,6,2,4,8,3,8,3],"shifted_pitches":[11,6,2,5,8,3,8,3],"swapped_pitches":[11,6,2,8,4,3,8,3],"shift_direction":1,"question_num":21,"has_decoy":false},{"rt":422.09999999403954,"stimulus":"[A] option 1, [L] option 2, [G] neither","key_press":65,"name":"choice","trial_type":"html-keyboard-response","trial_index":43,"time_elapsed":63512,"internal_node_id":"0.0-43.0","subject":"S1C0829","sona":"38164","block":2,"time":"2021-09-17T18:42:34.703Z","response":"1st","certainty":"high","char":"A","transposition":-3,"order":["shifted","swapped"],"probe_pitches":[2,4,-3,4,9,-1,6,2],"shifted_pitches":[2,4,-3,4,10,-1,6,2],"swapped_pitches":[2,4,-3,9,4,-1,6,2],"shift_direction":1,"question_num":31,"has_decoy":false},{"rt":1094.199999988079,"stimulus":"[A] option 1, [L] option 2, [G] neither","key_press":76,"name":"choice","trial_type":"html-keyboard-response","trial_index":54,"time_elapsed":79381,"internal_node_id":"0.0-54.0","subject":"S1C0829","sona":"38164","block":2,"time":"2021-09-17T18:42:34.703Z","response":"2nd","certainty":"high","char":"L","transposition":-1,"order":["shifted","swapped"],"probe_pitches":[2,5,2,7,0,5,9,7],"shifted_pitches":[2,5,2,7,-1,5,9,7],"swapped_pitches":[2,5,2,0,7,5,9,7],"shift_direction":-1,"question_num":41,"has_decoy":false},{"rt":413.59999999403954,"stimulus":"[A] option 1, [L] option 2, [G] neither","key_press":65,"name":"choice","trial_type":"html-keyboard-response","trial_index":65,"time_elapsed":95187,"internal_node_id":"0.0-65.0","subject":"S1C0829","sona":"38164","block":2,"time":"2021-09-17T18:42:34.703Z","response":"1st","certainty":"high","char":"A","transposition":-2,"order":["swapped","shifted"],"probe_pitches":[11,9,2,9,6,1,4,10],"shifted_pitches":[11,9,2,9,7,1,4,10],"swapped_pitches":[11,9,2,6,9,1,4,10],"shift_direction":1,"question_num":51,"has_decoy":false},{"rt":804.2999999970198,"stimulus":"[A] option 1, [L] option 2, [G] neither","key_press":76,"name":"choice","trial_type":"html-keyboard-response","trial_index":76,"time_elapsed":110303,"internal_node_id":"0.0-76.0","subject":"S1C0829","sona":"38164","block":2,"time":"2021-09-17T18:42:34.703Z","response":"2nd","certainty":"high","char":"L","transposition":-3,"order":["swapped","shifted"],"probe_pitches":[7,4,0,1,3,0,8,5],"shifted_pitches":[7,4,0,1,2,0,8,5],"swapped_pitches":[7,4,0,3,1,0,8,5],"shift_direction":-1,"question_num":61,"has_decoy":false},{"rt":309.79999999701977,"stimulus":"[A] option 1, [L] option 2, [G] neither","key_press":65,"name":"choice","trial_type":"html-keyboard-response","trial_index":87,"time_elapsed":126193,"internal_node_id":"0.0-87.0","subject":"S1C0829","sona":"38164","block":2,"time":"2021-09-17T18:42:34.703Z","response":"1st","certainty":"high","char":"A","transposition":0,"order":["shifted","swapped"],"probe_pitches":[8,7,0,6,9,3,6,8],"shifted_pitches":[8,7,0,6,10,3,6,8],"swapped_pitches":[8,7,0,9,6,3,6,8],"shift_direction":1,"question_num":71,"has_decoy":false},{"rt":951.6999999880791,"stimulus":"[A] option 1, [L] option 2, [G] neither","key_press":65,"name":"choice","trial_type":"html-keyboard-response","trial_index":98,"time_elapsed":141992,"internal_node_id":"0.0-98.0","subject":"S1C0829","sona":"38164","block":2,"time":"2021-09-17T18:42:34.703Z","response":"1st","certainty":"high","char":"A","transposition":1,"order":["shifted","swapped"],"probe_pitches":[8,3,6,10,2,-1,7,4],"shifted_pitches":[8,3,6,9,2,-1,7,4],"swapped_pitches":[8,3,6,2,10,-1,7,4],"shift_direction":-1,"question_num":81,"has_decoy":false},{"rt":148,"stimulus":"[A] option 1, [L] option 2, [G] neither","key_press":65,"name":"choice","trial_type":"html-keyboard-response","trial_index":109,"time_elapsed":157722,"internal_node_id":"0.0-109.0","subject":"S1C0829","sona":"38164","block":2,"time":"2021-09-17T18:42:34.703Z","response":"1st","certainty":"high","char":"A","transposition":3,"order":["swapped","shifted"],"probe_pitches":[10,6,2,4,9,-1,0,1],"shifted_pitches":[10,6,2,3,9,-1,0,1],"swapped_pitches":[10,6,2,9,4,-1,0,1],"shift_direction":-1,"question_num":91,"has_decoy":false},{"rt":1959.6000000089407,"stimulus":"[A] option 1, [L] option 2, [G] neither","key_press":76,"name":"choice","trial_type":"html-keyboard-response","trial_index":120,"time_elapsed":174371,"internal_node_id":"0.0-120.0","subject":"S1C0829","sona":"38164","block":2,"time":"2021-09-17T18:42:34.703Z","response":"2nd","certainty":"high","char":"L","transposition":-2,"order":["shifted","swapped"],"probe_pitches":[11,7,1,5,8,0,2,7],"shifted_pitches":[11,7,1,6,8,0,2,7],"swapped_pitches":[11,7,1,8,5,0,2,7],"shift_direction":1,"question_num":101,"has_decoy":false},{"rt":599.3000000119209,"stimulus":"[A] option 1, [L] option 2, [G] neither","key_press":65,"name":"choice","trial_type":"html-keyboard-response","trial_index":131,"time_elapsed":191027,"internal_node_id":"0.0-131.0","subject":"S1C0829","sona":"38164","block":2,"time":"2021-09-17T18:42:34.703Z","response":"1st","certainty":"high","char":"A","transposition":0,"order":["swapped","shifted"],"probe_pitches":[7,4,2,-1,4,-3,2,-1],"shifted_pitches":[7,4,2,-1,5,-3,2,-1],"swapped_pitches":[7,4,2,4,-1,-3,2,-1],"shift_direction":1,"question_num":111,"has_decoy":false},{"rt":180.1000000089407,"stimulus":"[A] option 1, [L] option 2, [G] neither","key_press":76,"name":"choice","trial_type":"html-keyboard-response","trial_index":142,"time_elapsed":205893,"internal_node_id":"0.0-142.0","subject":"S1C0829","sona":"38164","block":2,"time":"2021-09-17T18:42:34.703Z","response":"2nd","certainty":"high","char":"L","transposition":-3,"order":["swapped","shifted"],"probe_pitches":[4,-1,-3,-1,2,6,4,-3],"shifted_pitches":[4,-1,-3,-1,1,6,4,-3],"swapped_pitches":[4,-1,-3,2,-1,6,4,-3],"shift_direction":-1,"question_num":121,"has_decoy":false},{"rt":318.29999999701977,"stimulus":"[A] option 1, [L] option 2, [G] neither","key_press":65,"name":"choice","trial_type":"html-keyboard-response","trial_index":153,"time_elapsed":221071,"internal_node_id":"0.0-153.0","subject":"S1C0829","sona":"38164","block":2,"time":"2021-09-17T18:42:34.703Z","response":"1st","certainty":"high","char":"A","transposition":2,"order":["shifted","swapped"],"probe_pitches":[4,-1,4,-3,1,4,1,6],"shifted_pitches":[4,-1,4,-2,1,4,1,6],"swapped_pitches":[4,-1,4,1,-3,4,1,6],"shift_direction":1,"question_num":131,"has_decoy":false},{"rt":506.20000000298023,"stimulus":"[A] option 1, [L] option 2, [G] neither","key_press":76,"name":"choice","trial_type":"html-keyboard-response","trial_index":164,"time_elapsed":236768,"internal_node_id":"0.0-164.0","subject":"S1C0829","sona":"38164","block":2,"time":"2021-09-17T18:42:34.703Z","response":"2nd","certainty":"high","char":"L","transposition":1,"order":["swapped","shifted"],"probe_pitches":[7,5,2,-3,0,5,-3,5],"shifted_pitches":[7,5,2,-4,0,5,-3,5],"swapped_pitches":[7,5,2,0,-3,5,-3,5],"shift_direction":-1,"question_num":141,"has_decoy":false},{"rt":1636.2000000029802,"stimulus":"[A] option 1, [L] option 2, [G] neither","key_press":65,"name":"choice","trial_type":"html-keyboard-response","trial_index":175,"time_elapsed":253023,"internal_node_id":"0.0-175.0","subject":"S1C0829","sona":"38164","block":2,"time":"2021-09-17T18:42:34.703Z","response":"1st","certainty":"high","char":"A","transposition":-3,"order":["swapped","shifted"],"probe_pitches":[9,3,9,3,2,5,6,10],"shifted_pitches":[9,3,9,3,1,5,6,10],"swapped_pitches":[9,3,9,2,3,5,6,10],"shift_direction":-1,"question_num":151,"has_decoy":false},{"rt":282.8999999910593,"stimulus":"[A] option 1, [L] option 2, [G] neither","key_press":65,"name":"choice","trial_type":"html-keyboard-response","trial_index":186,"time_elapsed":268289,"internal_node_id":"0.0-186.0","subject":"S1C0829","sona":"38164","block":2,"time":"2021-09-17T18:42:34.703Z","response":"1st","certainty":"high","char":"A","transposition":-1,"order":["swapped","shifted"],"probe_pitches":[8,7,6,5,7,-1,6,7],"shifted_pitches":[8,7,6,4,7,-1,6,7],"swapped_pitches":[8,7,6,7,5,-1,6,7],"shift_direction":-1,"question_num":161,"has_decoy":false},{"rt":259.79999999701977,"stimulus":"[A] option 1, [L] option 2, [G] neither","key_press":65,"name":"choice","trial_type":"html-keyboard-response","trial_index":197,"time_elapsed":283104,"internal_node_id":"0.0-197.0","subject":"S1C0829","sona":"38164","block":2,"time":"2021-09-17T18:42:34.703Z","response":"1st","certainty":"high","char":"A","transposition":-2,"order":["swapped","shifted"],"probe_pitches":[9,4,7,0,9,2,-3,2],"shifted_pitches":[9,4,7,1,9,2,-3,2],"swapped_pitches":[9,4,7,9,0,2,-3,2],"shift_direction":1,"question_num":171,"has_decoy":false},{"rt":3563.0999999940395,"stimulus":"[A] option 1, [L] option 2, [G] neither","key_press":65,"name":"choice","trial_type":"html-keyboard-response","trial_index":208,"time_elapsed":301350,"internal_node_id":"0.0-208.0","subject":"S1C0829","sona":"38164","block":2,"time":"2021-09-17T18:42:34.703Z","response":"1st","certainty":"high","char":"A","transposition":-2,"order":["shifted","swapped"],"probe_pitches":[0,-3,4,7,2,-3,4,0],"shifted_pitches":[0,-3,4,7,1,-3,4,0],"swapped_pitches":[0,-3,4,2,7,-3,4,0],"shift_direction":-1,"question_num":181,"has_decoy":false},{"rt":560.1999999880791,"stimulus":"[A] option 1, [L] option 2, [G] neither","key_press":65,"name":"choice","trial_type":"html-keyboard-response","trial_index":219,"time_elapsed":316823,"internal_node_id":"0.0-219.0","subject":"S1C0829","sona":"38164","block":2,"time":"2021-09-17T18:42:34.703Z","response":"1st","certainty":"high","char":"A","transposition":-1,"order":["shifted","swapped"],"probe_pitches":[11,6,11,10,7,2,4,1],"shifted_pitches":[11,6,11,10,8,2,4,1],"swapped_pitches":[11,6,11,7,10,2,4,1],"shift_direction":1,"question_num":191,"has_decoy":false}]