[{"rt":2302.9000000059605,"stimulus":"[A] option 1, [L] option 2, [G] neither","key_press":65,"name":"choice","trial_type":"html-keyboard-response","trial_index":10,"time_elapsed":19023,"internal_node_id":"0.0-10.0","subject":"S1C0829","sona":"38164","block":6,"time":"2021-09-17T19:16:42.475Z","response":"1st","certainty":"high","char":"A","transposition":-2,"order":["swapped","shifted"],"probe_pitches":[11,5,6,7,4,6,12,5],"shifted_pitches":[11,5,6,8,4,6,12,5],"swapped_pitches":[11,5,6,4,7,6,12,5],"shift_direction":1,"question_num":1,"has_decoy":false},{"rt":754.2999999970198,"stimulus":"[A] option 1, [L] option 2, [G] neither","key_press":76,"name":"choice","trial_type":"html-keyboard-response","trial_index":21,"time_elapsed":34190,"internal_node_id":"0.0-21.0","subject":"S1C0829","sona":"38164","block":6,"time":"2021-09-17T19:16:42.475Z","response":"2nd","certainty":"high","char":"L","transposition":-1,"order":["swapped","shifted"],"probe_pitches":[10,6,4,10,12,2,4,6],"shifted_pitches":[10,6,4,10,13,2,4,6],"swapped_pitches":[10,6,4,12,10,2,4,6],"shift_direction":1,"question_num":11,"has_decoy":false},{"rt":1257.5,"stimulus":"[A] option 1, [L] option 2, [G] neither","key_press":65,"name":"choice","trial_type":"html-keyboard-response","trial_index":32,"time_elapsed":51599,"internal_node_id":"0.0-32.0","subject":"S1C0829","sona":"38164","block":6,"time":"2021-09-17T19:16:42.475Z","response":"1st","certainty":"high","char":"A","transposition":-1,"order":["shifted","swapped"],"probe_pitches":[9,4,7,-1,4,9,2,4],"shifted_pitches":[9,4,7,0,4,9,2,4],"swapped_pitches":[9,4,7,4,-1,9,2,4],"shift_direction":1,"question_num":21,"has_decoy":false},{"rt":692.2999999970198,"stimulus":"[A] option 1, [L] option 2, [G] neither","key_press":76,"name":"choice","trial_type":"html-keyboard-response","trial_index":43,"time_elapsed":66852,"internal_node_id":"0.0-43.0","subject":"S1C0829","sona":"38164","block":6,"time":"2021-09-17T19:16:42.475Z","response":"2nd","certainty":"high","char":"L","transposition":0,"order":["swapped","shifted"],"probe_pitches":[8,9,12,9,6,14,6,14],"shifted_pitches":[8,9,12,9,5,14,6,14],"swapped_pitches":[8,9,12,6,9,14,6,14],"shift_direction":-1,"question_num":31,"has_decoy":false},{"rt":2422.7999999970198,"stimulus":"[A] option 1, [L] option 2, [G] neither","key_press":76,"name":"choice","trial_type":"html-keyboard-response","trial_index":54,"time_elapsed":84510,"internal_node_id":"0.0-54.0","subject":"S1C0829","sona":"38164","block":6,"time":"2021-09-17T19:16:42.475Z","response":"2nd","certainty":"high","char":"L","transposition":-2,"order":["shifted","swapped"],"probe_pitches":[9,12,14,12,8,9,6,10],"shifted_pitches":[9,12,14,11,8,9,6,10],"swapped_pitches":[9,12,14,8,12,9,6,10],"shift_direction":-1,"question_num":41,"has_decoy":false},{"rt":3825.1000000089407,"stimulus":"[A] option 1, [L] option 2, [G] neither","key_press":65,"name":"choice","trial_type":"html-keyboard-response","trial_index":65,"time_elapsed":103885,"internal_node_id":"0.0-65.0","subject":"S1C0829","sona":"38164","block":6,"time":"2021-09-17T19:16:42.475Z","response":"1st","certainty":"high","char":"A","transposition":-3,"order":["swapped","shifted"],"probe_pitches":[7,9,4,7,0,9,2,-3],"shifted_pitches":[7,9,4,7,-1,9,2,-3],"swapped_pitches":[7,9,4,0,7,9,2,-3],"shift_direction":-1,"question_num":51,"has_decoy":false},{"rt":2755.5,"stimulus":"[A] option 1, [L] option 2, [G] neither","key_press":65,"name":"choice","trial_type":"html-keyboard-response","trial_index":76,"time_elapsed":125407,"internal_node_id":"0.0-76.0","subject":"S1C0829","sona":"38164","block":6,"time":"2021-09-17T19:16:42.475Z","response":"1st","certainty":"high","char":"A","transposition":0,"order":["shifted","swapped"],"probe_pitches":[-1,2,4,9,7,4,9,-3],"shifted_pitches":[-1,2,4,10,7,4,9,-3],"swapped_pitches":[-1,2,4,7,9,4,9,-3],"shift_direction":1,"question_num":61,"has_decoy":false},{"rt":1247,"stimulus":"[A] option 1, [L] option 2, [G] neither","key_press":76,"name":"choice","trial_type":"html-keyboard-response","trial_index":87,"time_elapsed":142586,"internal_node_id":"0.0-87.0","subject":"S1C0829","sona":"38164","block":6,"time":"2021-09-17T19:16:42.475Z","response":"2nd","certainty":"high","char":"L","transposition":2,"order":["shifted","swapped"],"probe_pitches":[13,10,7,3,8,14,11,5],"shifted_pitches":[13,10,7,3,9,14,11,5],"swapped_pitches":[13,10,7,8,3,14,11,5],"shift_direction":1,"question_num":71,"has_decoy":false},{"rt":1014.4000000059605,"stimulus":"[A] option 1, [L] option 2, [G] neither","key_press":65,"name":"choice","trial_type":"html-keyboard-response","trial_index":98,"time_elapsed":166120,"internal_node_id":"0.0-98.0","subject":"S1C0829","sona":"38164","block":6,"time":"2021-09-17T19:16:42.475Z","response":"1st","certainty":"high","char":"A","transposition":3,"order":["shifted","swapped"],"probe_pitches":[10,14,11,8,13,7,2,4],"shifted_pitches":[10,14,11,8,12,7,2,4],"swapped_pitches":[10,14,11,13,8,7,2,4],"shift_direction":-1,"question_num":81,"has_decoy":false},{"rt":578,"stimulus":"[A] option 1, [L] option 2, [G] neither","key_press":76,"name":"choice","trial_type":"html-keyboard-response","trial_index":109,"time_elapsed":181053,"internal_node_id":"0.0-109.0","subject":"S1C0829","sona":"38164","block":6,"time":"2021-09-17T19:16:42.475Z","response":"2nd","certainty":"high","char":"L","transposition":-2,"order":["swapped","shifted"],"probe_pitches":[2,5,0,7,2,9,0,2],"shifted_pitches":[2,5,0,7,3,9,0,2],"swapped_pitches":[2,5,0,2,7,9,0,2],"shift_direction":1,"question_num":91,"has_decoy":false},{"rt":1545.4000000059605,"stimulus":"[A] option 1, [L] option 2, [G] neither","key_press":65,"name":"choice","trial_type":"html-keyboard-response","trial_index":120,"time_elapsed":197274,"internal_node_id":"0.0-120.0","subject":"S1C0829","sona":"38164","block":6,"time":"2021-09-17T19:16:42.475Z","response":"1st","certainty":"high","char":"A","transposition":1,"order":["swapped","shifted"],"probe_pitches":[4,3,9,8,6,11,4,12],"shifted_pitches":[4,3,9,7,6,11,4,12],"swapped_pitches":[4,3,9,6,8,11,4,12],"shift_direction":-1,"question_num":101,"has_decoy":false},{"rt":3799.5999999940395,"stimulus":"[A] option 1, [L] option 2, [G] neither","key_press":76,"name":"choice","trial_type":"html-keyboard-response","trial_index":131,"time_elapsed":215955,"internal_node_id":"0.0-131.0","subject":"S1C0829","sona":"38164","block":6,"time":"2021-09-17T19:16:42.475Z","response":"2nd","certainty":"high","char":"L","transposition":1,"order":["shifted","swapped"],"probe_pitches":[-3,1,-1,-3,1,4,9,6],"shifted_pitches":[-3,1,-1,-4,1,4,9,6],"swapped_pitches":[-3,1,-1,1,-3,4,9,6],"shift_direction":-1,"question_num":111,"has_decoy":false},{"rt":1591,"stimulus":"[A] option 1, [L] option 2, [G] neither","key_press":76,"name":"choice","trial_type":"html-keyboard-response","trial_index":142,"time_elapsed":233799,"internal_node_id":"0.0-142.0","subject":"S1C0829","sona":"38164","block":6,"time":"2021-09-17T19:16:42.475Z","response":"2nd","certainty":"high","char":"L","transposition":2,"order":["shifted","swapped"],"probe_pitches":[6,9,6,2,9,4,6,-1],"shifted_pitches":[6,9,6,2,8,4,6,-1],"swapped_pitches":[6,9,6,9,2,4,6,-1],"shift_direction":-1,"question_num":121,"has_decoy":false},{"rt":608.0999999940395,"stimulus":"[A] option 1, [L] option 2, [G] neither","key_press":65,"name":"choice","trial_type":"html-keyboard-response","trial_index":153,"time_elapsed":248977,"internal_node_id":"0.0-153.0","subject":"S1C0829","sona":"38164","block":6,"time":"2021-09-17T19:16:42.475Z","response":"1st","certainty":"high","char":"A","transposition":-1,"order":["swapped","shifted"],"probe_pitches":[2,3,2,5,7,3,14,5],"shifted_pitches":[2,3,2,5,6,3,14,5],"swapped_pitches":[2,3,2,7,5,3,14,5],"shift_direction":-1,"question_num":131,"has_decoy":false},{"rt":600.5999999940395,"stimulus":"[A] option 1, [L] option 2, [G] neither","key_press":76,"name":"choice","trial_type":"html-keyboard-response","trial_index":164,"time_elapsed":269599,"internal_node_id":"0.0-164.0","subject":"S1C0829","sona":"38164","block":6,"time":"2021-09-17T19:16:42.475Z","response":"2nd","certainty":"high","char":"L","transposition":-3,"order":["shifted","swapped"],"probe_pitches":[12,7,3,9,11,7,8,9],"shifted_pitches":[12,7,3,10,11,7,8,9],"swapped_pitches":[12,7,3,11,9,7,8,9],"shift_direction":1,"question_num":141,"has_decoy":false},{"rt":3808.2999999970198,"stimulus":"[A] option 1, [L] option 2, [G] neither","key_press":76,"name":"choice","trial_type":"html-keyboard-response","trial_index":175,"time_elapsed":289852,"internal_node_id":"0.0-175.0","subject":"S1C0829","sona":"38164","block":6,"time":"2021-09-17T19:16:42.475Z","response":"2nd","certainty":"high","char":"L","transposition":-1,"order":["swapped","shifted"],"probe_pitches":[7,4,0,-3,2,0,9,-3],"shifted_pitches":[7,4,0,-4,2,0,9,-3],"swapped_pitches":[7,4,0,2,-3,0,9,-3],"shift_direction":-1,"question_num":151,"has_decoy":false},{"rt":663.7000000029802,"stimulus":"[A] option 1, [L] option 2, [G] neither","key_press":65,"name":"choice","trial_type":"html-keyboard-response","trial_index":186,"time_elapsed":304850,"internal_node_id":"0.0-186.0","subject":"S1C0829","sona":"38164","block":6,"time":"2021-09-17T19:16:42.475Z","response":"1st","certainty":"high","char":"A","transposition":3,"order":["swapped","shifted"],"probe_pitches":[4,6,2,-3,4,-1,2,6],"shifted_pitches":[4,6,2,-3,5,-1,2,6],"swapped_pitches":[4,6,2,4,-3,-1,2,6],"shift_direction":1,"question_num":161,"has_decoy":false},{"rt":987.0999999940395,"stimulus":"[A] option 1, [L] option 2, [G] neither","key_press":76,"name":"choice","trial_type":"html-keyboard-response","trial_index":197,"time_elapsed":322625,"internal_node_id":"0.0-197.0","subject":"S1C0829","sona":"38164","block":6,"time":"2021-09-17T19:16:42.475Z","response":"2nd","certainty":"high","char":"L","transposition":-2,"order":["swapped","shifted"],"probe_pitches":[0,5,7,2,9,7,9,-3],"shifted_pitches":[0,5,7,2,8,7,9,-3],"swapped_pitches":[0,5,7,9,2,7,9,-3],"shift_direction":-1,"question_num":171,"has_decoy":false},{"rt":497.19999998807907,"stimulus":"[A] option 1, [L] option 2, [G] neither","key_press":65,"name":"choice","trial_type":"html-keyboard-response","trial_index":208,"time_elapsed":341251,"internal_node_id":"0.0-208.0","subject":"S1C0829","sona":"38164","block":6,"time":"2021-09-17T19:16:42.475Z","response":"1st","certainty":"high","char":"A","transposition":-3,"order":["shifted","swapped"],"probe_pitches":[12,13,6,3,10,6,3,9],"shifted_pitches":[12,13,6,4,10,6,3,9],"swapped_pitches":[12,13,6,10,3,6,3,9],"shift_direction":1,"question_num":181,"has_decoy":false},{"rt":1136.6000000089407,"stimulus":"[A] option 1, [L] option 2, [G] neither","key_press":76,"name":"choice","trial_type":"html-keyboard-response","trial_index":219,"time_elapsed":357751,"internal_node_id":"0.0-219.0","subject":"S1C0829","sona":"38164","block":6,"time":"2021-09-17T19:16:42.475Z","response":"2nd","certainty":"high","char":"L","transposition":-3,"order":["shifted","swapped"],"probe_pitches":[4,9,6,1,-1,6,-1,9],"shifted_pitches":[4,9,6,2,-1,6,-1,9],"swapped_pitches":[4,9,6,-1,1,6,-1,9],"shift_direction":1,"question_num":191,"has_decoy":false}]