[{"rt":3117.8999999910593,"stimulus":"[A] option 1, [L] option 2, [G] neither","key_press":65,"name":"choice","trial_type":"html-keyboard-response","trial_index":15,"time_elapsed":32811,"internal_node_id":"0.0-15.0","response":"1st","certainty":"high","char":"A","transposition":-3,"order":["shifted","swapped"],"probe_pitches":[10,5,10,7,12,10,3,7],"shifted_pitches":[10,5,10,7,13,10,3,7],"swapped_pitches":[10,5,10,12,7,10,3,7],"shift_direction":1,"question_num":1,"has_decoy":false,"subject":"S1C0829","sona":"38164","block":1,"time":"2021-09-17T18:31:03.744Z"},{"rt":782,"stimulus":"[A] option 1, [L] option 2, [G] neither","key_press":65,"name":"choice","trial_type":"html-keyboard-response","trial_index":26,"time_elapsed":49473,"internal_node_id":"0.0-26.0","response":"1st","certainty":"high","char":"A","transposition":0,"order":["swapped","shifted"],"probe_pitches":[2,5,4,1,8,11,7,2],"shifted_pitches":[2,5,4,1,9,11,7,2],"swapped_pitches":[2,5,4,8,1,11,7,2],"shift_direction":1,"question_num":11,"has_decoy":false,"subject":"S1C0829","sona":"38164","block":1,"time":"2021-09-17T18:31:03.744Z"},{"rt":1770.2000000029802,"stimulus":"[A] option 1, [L] option 2, [G] neither","key_press":65,"name":"choice","trial_type":"html-keyboard-response","trial_index":37,"time_elapsed":66183,"internal_node_id":"0.0-37.0","response":"1st","certainty":"high","char":"A","transposition":-1,"order":["swapped","shifted"],"probe_pitches":[3,8,10,13,5,10,5,15],"shifted_pitches":[3,8,10,13,6,10,5,15],"swapped_pitches":[3,8,10,5,13,10,5,15],"shift_direction":1,"question_num":21,"has_decoy":false,"subject":"S1C0829","sona":"38164","block":1,"time":"2021-09-17T18:31:03.744Z"},{"rt":833.4000000059605,"stimulus":"[A] option 1, [L] option 2, [G] neither","key_press":76,"name":"choice","trial_type":"html-keyboard-response","trial_index":48,"time_elapsed":81543,"internal_node_id":"0.0-48.0","response":"2nd","certainty":"high","char":"L","transposition":-2,"order":["shifted","swapped"],"probe_pitches":[3,5,8,13,15,10,8,3],"shifted_pitches":[3,5,8,14,15,10,8,3],"swapped_pitches":[3,5,8,15,13,10,8,3],"shift_direction":1,"question_num":31,"has_decoy":false,"subject":"S1C0829","sona":"38164","block":1,"time":"2021-09-17T18:31:03.744Z"},{"rt":858.5,"stimulus":"[A] option 1, [L] option 2, [G] neither","key_press":65,"name":"choice","trial_type":"html-keyboard-response","trial_index":59,"time_elapsed":97730,"internal_node_id":"0.0-59.0","response":"1st","certainty":"high","char":"A","transposition":3,"order":["shifted","swapped"],"probe_pitches":[7,11,8,5,12,3,8,3],"shifted_pitches":[7,11,8,4,12,3,8,3],"swapped_pitches":[7,11,8,12,5,3,8,3],"shift_direction":-1,"question_num":41,"has_decoy":false,"subject":"S1C0829","sona":"38164","block":1,"time":"2021-09-17T18:31:03.744Z"},{"rt":80.1000000089407,"stimulus":"[A] option 1, [L] option 2, [G] neither","key_press":76,"name":"choice","trial_type":"html-keyboard-response","trial_index":70,"time_elapsed":114107,"internal_node_id":"0.0-70.0","response":"2nd","certainty":"high","char":"L","transposition":-3,"order":["swapped","shifted"],"probe_pitches":[11,6,13,15,8,11,8,6],"shifted_pitches":[11,6,13,14,8,11,8,6],"swapped_pitches":[11,6,13,8,15,11,8,6],"shift_direction":-1,"question_num":51,"has_decoy":false,"subject":"S1C0829","sona":"38164","block":1,"time":"2021-09-17T18:31:03.744Z"},{"rt":7299.4000000059605,"stimulus":"[A] option 1, [L] option 2, [G] neither","key_press":65,"name":"choice","trial_type":"html-keyboard-response","trial_index":81,"time_elapsed":136896,"internal_node_id":"0.0-81.0","response":"1st","certainty":"high","char":"A","transposition":1,"order":["swapped","shifted"],"probe_pitches":[6,11,13,8,11,3,13,6],"shifted_pitches":[6,11,13,9,11,3,13,6],"swapped_pitches":[6,11,13,11,8,3,13,6],"shift_direction":1,"question_num":61,"has_decoy":false,"subject":"S1C0829","sona":"38164","block":1,"time":"2021-09-17T18:31:03.744Z"},{"rt":328.90000000596046,"stimulus":"[A] option 1, [L] option 2, [G] neither","key_press":76,"name":"choice","trial_type":"html-keyboard-response","trial_index":92,"time_elapsed":161968,"internal_node_id":"0.0-92.0","response":"2nd","certainty":"high","char":"L","transposition":-2,"order":["swapped","shifted"],"probe_pitches":[5,10,8,15,10,8,3,12],"shifted_pitches":[5,10,8,16,10,8,3,12],"swapped_pitches":[5,10,8,10,15,8,3,12],"shift_direction":1,"question_num":71,"has_decoy":false,"subject":"S1C0829","sona":"38164","block":1,"time":"2021-09-17T18:31:03.744Z"},{"rt":2194,"stimulus":"[A] option 1, [L] option 2, [G] neither","key_press":65,"name":"choice","trial_type":"html-keyboard-response","trial_index":103,"time_elapsed":179363,"internal_node_id":"0.0-103.0","response":"1st","certainty":"high","char":"A","transposition":1,"order":["shifted","swapped"],"probe_pitches":[6,5,4,7,0,10,12,4],"shifted_pitches":[6,5,4,8,0,10,12,4],"swapped_pitches":[6,5,4,0,7,10,12,4],"shift_direction":1,"question_num":81,"has_decoy":false,"subject":"S1C0829","sona":"38164","block":1,"time":"2021-09-17T18:31:03.744Z"},{"rt":2147.9000000059605,"stimulus":"[A] option 1, [L] option 2, [G] neither","key_press":76,"name":"choice","trial_type":"html-keyboard-response","trial_index":114,"time_elapsed":195969,"internal_node_id":"0.0-114.0","response":"2nd","certainty":"high","char":"L","transposition":-3,"order":["shifted","swapped"],"probe_pitches":[0,6,4,9,7,11,6,9],"shifted_pitches":[0,6,4,10,7,11,6,9],"swapped_pitches":[0,6,4,7,9,11,6,9],"shift_direction":1,"question_num":91,"has_decoy":false,"subject":"S1C0829","sona":"38164","block":1,"time":"2021-09-17T18:31:03.744Z"},{"rt":192.29999999701977,"stimulus":"[A] option 1, [L] option 2, [G] neither","key_press":65,"name":"choice","trial_type":"html-keyboard-response","trial_index":125,"time_elapsed":210952,"internal_node_id":"0.0-125.0","response":"1st","certainty":"high","char":"A","transposition":2,"order":["shifted","swapped"],"probe_pitches":[15,10,5,7,10,12,3,10],"shifted_pitches":[15,10,5,7,9,12,3,10],"swapped_pitches":[15,10,5,10,7,12,3,10],"shift_direction":-1,"question_num":101,"has_decoy":false,"subject":"S1C0829","sona":"38164","block":1,"time":"2021-09-17T18:31:03.744Z"},{"rt":498.29999999701977,"stimulus":"[A] option 1, [L] option 2, [G] neither","key_press":65,"name":"choice","trial_type":"html-keyboard-response","trial_index":136,"time_elapsed":225882,"internal_node_id":"0.0-136.0","response":"1st","certainty":"high","char":"A","transposition":-2,"order":["shifted","swapped"],"probe_pitches":[5,1,2,3,5,4,2,10],"shifted_pitches":[5,1,2,3,6,4,2,10],"swapped_pitches":[5,1,2,5,3,4,2,10],"shift_direction":1,"question_num":111,"has_decoy":false,"subject":"S1C0829","sona":"38164","block":1,"time":"2021-09-17T18:31:03.744Z"},{"rt":1664,"stimulus":"[A] option 1, [L] option 2, [G] neither","key_press":65,"name":"choice","trial_type":"html-keyboard-response","trial_index":147,"time_elapsed":241821,"internal_node_id":"0.0-147.0","response":"1st","certainty":"high","char":"A","transposition":3,"order":["swapped","shifted"],"probe_pitches":[15,10,15,13,10,15,8,6],"shifted_pitches":[15,10,15,13,9,15,8,6],"swapped_pitches":[15,10,15,10,13,15,8,6],"shift_direction":-1,"question_num":121,"has_decoy":false,"subject":"S1C0829","sona":"38164","block":1,"time":"2021-09-17T18:31:03.744Z"},{"rt":1182.7000000029802,"stimulus":"[A] option 1, [L] option 2, [G] neither","key_press":76,"name":"choice","trial_type":"html-keyboard-response","trial_index":158,"time_elapsed":257735,"internal_node_id":"0.0-158.0","response":"2nd","certainty":"high","char":"L","transposition":-3,"order":["swapped","shifted"],"probe_pitches":[3,7,0,6,3,12,9,1],"shifted_pitches":[3,7,0,5,3,12,9,1],"swapped_pitches":[3,7,0,3,6,12,9,1],"shift_direction":-1,"question_num":131,"has_decoy":false,"subject":"S1C0829","sona":"38164","block":1,"time":"2021-09-17T18:31:03.744Z"},{"rt":393.29999999701977,"stimulus":"[A] option 1, [L] option 2, [G] neither","key_press":76,"name":"choice","trial_type":"html-keyboard-response","trial_index":169,"time_elapsed":273596,"internal_node_id":"0.0-169.0","response":"2nd","certainty":"high","char":"L","transposition":2,"order":["shifted","swapped"],"probe_pitches":[0,1,6,11,3,5,0,8],"shifted_pitches":[0,1,6,11,2,5,0,8],"swapped_pitches":[0,1,6,3,11,5,0,8],"shift_direction":-1,"question_num":141,"has_decoy":false,"subject":"S1C0829","sona":"38164","block":1,"time":"2021-09-17T18:31:03.744Z"},{"rt":359.5,"stimulus":"[A] option 1, [L] option 2, [G] neither","key_press":65,"name":"choice","trial_type":"html-keyboard-response","trial_index":180,"time_elapsed":289061,"internal_node_id":"0.0-180.0","response":"1st","certainty":"high","char":"A","transposition":-1,"order":["shifted","swapped"],"probe_pitches":[3,6,3,8,13,10,3,10],"shifted_pitches":[3,6,3,7,13,10,3,10],"swapped_pitches":[3,6,3,13,8,10,3,10],"shift_direction":-1,"question_num":151,"has_decoy":false,"subject":"S1C0829","sona":"38164","block":1,"time":"2021-09-17T18:31:03.744Z"},{"rt":75778.90000000596,"stimulus":"[A] option 1, [L] option 2, [G] neither","key_press":65,"name":"choice","trial_type":"html-keyboard-response","trial_index":191,"time_elapsed":383274,"internal_node_id":"0.0-191.0","response":"1st","certainty":"high","char":"A","transposition":-2,"order":["swapped","shifted"],"probe_pitches":[4,1,4,7,0,1,6,8],"shifted_pitches":[4,1,4,7,-1,1,6,8],"swapped_pitches":[4,1,4,0,7,1,6,8],"shift_direction":-1,"question_num":161,"has_decoy":false,"subject":"S1C0829","sona":"38164","block":1,"time":"2021-09-17T18:31:03.744Z"},{"rt":1185.300000011921,"stimulus":"[A] option 1, [L] option 2, [G] neither","key_press":76,"name":"choice","trial_type":"html-keyboard-response","trial_index":202,"time_elapsed":401536,"internal_node_id":"0.0-202.0","response":"2nd","certainty":"high","char":"L","transposition":-1,"order":["swapped","shifted"],"probe_pitches":[10,7,6,4,9,2,8,6],"shifted_pitches":[10,7,6,3,9,2,8,6],"swapped_pitches":[10,7,6,9,4,2,8,6],"shift_direction":-1,"question_num":171,"has_decoy":false,"subject":"S1C0829","sona":"38164","block":1,"time":"2021-09-17T18:31:03.744Z"},{"rt":493.8999999910593,"stimulus":"[A] option 1, [L] option 2, [G] neither","key_press":76,"name":"choice","trial_type":"html-keyboard-response","trial_index":213,"time_elapsed":416280,"internal_node_id":"0.0-213.0","response":"2nd","certainty":"high","char":"L","transposition":0,"order":["shifted","swapped"],"probe_pitches":[10,5,12,15,8,12,15,8],"shifted_pitches":[10,5,12,15,7,12,15,8],"swapped_pitches":[10,5,12,8,15,12,15,8],"shift_direction":-1,"question_num":181,"has_decoy":false,"subject":"S1C0829","sona":"38164","block":1,"time":"2021-09-17T18:31:03.744Z"},{"rt":565.0999999940395,"stimulus":"[A] option 1, [L] option 2, [G] neither","key_press":65,"name":"choice","trial_type":"html-keyboard-response","trial_index":224,"time_elapsed":431561,"internal_node_id":"0.0-224.0","response":"1st","certainty":"high","char":"A","transposition":-1,"order":["swapped","shifted"],"probe_pitches":[6,4,0,2,6,8,6,4],"shifted_pitches":[6,4,0,2,7,8,6,4],"swapped_pitches":[6,4,0,6,2,8,6,4],"shift_direction":1,"question_num":191,"has_decoy":false,"subject":"S1C0829","sona":"38164","block":1,"time":"2021-09-17T18:31:03.744Z"}]