[{"rt":874,"stimulus":"[A] option 1, [L] option 2, [G] neither","key_press":76,"name":"choice","trial_type":"html-keyboard-response","trial_index":10,"time_elapsed":16808,"internal_node_id":"0.0-10.0","subject":"S1C0829","sona":"38164","block":3,"time":"2021-09-17T18:53:52.407Z","response":"2nd","certainty":"high","char":"L","transposition":3,"order":["swapped","shifted"],"probe_pitches":[8,5,3,5,1,6,11,10],"shifted_pitches":[8,5,3,5,2,6,11,10],"swapped_pitches":[8,5,3,1,5,6,11,10],"shift_direction":1,"question_num":1,"has_decoy":false},{"rt":266.5,"stimulus":"[A] option 1, [L] option 2, [G] neither","key_press":76,"name":"choice","trial_type":"html-keyboard-response","trial_index":21,"time_elapsed":31274,"internal_node_id":"0.0-21.0","subject":"S1C0829","sona":"38164","block":3,"time":"2021-09-17T18:53:52.407Z","response":"2nd","certainty":"high","char":"L","transposition":-2,"order":["swapped","shifted"],"probe_pitches":[11,7,2,7,4,-1,9,7],"shifted_pitches":[11,7,2,7,5,-1,9,7],"swapped_pitches":[11,7,2,4,7,-1,9,7],"shift_direction":1,"question_num":11,"has_decoy":false},{"rt":363,"stimulus":"[A] option 1, [L] option 2, [G] neither","key_press":76,"name":"choice","trial_type":"html-keyboard-response","trial_index":32,"time_elapsed":46186,"internal_node_id":"0.0-32.0","subject":"S1C0829","sona":"38164","block":3,"time":"2021-09-17T18:53:52.407Z","response":"2nd","certainty":"high","char":"L","transposition":-1,"order":["shifted","swapped"],"probe_pitches":[2,3,4,2,10,6,7,12],"shifted_pitches":[2,3,4,2,9,6,7,12],"swapped_pitches":[2,3,4,10,2,6,7,12],"shift_direction":-1,"question_num":21,"has_decoy":false},{"rt":136.79999999701977,"stimulus":"[A] option 1, [L] option 2, [G] neither","key_press":65,"name":"choice","trial_type":"html-keyboard-response","trial_index":43,"time_elapsed":60925,"internal_node_id":"0.0-43.0","subject":"S1C0829","sona":"38164","block":3,"time":"2021-09-17T18:53:52.407Z","response":"1st","certainty":"high","char":"A","transposition":0,"order":["shifted","swapped"],"probe_pitches":[4,1,-1,6,11,1,8,1],"shifted_pitches":[4,1,-1,6,12,1,8,1],"swapped_pitches":[4,1,-1,11,6,1,8,1],"shift_direction":1,"question_num":31,"has_decoy":false},{"rt":319.8999999910593,"stimulus":"[A] option 1, [L] option 2, [G] neither","key_press":65,"name":"choice","trial_type":"html-keyboard-response","trial_index":54,"time_elapsed":76895,"internal_node_id":"0.0-54.0","subject":"S1C0829","sona":"38164","block":3,"time":"2021-09-17T18:53:52.407Z","response":"1st","certainty":"high","char":"A","transposition":1,"order":["shifted","swapped"],"probe_pitches":[4,5,0,7,11,4,0,9],"shifted_pitches":[4,5,0,8,11,4,0,9],"swapped_pitches":[4,5,0,11,7,4,0,9],"shift_direction":1,"question_num":41,"has_decoy":false},{"rt":4336,"stimulus":"[A] option 1, [L] option 2, [G] neither","key_press":65,"name":"choice","trial_type":"html-keyboard-response","trial_index":65,"time_elapsed":305468,"internal_node_id":"0.0-65.0","subject":"S1C0829","sona":"38164","block":3,"time":"2021-09-17T18:53:52.407Z","response":"1st","certainty":"high","char":"A","transposition":-3,"order":["shifted","swapped"],"probe_pitches":[-1,4,6,11,9,1,-1,4],"shifted_pitches":[-1,4,6,11,10,1,-1,4],"swapped_pitches":[-1,4,6,9,11,1,-1,4],"shift_direction":1,"question_num":51,"has_decoy":false},{"rt":2140,"stimulus":"[A] option 1, [L] option 2, [G] neither","key_press":65,"name":"choice","trial_type":"html-keyboard-response","trial_index":76,"time_elapsed":322023,"internal_node_id":"0.0-76.0","subject":"S1C0829","sona":"38164","block":3,"time":"2021-09-17T18:53:52.407Z","response":"1st","certainty":"high","char":"A","transposition":-3,"order":["swapped","shifted"],"probe_pitches":[-1,4,8,4,6,8,1,11],"shifted_pitches":[-1,4,8,4,5,8,1,11],"swapped_pitches":[-1,4,8,6,4,8,1,11],"shift_direction":-1,"question_num":61,"has_decoy":false},{"rt":238,"stimulus":"[A] option 1, [L] option 2, [G] neither","key_press":76,"name":"choice","trial_type":"html-keyboard-response","trial_index":87,"time_elapsed":408210,"internal_node_id":"0.0-87.0","subject":"S1C0829","sona":"38164","block":3,"time":"2021-09-17T18:53:52.407Z","response":"2nd","certainty":"high","char":"L","transposition":-3,"order":["swapped","shifted"],"probe_pitches":[8,9,10,5,11,10,0,10],"shifted_pitches":[8,9,10,6,11,10,0,10],"swapped_pitches":[8,9,10,11,5,10,0,10],"shift_direction":1,"question_num":71,"has_decoy":false},{"rt":5824.4000000059605,"stimulus":"[A] option 1, [L] option 2, [G] neither","key_press":65,"name":"choice","trial_type":"html-keyboard-response","trial_index":98,"time_elapsed":429659,"internal_node_id":"0.0-98.0","subject":"S1C0829","sona":"38164","block":3,"time":"2021-09-17T18:53:52.407Z","response":"1st","certainty":"high","char":"A","transposition":2,"order":["swapped","shifted"],"probe_pitches":[2,7,6,2,7,8,11,5],"shifted_pitches":[2,7,6,3,7,8,11,5],"swapped_pitches":[2,7,6,7,2,8,11,5],"shift_direction":1,"question_num":81,"has_decoy":false},{"rt":1000.2999999970198,"stimulus":"[A] option 1, [L] option 2, [G] neither","key_press":76,"name":"choice","trial_type":"html-keyboard-response","trial_index":109,"time_elapsed":459405,"internal_node_id":"0.0-109.0","subject":"S1C0829","sona":"38164","block":3,"time":"2021-09-17T18:53:52.407Z","response":"2nd","certainty":"high","char":"L","transposition":1,"order":["shifted","swapped"],"probe_pitches":[9,4,6,2,11,6,2,6],"shifted_pitches":[9,4,6,1,11,6,2,6],"swapped_pitches":[9,4,6,11,2,6,2,6],"shift_direction":-1,"question_num":91,"has_decoy":false},{"rt":2227.2999999970198,"stimulus":"[A] option 1, [L] option 2, [G] neither","key_press":65,"name":"choice","trial_type":"html-keyboard-response","trial_index":120,"time_elapsed":475906,"internal_node_id":"0.0-120.0","subject":"S1C0829","sona":"38164","block":3,"time":"2021-09-17T18:53:52.407Z","response":"1st","certainty":"high","char":"A","transposition":2,"order":["shifted","swapped"],"probe_pitches":[1,-1,6,3,-1,1,6,8],"shifted_pitches":[1,-1,6,2,-1,1,6,8],"swapped_pitches":[1,-1,6,-1,3,1,6,8],"shift_direction":-1,"question_num":101,"has_decoy":false},{"rt":1213.7000000029802,"stimulus":"[A] option 1, [L] option 2, [G] neither","key_press":65,"name":"choice","trial_type":"html-keyboard-response","trial_index":131,"time_elapsed":491618,"internal_node_id":"0.0-131.0","subject":"S1C0829","sona":"38164","block":3,"time":"2021-09-17T18:53:52.407Z","response":"1st","certainty":"high","char":"A","transposition":-2,"order":["swapped","shifted"],"probe_pitches":[11,12,6,11,5,0,4,6],"shifted_pitches":[11,12,6,10,5,0,4,6],"swapped_pitches":[11,12,6,5,11,0,4,6],"shift_direction":-1,"question_num":111,"has_decoy":false},{"rt":389.09999999403954,"stimulus":"[A] option 1, [L] option 2, [G] neither","key_press":76,"name":"choice","trial_type":"html-keyboard-response","trial_index":142,"time_elapsed":506464,"internal_node_id":"0.0-142.0","subject":"S1C0829","sona":"38164","block":3,"time":"2021-09-17T18:53:52.407Z","response":"2nd","certainty":"high","char":"L","transposition":3,"order":["swapped","shifted"],"probe_pitches":[6,4,2,4,9,-1,6,2],"shifted_pitches":[6,4,2,5,9,-1,6,2],"swapped_pitches":[6,4,2,9,4,-1,6,2],"shift_direction":1,"question_num":121,"has_decoy":false},{"rt":366.59999999403954,"stimulus":"[A] option 1, [L] option 2, [G] neither","key_press":65,"name":"choice","trial_type":"html-keyboard-response","trial_index":153,"time_elapsed":521470,"internal_node_id":"0.0-153.0","subject":"S1C0829","sona":"38164","block":3,"time":"2021-09-17T18:53:52.407Z","response":"1st","certainty":"high","char":"A","transposition":-2,"order":["swapped","shifted"],"probe_pitches":[6,11,4,-1,1,11,9,6],"shifted_pitches":[6,11,4,-1,2,11,9,6],"swapped_pitches":[6,11,4,1,-1,11,9,6],"shift_direction":1,"question_num":131,"has_decoy":false},{"rt":960.5,"stimulus":"[A] option 1, [L] option 2, [G] neither","key_press":76,"name":"choice","trial_type":"html-keyboard-response","trial_index":164,"time_elapsed":536709,"internal_node_id":"0.0-164.0","subject":"S1C0829","sona":"38164","block":3,"time":"2021-09-17T18:53:52.407Z","response":"2nd","certainty":"high","char":"L","transposition":-2,"order":["shifted","swapped"],"probe_pitches":[6,2,6,8,5,2,6,9],"shifted_pitches":[6,2,6,8,4,2,6,9],"swapped_pitches":[6,2,6,5,8,2,6,9],"shift_direction":-1,"question_num":141,"has_decoy":false},{"rt":469.90000000596046,"stimulus":"[A] option 1, [L] option 2, [G] neither","key_press":65,"name":"choice","trial_type":"html-keyboard-response","trial_index":175,"time_elapsed":552090,"internal_node_id":"0.0-175.0","subject":"S1C0829","sona":"38164","block":3,"time":"2021-09-17T18:53:52.407Z","response":"1st","certainty":"high","char":"A","transposition":-1,"order":["shifted","swapped"],"probe_pitches":[8,6,11,8,-1,1,3,6],"shifted_pitches":[8,6,11,7,-1,1,3,6],"swapped_pitches":[8,6,11,-1,8,1,3,6],"shift_direction":-1,"question_num":151,"has_decoy":false},{"rt":279.8999999910593,"stimulus":"[A] option 1, [L] option 2, [G] neither","key_press":76,"name":"choice","trial_type":"html-keyboard-response","trial_index":186,"time_elapsed":567185,"internal_node_id":"0.0-186.0","subject":"S1C0829","sona":"38164","block":3,"time":"2021-09-17T18:53:52.407Z","response":"2nd","certainty":"high","char":"L","transposition":-3,"order":["shifted","swapped"],"probe_pitches":[8,10,8,0,6,10,8,10],"shifted_pitches":[8,10,8,0,5,10,8,10],"swapped_pitches":[8,10,8,6,0,10,8,10],"shift_direction":-1,"question_num":161,"has_decoy":false},{"rt":222.6000000089407,"stimulus":"[A] option 1, [L] option 2, [G] neither","key_press":65,"name":"choice","trial_type":"html-keyboard-response","trial_index":197,"time_elapsed":581720,"internal_node_id":"0.0-197.0","subject":"S1C0829","sona":"38164","block":3,"time":"2021-09-17T18:53:52.407Z","response":"1st","certainty":"high","char":"A","transposition":0,"order":["shifted","swapped"],"probe_pitches":[3,5,6,11,8,5,0,11],"shifted_pitches":[3,5,6,11,7,5,0,11],"swapped_pitches":[3,5,6,8,11,5,0,11],"shift_direction":-1,"question_num":171,"has_decoy":false},{"rt":517.2000000029802,"stimulus":"[A] option 1, [L] option 2, [G] neither","key_press":65,"name":"choice","trial_type":"html-keyboard-response","trial_index":208,"time_elapsed":596330,"internal_node_id":"0.0-208.0","subject":"S1C0829","sona":"38164","block":3,"time":"2021-09-17T18:53:52.407Z","response":"1st","certainty":"high","char":"A","transposition":-1,"order":["swapped","shifted"],"probe_pitches":[11,7,2,4,11,9,4,7],"shifted_pitches":[11,7,2,3,11,9,4,7],"swapped_pitches":[11,7,2,11,4,9,4,7],"shift_direction":-1,"question_num":181,"has_decoy":false},{"rt":294.6000000089407,"stimulus":"[A] option 1, [L] option 2, [G] neither","key_press":76,"name":"choice","trial_type":"html-keyboard-response","trial_index":219,"time_elapsed":611126,"internal_node_id":"0.0-219.0","subject":"S1C0829","sona":"38164","block":3,"time":"2021-09-17T18:53:52.407Z","response":"2nd","certainty":"high","char":"L","transposition":-1,"order":["swapped","shifted"],"probe_pitches":[12,7,9,10,3,12,1,0],"shifted_pitches":[12,7,9,11,3,12,1,0],"swapped_pitches":[12,7,9,3,10,12,1,0],"shift_direction":1,"question_num":191,"has_decoy":false}]