[{"rt":1059.7999999970198,"stimulus":"[A] option 1, [L] option 2, [G] neither","key_press":65,"name":"choice","trial_type":"html-keyboard-response","trial_index":10,"time_elapsed":19675,"internal_node_id":"0.0-10.0","subject":"S1C0829","sona":"38164","block":4,"time":"2021-09-17T19:01:06.034Z","response":"1st","certainty":"high","char":"A","transposition":-1,"order":["swapped","shifted"],"probe_pitches":[0,5,12,10,7,5,3,0],"shifted_pitches":[0,5,12,10,8,5,3,0],"swapped_pitches":[0,5,12,7,10,5,3,0],"shift_direction":1,"question_num":1,"has_decoy":false},{"rt":1321,"stimulus":"[A] option 1, [L] option 2, [G] neither","key_press":76,"name":"choice","trial_type":"html-keyboard-response","trial_index":21,"time_elapsed":35457,"internal_node_id":"0.0-21.0","subject":"S1C0829","sona":"38164","block":4,"time":"2021-09-17T19:01:06.034Z","response":"2nd","certainty":"high","char":"L","transposition":-1,"order":["shifted","swapped"],"probe_pitches":[4,7,1,9,4,0,10,2],"shifted_pitches":[4,7,1,9,3,0,10,2],"swapped_pitches":[4,7,1,4,9,0,10,2],"shift_direction":-1,"question_num":11,"has_decoy":false},{"rt":3951.7000000029802,"stimulus":"[A] option 1, [L] option 2, [G] neither","key_press":76,"name":"choice","trial_type":"html-keyboard-response","trial_index":32,"time_elapsed":53766,"internal_node_id":"0.0-32.0","subject":"S1C0829","sona":"38164","block":4,"time":"2021-09-17T19:01:06.034Z","response":"2nd","certainty":"high","char":"L","transposition":-1,"order":["shifted","swapped"],"probe_pitches":[12,9,12,7,0,4,12,2],"shifted_pitches":[12,9,12,7,-1,4,12,2],"swapped_pitches":[12,9,12,0,7,4,12,2],"shift_direction":-1,"question_num":21,"has_decoy":false},{"rt":798.1999999880791,"stimulus":"[A] option 1, [L] option 2, [G] neither","key_press":65,"name":"choice","trial_type":"html-keyboard-response","trial_index":43,"time_elapsed":69451,"internal_node_id":"0.0-43.0","subject":"S1C0829","sona":"38164","block":4,"time":"2021-09-17T19:01:06.034Z","response":"1st","certainty":"high","char":"A","transposition":1,"order":["swapped","shifted"],"probe_pitches":[-1,0,-2,3,1,4,3,4],"shifted_pitches":[-1,0,-2,3,2,4,3,4],"swapped_pitches":[-1,0,-2,1,3,4,3,4],"shift_direction":1,"question_num":31,"has_decoy":false},{"rt":1685.6000000089407,"stimulus":"[A] option 1, [L] option 2, [G] neither","key_press":76,"name":"choice","trial_type":"html-keyboard-response","trial_index":54,"time_elapsed":85635,"internal_node_id":"0.0-54.0","subject":"S1C0829","sona":"38164","block":4,"time":"2021-09-17T19:01:06.034Z","response":"2nd","certainty":"high","char":"L","transposition":3,"order":["shifted","swapped"],"probe_pitches":[5,8,3,8,0,5,3,10],"shifted_pitches":[5,8,3,9,0,5,3,10],"swapped_pitches":[5,8,3,0,8,5,3,10],"shift_direction":1,"question_num":41,"has_decoy":false},{"rt":1263.0999999940395,"stimulus":"[A] option 1, [L] option 2, [G] neither","key_press":65,"name":"choice","trial_type":"html-keyboard-response","trial_index":65,"time_elapsed":101340,"internal_node_id":"0.0-65.0","subject":"S1C0829","sona":"38164","block":4,"time":"2021-09-17T19:01:06.034Z","response":"1st","certainty":"high","char":"A","transposition":-3,"order":["swapped","shifted"],"probe_pitches":[4,7,4,0,2,9,7,2],"shifted_pitches":[4,7,4,0,3,9,7,2],"swapped_pitches":[4,7,4,2,0,9,7,2],"shift_direction":1,"question_num":51,"has_decoy":false},{"rt":2124.5,"stimulus":"[A] option 1, [L] option 2, [G] neither","key_press":65,"name":"choice","trial_type":"html-keyboard-response","trial_index":76,"time_elapsed":119097,"internal_node_id":"0.0-76.0","subject":"S1C0829","sona":"38164","block":4,"time":"2021-09-17T19:01:06.034Z","response":"1st","certainty":"high","char":"A","transposition":3,"order":["shifted","swapped"],"probe_pitches":[9,3,-2,6,1,0,4,2],"shifted_pitches":[9,3,-2,5,1,0,4,2],"swapped_pitches":[9,3,-2,1,6,0,4,2],"shift_direction":-1,"question_num":61,"has_decoy":false},{"rt":2060,"stimulus":"[A] option 1, [L] option 2, [G] neither","key_press":76,"name":"choice","trial_type":"html-keyboard-response","trial_index":87,"time_elapsed":135738,"internal_node_id":"0.0-87.0","subject":"S1C0829","sona":"38164","block":4,"time":"2021-09-17T19:01:06.034Z","response":"2nd","certainty":"high","char":"L","transposition":-3,"order":["swapped","shifted"],"probe_pitches":[5,4,8,0,3,10,6,10],"shifted_pitches":[5,4,8,1,3,10,6,10],"swapped_pitches":[5,4,8,3,0,10,6,10],"shift_direction":1,"question_num":71,"has_decoy":false},{"rt":895.2999999970198,"stimulus":"[A] option 1, [L] option 2, [G] neither","key_press":65,"name":"choice","trial_type":"html-keyboard-response","trial_index":98,"time_elapsed":151223,"internal_node_id":"0.0-98.0","subject":"S1C0829","sona":"38164","block":4,"time":"2021-09-17T19:01:06.034Z","response":"1st","certainty":"high","char":"A","transposition":-2,"order":["shifted","swapped"],"probe_pitches":[3,-1,4,1,2,9,10,2],"shifted_pitches":[3,-1,4,0,2,9,10,2],"swapped_pitches":[3,-1,4,2,1,9,10,2],"shift_direction":-1,"question_num":81,"has_decoy":false},{"rt":1541.9000000059605,"stimulus":"[A] option 1, [L] option 2, [G] neither","key_press":65,"name":"choice","trial_type":"html-keyboard-response","trial_index":109,"time_elapsed":168968,"internal_node_id":"0.0-109.0","subject":"S1C0829","sona":"38164","block":4,"time":"2021-09-17T19:01:06.034Z","response":"1st","certainty":"high","char":"A","transposition":1,"order":["swapped","shifted"],"probe_pitches":[0,3,5,12,3,5,8,10],"shifted_pitches":[0,3,5,11,3,5,8,10],"swapped_pitches":[0,3,5,3,12,5,8,10],"shift_direction":-1,"question_num":91,"has_decoy":false},{"rt":1648.199999988079,"stimulus":"[A] option 1, [L] option 2, [G] neither","key_press":76,"name":"choice","trial_type":"html-keyboard-response","trial_index":120,"time_elapsed":189309,"internal_node_id":"0.0-120.0","subject":"S1C0829","sona":"38164","block":4,"time":"2021-09-17T19:01:06.034Z","response":"2nd","certainty":"high","char":"L","transposition":-3,"order":["swapped","shifted"],"probe_pitches":[4,10,4,0,7,1,8,5],"shifted_pitches":[4,10,4,0,6,1,8,5],"swapped_pitches":[4,10,4,7,0,1,8,5],"shift_direction":-1,"question_num":101,"has_decoy":false},{"rt":31326.59999999404,"stimulus":"[A] option 1, [L] option 2, [G] neither","key_press":76,"name":"choice","trial_type":"html-keyboard-response","trial_index":131,"time_elapsed":236811,"internal_node_id":"0.0-131.0","subject":"S1C0829","sona":"38164","block":4,"time":"2021-09-17T19:01:06.034Z","response":"2nd","certainty":"high","char":"L","transposition":-1,"order":["shifted","swapped"],"probe_pitches":[1,2,1,9,6,1,0,5],"shifted_pitches":[1,2,1,9,7,1,0,5],"swapped_pitches":[1,2,1,6,9,1,0,5],"shift_direction":1,"question_num":111,"has_decoy":false},{"rt":1250.5,"stimulus":"[A] option 1, [L] option 2, [G] neither","key_press":65,"name":"choice","trial_type":"html-keyboard-response","trial_index":142,"time_elapsed":292318,"internal_node_id":"0.0-142.0","subject":"S1C0829","sona":"38164","block":4,"time":"2021-09-17T19:01:06.034Z","response":"1st","certainty":"high","char":"A","transposition":2,"order":["swapped","shifted"],"probe_pitches":[2,7,5,7,2,12,5,9],"shifted_pitches":[2,7,5,7,3,12,5,9],"swapped_pitches":[2,7,5,2,7,12,5,9],"shift_direction":1,"question_num":121,"has_decoy":false},{"rt":1330.7999999970198,"stimulus":"[A] option 1, [L] option 2, [G] neither","key_press":76,"name":"choice","trial_type":"html-keyboard-response","trial_index":153,"time_elapsed":312217,"internal_node_id":"0.0-153.0","subject":"S1C0829","sona":"38164","block":4,"time":"2021-09-17T19:01:06.034Z","response":"2nd","certainty":"high","char":"L","transposition":-2,"order":["shifted","swapped"],"probe_pitches":[5,1,3,5,-1,2,9,7],"shifted_pitches":[5,1,3,4,-1,2,9,7],"swapped_pitches":[5,1,3,-1,5,2,9,7],"shift_direction":-1,"question_num":131,"has_decoy":false},{"rt":1572.2000000029802,"stimulus":"[A] option 1, [L] option 2, [G] neither","key_press":65,"name":"choice","trial_type":"html-keyboard-response","trial_index":164,"time_elapsed":332150,"internal_node_id":"0.0-164.0","subject":"S1C0829","sona":"38164","block":4,"time":"2021-09-17T19:01:06.034Z","response":"1st","certainty":"high","char":"A","transposition":-3,"order":["shifted","swapped"],"probe_pitches":[10,7,5,12,10,0,10,3],"shifted_pitches":[10,7,5,13,10,0,10,3],"swapped_pitches":[10,7,5,10,12,0,10,3],"shift_direction":1,"question_num":141,"has_decoy":false},{"rt":2392.5,"stimulus":"[A] option 1, [L] option 2, [G] neither","key_press":76,"name":"choice","trial_type":"html-keyboard-response","trial_index":175,"time_elapsed":349003,"internal_node_id":"0.0-175.0","subject":"S1C0829","sona":"38164","block":4,"time":"2021-09-17T19:01:06.034Z","response":"2nd","certainty":"high","char":"L","transposition":-2,"order":["swapped","shifted"],"probe_pitches":[5,0,7,0,2,10,12,0],"shifted_pitches":[5,0,7,0,1,10,12,0],"swapped_pitches":[5,0,7,2,0,10,12,0],"shift_direction":-1,"question_num":151,"has_decoy":false},{"rt":1446.2999999970198,"stimulus":"[A] option 1, [L] option 2, [G] neither","key_press":65,"name":"choice","trial_type":"html-keyboard-response","trial_index":186,"time_elapsed":366423,"internal_node_id":"0.0-186.0","subject":"S1C0829","sona":"38164","block":4,"time":"2021-09-17T19:01:06.034Z","response":"1st","certainty":"high","char":"A","transposition":2,"order":["swapped","shifted"],"probe_pitches":[8,3,6,5,8,1,6,0],"shifted_pitches":[8,3,6,5,9,1,6,0],"swapped_pitches":[8,3,6,8,5,1,6,0],"shift_direction":1,"question_num":161,"has_decoy":false},{"rt":998.2999999970198,"stimulus":"[A] option 1, [L] option 2, [G] neither","key_press":76,"name":"choice","trial_type":"html-keyboard-response","trial_index":197,"time_elapsed":382297,"internal_node_id":"0.0-197.0","subject":"S1C0829","sona":"38164","block":4,"time":"2021-09-17T19:01:06.034Z","response":"2nd","certainty":"high","char":"L","transposition":0,"order":["shifted","swapped"],"probe_pitches":[9,12,7,5,9,2,5,7],"shifted_pitches":[9,12,7,4,9,2,5,7],"swapped_pitches":[9,12,7,9,5,2,5,7],"shift_direction":-1,"question_num":171,"has_decoy":false},{"rt":15975.70000000298,"stimulus":"[A] option 1, [L] option 2, [G] neither","key_press":65,"name":"choice","trial_type":"html-keyboard-response","trial_index":208,"time_elapsed":413690,"internal_node_id":"0.0-208.0","subject":"S1C0829","sona":"38164","block":4,"time":"2021-09-17T19:01:06.034Z","response":"1st","certainty":"high","char":"A","transposition":-2,"order":["shifted","swapped"],"probe_pitches":[2,5,2,7,10,12,2,10],"shifted_pitches":[2,5,2,6,10,12,2,10],"swapped_pitches":[2,5,2,10,7,12,2,10],"shift_direction":-1,"question_num":181,"has_decoy":false},{"rt":1737,"stimulus":"[A] option 1, [L] option 2, [G] neither","key_press":76,"name":"choice","trial_type":"html-keyboard-response","trial_index":219,"time_elapsed":429702,"internal_node_id":"0.0-219.0","subject":"S1C0829","sona":"38164","block":4,"time":"2021-09-17T19:01:06.034Z","response":"2nd","certainty":"high","char":"L","transposition":0,"order":["swapped","shifted"],"probe_pitches":[2,5,2,7,1,10,4,9],"shifted_pitches":[2,5,2,8,1,10,4,9],"swapped_pitches":[2,5,2,1,7,10,4,9],"shift_direction":1,"question_num":191,"has_decoy":false}]