[{"rt":284.5,"stimulus":"[A] option 1, [L] option 2, [G] neither","key_press":65,"name":"choice","trial_type":"html-keyboard-response","trial_index":10,"time_elapsed":107719,"internal_node_id":"0.0-10.0","subject":"S1C1228","sona":"41642","block":5,"time":"2021-09-17T19:15:15.757Z","response":"1st","certainty":"high","char":"A","transposition":-2,"order":["swapped","shifted"],"probe_pitches":[7,2,-3,1,-2,3,5,-1,7,-3,3,-3],"shifted_pitches":[7,2,-3,1,-2,3,6,-1,7,-3,3,-3],"swapped_pitches":[7,2,-3,1,-2,5,3,-1,7,-3,3,-3],"shift_direction":1,"question_num":1,"has_decoy":false},{"rt":286.09999999403954,"stimulus":"[A] option 1, [L] option 2, [G] neither","key_press":76,"name":"choice","trial_type":"html-keyboard-response","trial_index":21,"time_elapsed":128781,"internal_node_id":"0.0-21.0","subject":"S1C1228","sona":"41642","block":5,"time":"2021-09-17T19:15:15.757Z","response":"2nd","certainty":"high","char":"L","transposition":-3,"order":["swapped","shifted"],"probe_pitches":[1,3,-3,1,9,6,-2,3,-3,2,4,1],"shifted_pitches":[1,3,-3,1,9,7,-2,3,-3,2,4,1],"swapped_pitches":[1,3,-3,1,9,-2,6,3,-3,2,4,1],"shift_direction":1,"question_num":11,"has_decoy":false},{"rt":430.80000001192093,"stimulus":"[A] option 1, [L] option 2, [G] neither","key_press":76,"name":"choice","trial_type":"html-keyboard-response","trial_index":32,"time_elapsed":148172,"internal_node_id":"0.0-32.0","subject":"S1C1228","sona":"41642","block":5,"time":"2021-09-17T19:15:15.757Z","response":"2nd","certainty":"high","char":"L","transposition":1,"order":["swapped","shifted"],"probe_pitches":[3,8,11,6,11,15,6,3,13,3,13,6],"shifted_pitches":[3,8,11,6,11,15,7,3,13,3,13,6],"swapped_pitches":[3,8,11,6,11,6,15,3,13,3,13,6],"shift_direction":1,"question_num":21,"has_decoy":false},{"rt":165.89999997615814,"stimulus":"[A] option 1, [L] option 2, [G] neither","key_press":65,"name":"choice","trial_type":"html-keyboard-response","trial_index":43,"time_elapsed":167242,"internal_node_id":"0.0-43.0","subject":"S1C1228","sona":"41642","block":5,"time":"2021-09-17T19:15:15.757Z","response":"1st","certainty":"high","char":"A","transposition":0,"order":["shifted","swapped"],"probe_pitches":[-3,-2,-1,6,-3,2,8,-3,7,5,-1,0],"shifted_pitches":[-3,-2,-1,6,-3,1,8,-3,7,5,-1,0],"swapped_pitches":[-3,-2,-1,6,-3,8,2,-3,7,5,-1,0],"shift_direction":-1,"question_num":31,"has_decoy":false},{"rt":3329.0999999940395,"stimulus":"[A] option 1, [L] option 2, [G] neither","key_press":65,"name":"choice","trial_type":"html-keyboard-response","trial_index":54,"time_elapsed":190655,"internal_node_id":"0.0-54.0","subject":"S1C1228","sona":"41642","block":5,"time":"2021-09-17T19:15:15.757Z","response":"1st","certainty":"high","char":"A","transposition":-1,"order":["swapped","shifted"],"probe_pitches":[5,3,10,3,8,10,3,8,15,3,15,12],"shifted_pitches":[5,3,10,3,8,9,3,8,15,3,15,12],"swapped_pitches":[5,3,10,3,8,3,10,8,15,3,15,12],"shift_direction":-1,"question_num":41,"has_decoy":false},{"rt":302.09999999403954,"stimulus":"[A] option 1, [L] option 2, [G] neither","key_press":65,"name":"choice","trial_type":"html-keyboard-response","trial_index":65,"time_elapsed":210678,"internal_node_id":"0.0-65.0","subject":"S1C1228","sona":"41642","block":5,"time":"2021-09-17T19:15:15.757Z","response":"1st","certainty":"high","char":"A","transposition":3,"order":["swapped","shifted"],"probe_pitches":[-2,3,8,0,-3,5,-1,3,-3,-1,7,2],"shifted_pitches":[-2,3,8,0,-3,4,-1,3,-3,-1,7,2],"swapped_pitches":[-2,3,8,0,-3,-1,5,3,-3,-1,7,2],"shift_direction":-1,"question_num":51,"has_decoy":false},{"rt":1847.2999999821186,"stimulus":"[A] option 1, [L] option 2, [G] neither","key_press":76,"name":"choice","trial_type":"html-keyboard-response","trial_index":76,"time_elapsed":231157,"internal_node_id":"0.0-76.0","subject":"S1C1228","sona":"41642","block":5,"time":"2021-09-17T19:15:15.757Z","response":"2nd","certainty":"high","char":"L","transposition":-1,"order":["shifted","swapped"],"probe_pitches":[7,2,9,8,2,-1,1,9,7,2,6,8],"shifted_pitches":[7,2,9,8,2,-1,0,9,7,2,6,8],"swapped_pitches":[7,2,9,8,2,1,-1,9,7,2,6,8],"shift_direction":-1,"question_num":61,"has_decoy":false},{"rt":2009.4000000059605,"stimulus":"[A] option 1, [L] option 2, [G] neither","key_press":65,"name":"choice","trial_type":"html-keyboard-response","trial_index":87,"time_elapsed":256657,"internal_node_id":"0.0-87.0","subject":"S1C1228","sona":"41642","block":5,"time":"2021-09-17T19:15:15.757Z","response":"1st","certainty":"high","char":"A","transposition":-3,"order":["shifted","swapped"],"probe_pitches":[13,15,13,6,15,6,11,8,11,3,11,6],"shifted_pitches":[13,15,13,6,15,5,11,8,11,3,11,6],"swapped_pitches":[13,15,13,6,15,11,6,8,11,3,11,6],"shift_direction":-1,"question_num":71,"has_decoy":false},{"rt":262.5,"stimulus":"[A] option 1, [L] option 2, [G] neither","key_press":76,"name":"choice","trial_type":"html-keyboard-response","trial_index":98,"time_elapsed":276957,"internal_node_id":"0.0-98.0","subject":"S1C1228","sona":"41642","block":5,"time":"2021-09-17T19:15:15.757Z","response":"2nd","certainty":"high","char":"L","transposition":-1,"order":["shifted","swapped"],"probe_pitches":[8,3,8,10,8,12,10,8,15,5,8,3],"shifted_pitches":[8,3,8,10,8,12,11,8,15,5,8,3],"swapped_pitches":[8,3,8,10,8,10,12,8,15,5,8,3],"shift_direction":1,"question_num":81,"has_decoy":false},{"rt":276,"stimulus":"[A] option 1, [L] option 2, [G] neither","key_press":65,"name":"choice","trial_type":"html-keyboard-response","trial_index":109,"time_elapsed":296709,"internal_node_id":"0.0-109.0","subject":"S1C1228","sona":"41642","block":5,"time":"2021-09-17T19:15:15.757Z","response":"1st","certainty":"high","char":"A","transposition":-2,"order":["shifted","swapped"],"probe_pitches":[5,10,15,10,5,15,7,3,12,5,12,3],"shifted_pitches":[5,10,15,10,5,14,7,3,12,5,12,3],"swapped_pitches":[5,10,15,10,5,7,15,3,12,5,12,3],"shift_direction":-1,"question_num":91,"has_decoy":false},{"rt":625.1999999880791,"stimulus":"[A] option 1, [L] option 2, [G] neither","key_press":76,"name":"choice","trial_type":"html-keyboard-response","trial_index":120,"time_elapsed":316972,"internal_node_id":"0.0-120.0","subject":"S1C1228","sona":"41642","block":5,"time":"2021-09-17T19:15:15.757Z","response":"2nd","certainty":"high","char":"L","transposition":0,"order":["swapped","shifted"],"probe_pitches":[8,5,10,5,8,5,3,8,13,10,8,5],"shifted_pitches":[8,5,10,5,8,6,3,8,13,10,8,5],"swapped_pitches":[8,5,10,5,8,3,5,8,13,10,8,5],"shift_direction":1,"question_num":101,"has_decoy":false},{"rt":963.5,"stimulus":"[A] option 1, [L] option 2, [G] neither","key_press":76,"name":"choice","trial_type":"html-keyboard-response","trial_index":131,"time_elapsed":336479,"internal_node_id":"0.0-131.0","subject":"S1C1228","sona":"41642","block":5,"time":"2021-09-17T19:15:15.757Z","response":"2nd","certainty":"high","char":"L","transposition":1,"order":["shifted","swapped"],"probe_pitches":[6,0,-1,7,5,-3,2,-2,-1,1,2,9],"shifted_pitches":[6,0,-1,7,5,-3,3,-2,-1,1,2,9],"swapped_pitches":[6,0,-1,7,5,2,-3,-2,-1,1,2,9],"shift_direction":1,"question_num":111,"has_decoy":false},{"rt":785.2999999821186,"stimulus":"[A] option 1, [L] option 2, [G] neither","key_press":76,"name":"choice","trial_type":"html-keyboard-response","trial_index":142,"time_elapsed":362236,"internal_node_id":"0.0-142.0","subject":"S1C1228","sona":"41642","block":5,"time":"2021-09-17T19:15:15.757Z","response":"2nd","certainty":"high","char":"L","transposition":3,"order":["swapped","shifted"],"probe_pitches":[13,10,13,15,6,3,13,15,8,3,15,3],"shifted_pitches":[13,10,13,15,6,3,14,15,8,3,15,3],"swapped_pitches":[13,10,13,15,6,13,3,15,8,3,15,3],"shift_direction":1,"question_num":121,"has_decoy":false},{"rt":3267.300000011921,"stimulus":"[A] option 1, [L] option 2, [G] neither","key_press":71,"name":"choice","trial_type":"html-keyboard-response","trial_index":153,"time_elapsed":388728,"internal_node_id":"0.0-153.0","subject":"S1C1228","sona":"41642","block":5,"time":"2021-09-17T19:15:15.757Z","response":"neither","certainty":"high","char":"G","transposition":2,"order":["swapped","shifted"],"probe_pitches":[13,10,3,10,5,8,3,15,5,13,15,8],"shifted_pitches":[13,10,3,10,5,8,2,15,5,13,15,8],"swapped_pitches":[13,10,3,10,5,3,8,15,5,13,15,8],"shift_direction":-1,"question_num":131,"has_decoy":false},{"rt":4691.5999999940395,"stimulus":"[A] option 1, [L] option 2, [G] neither","key_press":76,"name":"choice","trial_type":"html-keyboard-response","trial_index":164,"time_elapsed":413181,"internal_node_id":"0.0-164.0","subject":"S1C1228","sona":"41642","block":5,"time":"2021-09-17T19:15:15.757Z","response":"2nd","certainty":"high","char":"L","transposition":-2,"order":["shifted","swapped"],"probe_pitches":[7,12,10,5,7,15,10,7,15,5,3,7],"shifted_pitches":[7,12,10,5,7,14,10,7,15,5,3,7],"swapped_pitches":[7,12,10,5,7,10,15,7,15,5,3,7],"shift_direction":-1,"question_num":141,"has_decoy":false},{"rt":967.2999999821186,"stimulus":"[A] option 1, [L] option 2, [G] neither","key_press":65,"name":"choice","trial_type":"html-keyboard-response","trial_index":175,"time_elapsed":433323,"internal_node_id":"0.0-175.0","subject":"S1C1228","sona":"41642","block":5,"time":"2021-09-17T19:15:15.757Z","response":"1st","certainty":"high","char":"A","transposition":-3,"order":["shifted","swapped"],"probe_pitches":[9,4,6,7,4,3,7,2,4,1,4,-2],"shifted_pitches":[9,4,6,7,4,3,8,2,4,1,4,-2],"swapped_pitches":[9,4,6,7,4,7,3,2,4,1,4,-2],"shift_direction":1,"question_num":151,"has_decoy":false},{"rt":4163.600000023842,"stimulus":"[A] option 1, [L] option 2, [G] neither","key_press":76,"name":"choice","trial_type":"html-keyboard-response","trial_index":186,"time_elapsed":456049,"internal_node_id":"0.0-186.0","subject":"S1C1228","sona":"41642","block":5,"time":"2021-09-17T19:15:15.757Z","response":"2nd","certainty":"high","char":"L","transposition":-3,"order":["shifted","swapped"],"probe_pitches":[8,3,8,15,8,13,6,10,13,10,8,10],"shifted_pitches":[8,3,8,15,8,13,7,10,13,10,8,10],"swapped_pitches":[8,3,8,15,8,6,13,10,13,10,8,10],"shift_direction":1,"question_num":161,"has_decoy":false},{"rt":6495.699999988079,"stimulus":"[A] option 1, [L] option 2, [G] neither","key_press":76,"name":"choice","trial_type":"html-keyboard-response","trial_index":197,"time_elapsed":485501,"internal_node_id":"0.0-197.0","subject":"S1C1228","sona":"41642","block":5,"time":"2021-09-17T19:15:15.757Z","response":"2nd","certainty":"high","char":"L","transposition":2,"order":["shifted","swapped"],"probe_pitches":[1,7,6,1,8,1,3,4,3,-3,7,6],"shifted_pitches":[1,7,6,1,8,2,3,4,3,-3,7,6],"swapped_pitches":[1,7,6,1,8,3,1,4,3,-3,7,6],"shift_direction":1,"question_num":171,"has_decoy":false},{"rt":3235.800000011921,"stimulus":"[A] option 1, [L] option 2, [G] neither","key_press":76,"name":"choice","trial_type":"html-keyboard-response","trial_index":208,"time_elapsed":509354,"internal_node_id":"0.0-208.0","subject":"S1C1228","sona":"41642","block":5,"time":"2021-09-17T19:15:15.757Z","response":"2nd","certainty":"high","char":"L","transposition":-1,"order":["swapped","shifted"],"probe_pitches":[6,2,8,6,8,6,4,8,2,4,3,2],"shifted_pitches":[6,2,8,6,8,5,4,8,2,4,3,2],"swapped_pitches":[6,2,8,6,8,4,6,8,2,4,3,2],"shift_direction":-1,"question_num":181,"has_decoy":false},{"rt":6802.199999988079,"stimulus":"[A] option 1, [L] option 2, [G] neither","key_press":65,"name":"choice","trial_type":"html-keyboard-response","trial_index":219,"time_elapsed":536958,"internal_node_id":"0.0-219.0","subject":"S1C1228","sona":"41642","block":5,"time":"2021-09-17T19:15:15.757Z","response":"1st","certainty":"high","char":"A","transposition":-2,"order":["swapped","shifted"],"probe_pitches":[0,1,6,2,4,2,0,-2,1,9,4,1],"shifted_pitches":[0,1,6,2,4,2,-1,-2,1,9,4,1],"swapped_pitches":[0,1,6,2,4,0,2,-2,1,9,4,1],"shift_direction":-1,"question_num":191,"has_decoy":false}]