[{"rt":1718.2000000178814,"stimulus":"[A] option 1, [L] option 2, [G] neither","key_press":71,"name":"choice","trial_type":"html-keyboard-response","trial_index":10,"time_elapsed":23794,"internal_node_id":"0.0-10.0","subject":"S1C1228","sona":"41642","block":2,"time":"2021-09-17T18:39:11.551Z","response":"neither","certainty":"high","char":"G","transposition":0,"order":["shifted","swapped"],"probe_pitches":[6,9,2,-1,4,-3,6,9,4,-1,6,-3],"shifted_pitches":[6,9,2,-1,4,-3,5,9,4,-1,6,-3],"swapped_pitches":[6,9,2,-1,4,6,-3,9,4,-1,6,-3],"shift_direction":-1,"question_num":1,"has_decoy":false},{"rt":342.40000000596046,"stimulus":"[A] option 1, [L] option 2, [G] neither","key_press":65,"name":"choice","trial_type":"html-keyboard-response","trial_index":21,"time_elapsed":42791,"internal_node_id":"0.0-21.0","subject":"S1C1228","sona":"41642","block":2,"time":"2021-09-17T18:39:11.551Z","response":"1st","certainty":"high","char":"A","transposition":2,"order":["shifted","swapped"],"probe_pitches":[-3,2,-3,5,2,7,0,2,0,7,-3,9],"shifted_pitches":[-3,2,-3,5,2,8,0,2,0,7,-3,9],"swapped_pitches":[-3,2,-3,5,2,0,7,2,0,7,-3,9],"shift_direction":1,"question_num":11,"has_decoy":false},{"rt":1443.5,"stimulus":"[A] option 1, [L] option 2, [G] neither","key_press":76,"name":"choice","trial_type":"html-keyboard-response","trial_index":32,"time_elapsed":62824,"internal_node_id":"0.0-32.0","subject":"S1C1228","sona":"41642","block":2,"time":"2021-09-17T18:39:11.551Z","response":"2nd","certainty":"high","char":"L","transposition":-1,"order":["shifted","swapped"],"probe_pitches":[9,4,6,9,4,1,-1,-3,-1,9,6,-1],"shifted_pitches":[9,4,6,9,4,1,0,-3,-1,9,6,-1],"swapped_pitches":[9,4,6,9,4,-1,1,-3,-1,9,6,-1],"shift_direction":1,"question_num":21,"has_decoy":false},{"rt":384.5,"stimulus":"[A] option 1, [L] option 2, [G] neither","key_press":65,"name":"choice","trial_type":"html-keyboard-response","trial_index":43,"time_elapsed":84207,"internal_node_id":"0.0-43.0","subject":"S1C1228","sona":"41642","block":2,"time":"2021-09-17T18:39:11.551Z","response":"1st","certainty":"high","char":"A","transposition":1,"order":["swapped","shifted"],"probe_pitches":[9,15,11,10,4,6,14,9,8,6,8,13],"shifted_pitches":[9,15,11,10,4,7,14,9,8,6,8,13],"swapped_pitches":[9,15,11,10,4,14,6,9,8,6,8,13],"shift_direction":1,"question_num":31,"has_decoy":false},{"rt":1483.4000000059605,"stimulus":"[A] option 1, [L] option 2, [G] neither","key_press":76,"name":"choice","trial_type":"html-keyboard-response","trial_index":54,"time_elapsed":106857,"internal_node_id":"0.0-54.0","subject":"S1C1228","sona":"41642","block":2,"time":"2021-09-17T18:39:11.551Z","response":"2nd","certainty":"high","char":"L","transposition":2,"order":["swapped","shifted"],"probe_pitches":[6,7,11,15,7,3,11,7,9,15,12,5],"shifted_pitches":[6,7,11,15,7,3,10,7,9,15,12,5],"swapped_pitches":[6,7,11,15,7,11,3,7,9,15,12,5],"shift_direction":-1,"question_num":41,"has_decoy":false},{"rt":471.5,"stimulus":"[A] option 1, [L] option 2, [G] neither","key_press":65,"name":"choice","trial_type":"html-keyboard-response","trial_index":65,"time_elapsed":126327,"internal_node_id":"0.0-65.0","subject":"S1C1228","sona":"41642","block":2,"time":"2021-09-17T18:39:11.551Z","response":"1st","certainty":"high","char":"A","transposition":-2,"order":["shifted","swapped"],"probe_pitches":[11,7,10,9,6,14,12,5,3,10,6,5],"shifted_pitches":[11,7,10,9,6,14,13,5,3,10,6,5],"swapped_pitches":[11,7,10,9,6,12,14,5,3,10,6,5],"shift_direction":1,"question_num":51,"has_decoy":false},{"rt":960.9000000059605,"stimulus":"[A] option 1, [L] option 2, [G] neither","key_press":65,"name":"choice","trial_type":"html-keyboard-response","trial_index":76,"time_elapsed":146398,"internal_node_id":"0.0-76.0","subject":"S1C1228","sona":"41642","block":2,"time":"2021-09-17T18:39:11.551Z","response":"1st","certainty":"high","char":"A","transposition":3,"order":["swapped","shifted"],"probe_pitches":[7,4,0,7,2,-3,0,9,7,0,9,2],"shifted_pitches":[7,4,0,7,2,-3,1,9,7,0,9,2],"swapped_pitches":[7,4,0,7,2,0,-3,9,7,0,9,2],"shift_direction":1,"question_num":61,"has_decoy":false},{"rt":1734.9000000059605,"stimulus":"[A] option 1, [L] option 2, [G] neither","key_press":65,"name":"choice","trial_type":"html-keyboard-response","trial_index":87,"time_elapsed":171832,"internal_node_id":"0.0-87.0","subject":"S1C1228","sona":"41642","block":2,"time":"2021-09-17T18:39:11.551Z","response":"1st","certainty":"high","char":"A","transposition":-1,"order":["shifted","swapped"],"probe_pitches":[11,14,8,7,4,6,10,3,8,7,15,6],"shifted_pitches":[11,14,8,7,4,5,10,3,8,7,15,6],"swapped_pitches":[11,14,8,7,4,10,6,3,8,7,15,6],"shift_direction":-1,"question_num":71,"has_decoy":false},{"rt":13680.199999988079,"stimulus":"[A] option 1, [L] option 2, [G] neither","key_press":71,"name":"choice","trial_type":"html-keyboard-response","trial_index":98,"time_elapsed":206422,"internal_node_id":"0.0-98.0","subject":"S1C1228","sona":"41642","block":2,"time":"2021-09-17T18:39:11.551Z","response":"neither","certainty":"high","char":"G","transposition":-1,"order":["shifted","swapped"],"probe_pitches":[13,11,4,11,10,12,7,3,15,6,10,11],"shifted_pitches":[13,11,4,11,10,12,8,3,15,6,10,11],"swapped_pitches":[13,11,4,11,10,7,12,3,15,6,10,11],"shift_direction":1,"question_num":81,"has_decoy":false},{"rt":1205.9000000059605,"stimulus":"[A] option 1, [L] option 2, [G] neither","key_press":76,"name":"choice","trial_type":"html-keyboard-response","trial_index":109,"time_elapsed":227675,"internal_node_id":"0.0-109.0","subject":"S1C1228","sona":"41642","block":2,"time":"2021-09-17T18:39:11.551Z","response":"2nd","certainty":"high","char":"L","transposition":0,"order":["shifted","swapped"],"probe_pitches":[14,8,11,15,13,9,7,3,5,9,3,10],"shifted_pitches":[14,8,11,15,13,9,6,3,5,9,3,10],"swapped_pitches":[14,8,11,15,13,7,9,3,5,9,3,10],"shift_direction":-1,"question_num":91,"has_decoy":false},{"rt":2944.4000000059605,"stimulus":"[A] option 1, [L] option 2, [G] neither","key_press":76,"name":"choice","trial_type":"html-keyboard-response","trial_index":120,"time_elapsed":249087,"internal_node_id":"0.0-120.0","subject":"S1C1228","sona":"41642","block":2,"time":"2021-09-17T18:39:11.551Z","response":"2nd","certainty":"high","char":"L","transposition":-3,"order":["swapped","shifted"],"probe_pitches":[10,5,7,5,4,12,9,7,6,4,3,6],"shifted_pitches":[10,5,7,5,4,11,9,7,6,4,3,6],"swapped_pitches":[10,5,7,5,4,9,12,7,6,4,3,6],"shift_direction":-1,"question_num":101,"has_decoy":false},{"rt":1066.8999999761581,"stimulus":"[A] option 1, [L] option 2, [G] neither","key_press":65,"name":"choice","trial_type":"html-keyboard-response","trial_index":131,"time_elapsed":269994,"internal_node_id":"0.0-131.0","subject":"S1C1228","sona":"41642","block":2,"time":"2021-09-17T18:39:11.551Z","response":"1st","certainty":"high","char":"A","transposition":3,"order":["shifted","swapped"],"probe_pitches":[11,12,5,3,7,15,6,10,8,6,8,4],"shifted_pitches":[11,12,5,3,7,14,6,10,8,6,8,4],"swapped_pitches":[11,12,5,3,7,6,15,10,8,6,8,4],"shift_direction":-1,"question_num":111,"has_decoy":false},{"rt":55278.5,"stimulus":"[A] option 1, [L] option 2, [G] neither","key_press":65,"name":"choice","trial_type":"html-keyboard-response","trial_index":142,"time_elapsed":351349,"internal_node_id":"0.0-142.0","subject":"S1C1228","sona":"41642","block":2,"time":"2021-09-17T18:39:11.551Z","response":"1st","certainty":"high","char":"A","transposition":-2,"order":["swapped","shifted"],"probe_pitches":[10,4,8,15,8,6,11,15,3,7,13,8],"shifted_pitches":[10,4,8,15,8,6,12,15,3,7,13,8],"swapped_pitches":[10,4,8,15,8,11,6,15,3,7,13,8],"shift_direction":1,"question_num":121,"has_decoy":false},{"rt":368.59999999403954,"stimulus":"[A] option 1, [L] option 2, [G] neither","key_press":76,"name":"choice","trial_type":"html-keyboard-response","trial_index":153,"time_elapsed":379749,"internal_node_id":"0.0-153.0","subject":"S1C1228","sona":"41642","block":2,"time":"2021-09-17T18:39:11.551Z","response":"2nd","certainty":"high","char":"L","transposition":-1,"order":["swapped","shifted"],"probe_pitches":[-3,1,-1,-3,4,1,-3,-1,-3,6,-1,6],"shifted_pitches":[-3,1,-1,-3,4,2,-3,-1,-3,6,-1,6],"swapped_pitches":[-3,1,-1,-3,4,-3,1,-1,-3,6,-1,6],"shift_direction":1,"question_num":131,"has_decoy":false},{"rt":892.7999999821186,"stimulus":"[A] option 1, [L] option 2, [G] neither","key_press":76,"name":"choice","trial_type":"html-keyboard-response","trial_index":164,"time_elapsed":399430,"internal_node_id":"0.0-164.0","subject":"S1C1228","sona":"41642","block":2,"time":"2021-09-17T18:39:11.551Z","response":"2nd","certainty":"high","char":"L","transposition":-3,"order":["swapped","shifted"],"probe_pitches":[4,7,2,4,-1,9,2,7,4,2,4,2],"shifted_pitches":[4,7,2,4,-1,8,2,7,4,2,4,2],"swapped_pitches":[4,7,2,4,-1,2,9,7,4,2,4,2],"shift_direction":-1,"question_num":141,"has_decoy":false},{"rt":648.8000000119209,"stimulus":"[A] option 1, [L] option 2, [G] neither","key_press":65,"name":"choice","trial_type":"html-keyboard-response","trial_index":175,"time_elapsed":421547,"internal_node_id":"0.0-175.0","subject":"S1C1228","sona":"41642","block":2,"time":"2021-09-17T18:39:11.551Z","response":"1st","certainty":"high","char":"A","transposition":-2,"order":["shifted","swapped"],"probe_pitches":[-3,-1,2,4,-3,4,9,-3,9,7,-1,9],"shifted_pitches":[-3,-1,2,4,-3,5,9,-3,9,7,-1,9],"swapped_pitches":[-3,-1,2,4,-3,9,4,-3,9,7,-1,9],"shift_direction":1,"question_num":151,"has_decoy":false},{"rt":365.5,"stimulus":"[A] option 1, [L] option 2, [G] neither","key_press":76,"name":"choice","trial_type":"html-keyboard-response","trial_index":186,"time_elapsed":451717,"internal_node_id":"0.0-186.0","subject":"S1C1228","sona":"41642","block":2,"time":"2021-09-17T18:39:11.551Z","response":"2nd","certainty":"high","char":"L","transposition":-2,"order":["swapped","shifted"],"probe_pitches":[9,4,2,0,-3,2,0,7,-3,9,2,0],"shifted_pitches":[9,4,2,0,-3,2,-1,7,-3,9,2,0],"swapped_pitches":[9,4,2,0,-3,0,2,7,-3,9,2,0],"shift_direction":-1,"question_num":161,"has_decoy":false},{"rt":456.59999999403954,"stimulus":"[A] option 1, [L] option 2, [G] neither","key_press":76,"name":"choice","trial_type":"html-keyboard-response","trial_index":197,"time_elapsed":470564,"internal_node_id":"0.0-197.0","subject":"S1C1228","sona":"41642","block":2,"time":"2021-09-17T18:39:11.551Z","response":"2nd","certainty":"high","char":"L","transposition":-3,"order":["swapped","shifted"],"probe_pitches":[4,2,-1,4,2,4,9,-1,2,4,9,6],"shifted_pitches":[4,2,-1,4,2,4,8,-1,2,4,9,6],"swapped_pitches":[4,2,-1,4,2,9,4,-1,2,4,9,6],"shift_direction":-1,"question_num":171,"has_decoy":false},{"rt":6071.9000000059605,"stimulus":"[A] option 1, [L] option 2, [G] neither","key_press":76,"name":"choice","trial_type":"html-keyboard-response","trial_index":208,"time_elapsed":499336,"internal_node_id":"0.0-208.0","subject":"S1C1228","sona":"41642","block":2,"time":"2021-09-17T18:39:11.551Z","response":"2nd","certainty":"high","char":"L","transposition":-3,"order":["swapped","shifted"],"probe_pitches":[15,10,15,8,7,8,4,13,14,10,5,10],"shifted_pitches":[15,10,15,8,7,9,4,13,14,10,5,10],"swapped_pitches":[15,10,15,8,7,4,8,13,14,10,5,10],"shift_direction":1,"question_num":181,"has_decoy":false},{"rt":737.1999999880791,"stimulus":"[A] option 1, [L] option 2, [G] neither","key_press":76,"name":"choice","trial_type":"html-keyboard-response","trial_index":219,"time_elapsed":519591,"internal_node_id":"0.0-219.0","subject":"S1C1228","sona":"41642","block":2,"time":"2021-09-17T18:39:11.551Z","response":"2nd","certainty":"high","char":"L","transposition":1,"order":["shifted","swapped"],"probe_pitches":[7,9,7,2,9,5,-3,2,7,-3,0,-3],"shifted_pitches":[7,9,7,2,9,4,-3,2,7,-3,0,-3],"swapped_pitches":[7,9,7,2,9,-3,5,2,7,-3,0,-3],"shift_direction":-1,"question_num":191,"has_decoy":false}]