[{"rt":554.7999999821186,"stimulus":"[A] option 1, [L] option 2, [G] neither","key_press":71,"name":"choice","trial_type":"html-keyboard-response","trial_index":10,"time_elapsed":33255,"internal_node_id":"0.0-10.0","subject":"S1C1228","sona":"41642","block":6,"time":"2021-09-17T19:22:23.172Z","response":"neither","certainty":"high","char":"G","transposition":-2,"order":["shifted","swapped"],"probe_pitches":[4,3,6,4,13,8,6,12,13,6,14,13],"shifted_pitches":[4,3,6,4,13,8,5,12,13,6,14,13],"swapped_pitches":[4,3,6,4,13,6,8,12,13,6,14,13],"shift_direction":-1,"question_num":1,"has_decoy":false},{"rt":398.30000001192093,"stimulus":"[A] option 1, [L] option 2, [G] neither","key_press":76,"name":"choice","trial_type":"html-keyboard-response","trial_index":21,"time_elapsed":52031,"internal_node_id":"0.0-21.0","subject":"S1C1228","sona":"41642","block":6,"time":"2021-09-17T19:22:23.172Z","response":"2nd","certainty":"high","char":"L","transposition":-3,"order":["swapped","shifted"],"probe_pitches":[8,12,10,14,9,3,5,11,3,9,6,13],"shifted_pitches":[8,12,10,14,9,4,5,11,3,9,6,13],"swapped_pitches":[8,12,10,14,9,5,3,11,3,9,6,13],"shift_direction":1,"question_num":11,"has_decoy":false},{"rt":691.5,"stimulus":"[A] option 1, [L] option 2, [G] neither","key_press":76,"name":"choice","trial_type":"html-keyboard-response","trial_index":32,"time_elapsed":71492,"internal_node_id":"0.0-32.0","subject":"S1C1228","sona":"41642","block":6,"time":"2021-09-17T19:22:23.172Z","response":"2nd","certainty":"high","char":"L","transposition":3,"order":["swapped","shifted"],"probe_pitches":[-3,-1,-3,4,-3,6,-1,-3,-1,4,-3,1],"shifted_pitches":[-3,-1,-3,4,-3,6,-2,-3,-1,4,-3,1],"swapped_pitches":[-3,-1,-3,4,-3,-1,6,-3,-1,4,-3,1],"shift_direction":-1,"question_num":21,"has_decoy":false},{"rt":283.40000000596046,"stimulus":"[A] option 1, [L] option 2, [G] neither","key_press":65,"name":"choice","trial_type":"html-keyboard-response","trial_index":43,"time_elapsed":90374,"internal_node_id":"0.0-43.0","subject":"S1C1228","sona":"41642","block":6,"time":"2021-09-17T19:22:23.172Z","response":"1st","certainty":"high","char":"A","transposition":-1,"order":["shifted","swapped"],"probe_pitches":[4,7,0,4,2,0,9,-3,7,4,2,0],"shifted_pitches":[4,7,0,4,2,1,9,-3,7,4,2,0],"swapped_pitches":[4,7,0,4,2,9,0,-3,7,4,2,0],"shift_direction":1,"question_num":31,"has_decoy":false},{"rt":333.10000002384186,"stimulus":"[A] option 1, [L] option 2, [G] neither","key_press":65,"name":"choice","trial_type":"html-keyboard-response","trial_index":54,"time_elapsed":108877,"internal_node_id":"0.0-54.0","subject":"S1C1228","sona":"41642","block":6,"time":"2021-09-17T19:22:23.172Z","response":"1st","certainty":"high","char":"A","transposition":-3,"order":["swapped","shifted"],"probe_pitches":[12,7,5,6,12,10,7,6,10,9,8,3],"shifted_pitches":[12,7,5,6,12,11,7,6,10,9,8,3],"swapped_pitches":[12,7,5,6,12,7,10,6,10,9,8,3],"shift_direction":1,"question_num":41,"has_decoy":false},{"rt":1029.9000000059605,"stimulus":"[A] option 1, [L] option 2, [G] neither","key_press":71,"name":"choice","trial_type":"html-keyboard-response","trial_index":65,"time_elapsed":128053,"internal_node_id":"0.0-65.0","subject":"S1C1228","sona":"41642","block":6,"time":"2021-09-17T19:22:23.172Z","response":"neither","certainty":"high","char":"G","transposition":1,"order":["swapped","shifted"],"probe_pitches":[14,13,14,13,14,8,7,11,14,3,7,2],"shifted_pitches":[14,13,14,13,14,8,6,11,14,3,7,2],"swapped_pitches":[14,13,14,13,14,7,8,11,14,3,7,2],"shift_direction":-1,"question_num":51,"has_decoy":false},{"rt":912.7999999821186,"stimulus":"[A] option 1, [L] option 2, [G] neither","key_press":76,"name":"choice","trial_type":"html-keyboard-response","trial_index":76,"time_elapsed":147568,"internal_node_id":"0.0-76.0","subject":"S1C1228","sona":"41642","block":6,"time":"2021-09-17T19:22:23.172Z","response":"2nd","certainty":"high","char":"L","transposition":-1,"order":["swapped","shifted"],"probe_pitches":[9,4,6,-1,6,4,-3,6,4,2,4,-1],"shifted_pitches":[9,4,6,-1,6,5,-3,6,4,2,4,-1],"swapped_pitches":[9,4,6,-1,6,-3,4,6,4,2,4,-1],"shift_direction":1,"question_num":61,"has_decoy":false},{"rt":236.40000000596046,"stimulus":"[A] option 1, [L] option 2, [G] neither","key_press":65,"name":"choice","trial_type":"html-keyboard-response","trial_index":87,"time_elapsed":165856,"internal_node_id":"0.0-87.0","subject":"S1C1228","sona":"41642","block":6,"time":"2021-09-17T19:22:23.172Z","response":"1st","certainty":"high","char":"A","transposition":1,"order":["shifted","swapped"],"probe_pitches":[7,2,7,0,2,0,9,-3,5,-3,2,-3],"shifted_pitches":[7,2,7,0,2,1,9,-3,5,-3,2,-3],"swapped_pitches":[7,2,7,0,2,9,0,-3,5,-3,2,-3],"shift_direction":1,"question_num":71,"has_decoy":false},{"rt":842.7999999821186,"stimulus":"[A] option 1, [L] option 2, [G] neither","key_press":65,"name":"choice","trial_type":"html-keyboard-response","trial_index":98,"time_elapsed":185193,"internal_node_id":"0.0-98.0","subject":"S1C1228","sona":"41642","block":6,"time":"2021-09-17T19:22:23.172Z","response":"1st","certainty":"high","char":"A","transposition":-3,"order":["shifted","swapped"],"probe_pitches":[-3,2,-3,2,-3,2,-1,7,2,-3,4,-1],"shifted_pitches":[-3,2,-3,2,-3,1,-1,7,2,-3,4,-1],"swapped_pitches":[-3,2,-3,2,-3,-1,2,7,2,-3,4,-1],"shift_direction":-1,"question_num":81,"has_decoy":false},{"rt":1434.7999999821186,"stimulus":"[A] option 1, [L] option 2, [G] neither","key_press":76,"name":"choice","trial_type":"html-keyboard-response","trial_index":109,"time_elapsed":213955,"internal_node_id":"0.0-109.0","subject":"S1C1228","sona":"41642","block":6,"time":"2021-09-17T19:22:23.172Z","response":"2nd","certainty":"high","char":"L","transposition":-3,"order":["swapped","shifted"],"probe_pitches":[4,2,-3,-1,4,2,9,6,9,-1,4,2],"shifted_pitches":[4,2,-3,-1,4,2,10,6,9,-1,4,2],"swapped_pitches":[4,2,-3,-1,4,9,2,6,9,-1,4,2],"shift_direction":1,"question_num":91,"has_decoy":false},{"rt":1290.0999999940395,"stimulus":"[A] option 1, [L] option 2, [G] neither","key_press":65,"name":"choice","trial_type":"html-keyboard-response","trial_index":120,"time_elapsed":233661,"internal_node_id":"0.0-120.0","subject":"S1C1228","sona":"41642","block":6,"time":"2021-09-17T19:22:23.172Z","response":"1st","certainty":"high","char":"A","transposition":2,"order":["shifted","swapped"],"probe_pitches":[4,7,4,2,-3,7,9,4,7,0,7,4],"shifted_pitches":[4,7,4,2,-3,8,9,4,7,0,7,4],"swapped_pitches":[4,7,4,2,-3,9,7,4,7,0,7,4],"shift_direction":1,"question_num":101,"has_decoy":false},{"rt":618,"stimulus":"[A] option 1, [L] option 2, [G] neither","key_press":65,"name":"choice","trial_type":"html-keyboard-response","trial_index":131,"time_elapsed":253580,"internal_node_id":"0.0-131.0","subject":"S1C1228","sona":"41642","block":6,"time":"2021-09-17T19:22:23.172Z","response":"1st","certainty":"high","char":"A","transposition":-2,"order":["shifted","swapped"],"probe_pitches":[11,14,12,13,14,11,9,12,5,11,5,14],"shifted_pitches":[11,14,12,13,14,10,9,12,5,11,5,14],"swapped_pitches":[11,14,12,13,14,9,11,12,5,11,5,14],"shift_direction":-1,"question_num":111,"has_decoy":false},{"rt":2833.300000011921,"stimulus":"[A] option 1, [L] option 2, [G] neither","key_press":76,"name":"choice","trial_type":"html-keyboard-response","trial_index":142,"time_elapsed":274675,"internal_node_id":"0.0-142.0","subject":"S1C1228","sona":"41642","block":6,"time":"2021-09-17T19:22:23.172Z","response":"2nd","certainty":"high","char":"L","transposition":-2,"order":["swapped","shifted"],"probe_pitches":[-3,-1,1,6,-3,4,6,-3,9,-1,6,4],"shifted_pitches":[-3,-1,1,6,-3,4,5,-3,9,-1,6,4],"swapped_pitches":[-3,-1,1,6,-3,6,4,-3,9,-1,6,4],"shift_direction":-1,"question_num":121,"has_decoy":false},{"rt":1517,"stimulus":"[A] option 1, [L] option 2, [G] neither","key_press":65,"name":"choice","trial_type":"html-keyboard-response","trial_index":153,"time_elapsed":294377,"internal_node_id":"0.0-153.0","subject":"S1C1228","sona":"41642","block":6,"time":"2021-09-17T19:22:23.172Z","response":"1st","certainty":"high","char":"A","transposition":-2,"order":["shifted","swapped"],"probe_pitches":[2,7,2,-3,5,2,0,5,9,-3,5,7],"shifted_pitches":[2,7,2,-3,5,2,-1,5,9,-3,5,7],"swapped_pitches":[2,7,2,-3,5,0,2,5,9,-3,5,7],"shift_direction":-1,"question_num":131,"has_decoy":false},{"rt":294.80000001192093,"stimulus":"[A] option 1, [L] option 2, [G] neither","key_press":65,"name":"choice","trial_type":"html-keyboard-response","trial_index":164,"time_elapsed":316594,"internal_node_id":"0.0-164.0","subject":"S1C1228","sona":"41642","block":6,"time":"2021-09-17T19:22:23.172Z","response":"1st","certainty":"high","char":"A","transposition":3,"order":["shifted","swapped"],"probe_pitches":[7,9,11,5,2,6,7,2,5,6,5,7],"shifted_pitches":[7,9,11,5,2,6,8,2,5,6,5,7],"swapped_pitches":[7,9,11,5,2,7,6,2,5,6,5,7],"shift_direction":1,"question_num":141,"has_decoy":false},{"rt":791,"stimulus":"[A] option 1, [L] option 2, [G] neither","key_press":65,"name":"choice","trial_type":"html-keyboard-response","trial_index":175,"time_elapsed":338925,"internal_node_id":"0.0-175.0","subject":"S1C1228","sona":"41642","block":6,"time":"2021-09-17T19:22:23.172Z","response":"1st","certainty":"high","char":"A","transposition":-1,"order":["swapped","shifted"],"probe_pitches":[3,2,6,13,14,10,4,14,5,7,2,6],"shifted_pitches":[3,2,6,13,14,9,4,14,5,7,2,6],"swapped_pitches":[3,2,6,13,14,4,10,14,5,7,2,6],"shift_direction":-1,"question_num":151,"has_decoy":false},{"rt":681,"stimulus":"[A] option 1, [L] option 2, [G] neither","key_press":76,"name":"choice","trial_type":"html-keyboard-response","trial_index":186,"time_elapsed":358313,"internal_node_id":"0.0-186.0","subject":"S1C1228","sona":"41642","block":6,"time":"2021-09-17T19:22:23.172Z","response":"2nd","certainty":"high","char":"L","transposition":0,"order":["swapped","shifted"],"probe_pitches":[9,7,4,-1,2,4,-1,7,-3,9,-3,-1],"shifted_pitches":[9,7,4,-1,2,4,-2,7,-3,9,-3,-1],"swapped_pitches":[9,7,4,-1,2,-1,4,7,-3,9,-3,-1],"shift_direction":-1,"question_num":161,"has_decoy":false},{"rt":466,"stimulus":"[A] option 1, [L] option 2, [G] neither","key_press":76,"name":"choice","trial_type":"html-keyboard-response","trial_index":197,"time_elapsed":377297,"internal_node_id":"0.0-197.0","subject":"S1C1228","sona":"41642","block":6,"time":"2021-09-17T19:22:23.172Z","response":"2nd","certainty":"high","char":"L","transposition":-1,"order":["swapped","shifted"],"probe_pitches":[7,11,5,12,9,12,8,5,9,6,14,7],"shifted_pitches":[7,11,5,12,9,13,8,5,9,6,14,7],"swapped_pitches":[7,11,5,12,9,8,12,5,9,6,14,7],"shift_direction":1,"question_num":171,"has_decoy":false},{"rt":129.09999999403954,"stimulus":"[A] option 1, [L] option 2, [G] neither","key_press":76,"name":"choice","trial_type":"html-keyboard-response","trial_index":208,"time_elapsed":400437,"internal_node_id":"0.0-208.0","subject":"S1C1228","sona":"41642","block":6,"time":"2021-09-17T19:22:23.172Z","response":"2nd","certainty":"high","char":"L","transposition":0,"order":["shifted","swapped"],"probe_pitches":[13,10,9,11,4,5,6,13,3,12,14,9],"shifted_pitches":[13,10,9,11,4,5,7,13,3,12,14,9],"swapped_pitches":[13,10,9,11,4,6,5,13,3,12,14,9],"shift_direction":1,"question_num":181,"has_decoy":false},{"rt":868.1999999880791,"stimulus":"[A] option 1, [L] option 2, [G] neither","key_press":65,"name":"choice","trial_type":"html-keyboard-response","trial_index":219,"time_elapsed":422664,"internal_node_id":"0.0-219.0","subject":"S1C1228","sona":"41642","block":6,"time":"2021-09-17T19:22:23.172Z","response":"1st","certainty":"high","char":"A","transposition":2,"order":["shifted","swapped"],"probe_pitches":[10,5,8,11,2,9,13,14,11,9,2,4],"shifted_pitches":[10,5,8,11,2,9,12,14,11,9,2,4],"swapped_pitches":[10,5,8,11,2,13,9,14,11,9,2,4],"shift_direction":-1,"question_num":191,"has_decoy":false}]