[{"rt":8711.90000000596,"stimulus":"[A] option 1, [L] option 2, [G] neither","key_press":76,"name":"choice","trial_type":"html-keyboard-response","trial_index":15,"time_elapsed":93936,"internal_node_id":"0.0-15.0","response":"2nd","certainty":"high","char":"L","transposition":-1,"order":["swapped","shifted"],"probe_pitches":[2,6,10,11,5,10,-1,11,7,-1,3,0],"shifted_pitches":[2,6,10,11,5,9,-1,11,7,-1,3,0],"swapped_pitches":[2,6,10,11,5,-1,10,11,7,-1,3,0],"shift_direction":-1,"question_num":1,"has_decoy":false,"subject":"S1C1228","sona":"41642","block":1,"time":"2021-09-17T18:28:35.800Z"},{"rt":1760.5999999940395,"stimulus":"[A] option 1, [L] option 2, [G] neither","key_press":76,"name":"choice","trial_type":"html-keyboard-response","trial_index":26,"time_elapsed":136343,"internal_node_id":"0.0-26.0","response":"2nd","certainty":"high","char":"L","transposition":3,"order":["shifted","swapped"],"probe_pitches":[0,3,6,10,5,11,7,4,6,0,1,4],"shifted_pitches":[0,3,6,10,5,11,8,4,6,0,1,4],"swapped_pitches":[0,3,6,10,5,7,11,4,6,0,1,4],"shift_direction":1,"question_num":11,"has_decoy":false,"subject":"S1C1228","sona":"41642","block":1,"time":"2021-09-17T18:28:35.800Z"},{"rt":672.2000000178814,"stimulus":"[A] option 1, [L] option 2, [G] neither","key_press":76,"name":"choice","trial_type":"html-keyboard-response","trial_index":37,"time_elapsed":156475,"internal_node_id":"0.0-37.0","response":"2nd","certainty":"high","char":"L","transposition":0,"order":["swapped","shifted"],"probe_pitches":[5,2,5,12,14,10,7,2,12,5,2,7],"shifted_pitches":[5,2,5,12,14,9,7,2,12,5,2,7],"swapped_pitches":[5,2,5,12,14,7,10,2,12,5,2,7],"shift_direction":-1,"question_num":21,"has_decoy":false,"subject":"S1C1228","sona":"41642","block":1,"time":"2021-09-17T18:28:35.800Z"},{"rt":348.7999999821186,"stimulus":"[A] option 1, [L] option 2, [G] neither","key_press":76,"name":"choice","trial_type":"html-keyboard-response","trial_index":48,"time_elapsed":176529,"internal_node_id":"0.0-48.0","response":"2nd","certainty":"high","char":"L","transposition":1,"order":["swapped","shifted"],"probe_pitches":[4,9,14,12,7,4,14,7,2,12,14,2],"shifted_pitches":[4,9,14,12,7,4,15,7,2,12,14,2],"swapped_pitches":[4,9,14,12,7,14,4,7,2,12,14,2],"shift_direction":1,"question_num":31,"has_decoy":false,"subject":"S1C1228","sona":"41642","block":1,"time":"2021-09-17T18:28:35.800Z"},{"rt":1009,"stimulus":"[A] option 1, [L] option 2, [G] neither","key_press":65,"name":"choice","trial_type":"html-keyboard-response","trial_index":59,"time_elapsed":196970,"internal_node_id":"0.0-59.0","response":"1st","certainty":"high","char":"A","transposition":0,"order":["swapped","shifted"],"probe_pitches":[8,9,2,7,5,-1,2,0,8,7,10,-1],"shifted_pitches":[8,9,2,7,5,-1,3,0,8,7,10,-1],"swapped_pitches":[8,9,2,7,5,2,-1,0,8,7,10,-1],"shift_direction":1,"question_num":41,"has_decoy":false,"subject":"S1C1228","sona":"41642","block":1,"time":"2021-09-17T18:28:35.800Z"},{"rt":575.7000000178814,"stimulus":"[A] option 1, [L] option 2, [G] neither","key_press":65,"name":"choice","trial_type":"html-keyboard-response","trial_index":70,"time_elapsed":216826,"internal_node_id":"0.0-70.0","response":"1st","certainty":"high","char":"A","transposition":-1,"order":["shifted","swapped"],"probe_pitches":[4,7,9,11,14,11,4,9,14,4,2,7],"shifted_pitches":[4,7,9,11,14,12,4,9,14,4,2,7],"swapped_pitches":[4,7,9,11,14,4,11,9,14,4,2,7],"shift_direction":1,"question_num":51,"has_decoy":false,"subject":"S1C1228","sona":"41642","block":1,"time":"2021-09-17T18:28:35.800Z"},{"rt":538.4000000059605,"stimulus":"[A] option 1, [L] option 2, [G] neither","key_press":76,"name":"choice","trial_type":"html-keyboard-response","trial_index":81,"time_elapsed":238482,"internal_node_id":"0.0-81.0","response":"2nd","certainty":"high","char":"L","transposition":1,"order":["swapped","shifted"],"probe_pitches":[11,8,1,8,7,11,3,4,8,11,1,8],"shifted_pitches":[11,8,1,8,7,11,2,4,8,11,1,8],"swapped_pitches":[11,8,1,8,7,3,11,4,8,11,1,8],"shift_direction":-1,"question_num":61,"has_decoy":false,"subject":"S1C1228","sona":"41642","block":1,"time":"2021-09-17T18:28:35.800Z"},{"rt":2079.4000000059605,"stimulus":"[A] option 1, [L] option 2, [G] neither","key_press":71,"name":"choice","trial_type":"html-keyboard-response","trial_index":92,"time_elapsed":260086,"internal_node_id":"0.0-92.0","response":"neither","certainty":"high","char":"G","transposition":2,"order":["shifted","swapped"],"probe_pitches":[-1,0,7,3,0,7,3,0,10,1,11,0],"shifted_pitches":[-1,0,7,3,0,6,3,0,10,1,11,0],"swapped_pitches":[-1,0,7,3,0,3,7,0,10,1,11,0],"shift_direction":-1,"question_num":71,"has_decoy":false,"subject":"S1C1228","sona":"41642","block":1,"time":"2021-09-17T18:28:35.800Z"},{"rt":2413.800000011921,"stimulus":"[A] option 1, [L] option 2, [G] neither","key_press":65,"name":"choice","trial_type":"html-keyboard-response","trial_index":103,"time_elapsed":282207,"internal_node_id":"0.0-103.0","response":"1st","certainty":"high","char":"A","transposition":-1,"order":["shifted","swapped"],"probe_pitches":[9,4,9,12,9,12,4,2,4,9,7,9],"shifted_pitches":[9,4,9,12,9,11,4,2,4,9,7,9],"swapped_pitches":[9,4,9,12,9,4,12,2,4,9,7,9],"shift_direction":-1,"question_num":81,"has_decoy":false,"subject":"S1C1228","sona":"41642","block":1,"time":"2021-09-17T18:28:35.800Z"},{"rt":1621.699999988079,"stimulus":"[A] option 1, [L] option 2, [G] neither","key_press":76,"name":"choice","trial_type":"html-keyboard-response","trial_index":114,"time_elapsed":303051,"internal_node_id":"0.0-114.0","response":"2nd","certainty":"high","char":"L","transposition":-2,"order":["shifted","swapped"],"probe_pitches":[-1,0,2,-1,0,9,1,3,1,0,4,3],"shifted_pitches":[-1,0,2,-1,0,10,1,3,1,0,4,3],"swapped_pitches":[-1,0,2,-1,0,1,9,3,1,0,4,3],"shift_direction":1,"question_num":91,"has_decoy":false,"subject":"S1C1228","sona":"41642","block":1,"time":"2021-09-17T18:28:35.800Z"},{"rt":658.5,"stimulus":"[A] option 1, [L] option 2, [G] neither","key_press":76,"name":"choice","trial_type":"html-keyboard-response","trial_index":125,"time_elapsed":322754,"internal_node_id":"0.0-125.0","response":"2nd","certainty":"high","char":"L","transposition":-3,"order":["swapped","shifted"],"probe_pitches":[6,2,4,11,2,9,4,11,14,6,9,14],"shifted_pitches":[6,2,4,11,2,9,5,11,14,6,9,14],"swapped_pitches":[6,2,4,11,2,4,9,11,14,6,9,14],"shift_direction":1,"question_num":101,"has_decoy":false,"subject":"S1C1228","sona":"41642","block":1,"time":"2021-09-17T18:28:35.800Z"},{"rt":4469.399999976158,"stimulus":"[A] option 1, [L] option 2, [G] neither","key_press":71,"name":"choice","trial_type":"html-keyboard-response","trial_index":136,"time_elapsed":346969,"internal_node_id":"0.0-136.0","response":"neither","certainty":"high","char":"G","transposition":-1,"order":["shifted","swapped"],"probe_pitches":[5,8,4,2,10,8,1,6,10,5,9,0],"shifted_pitches":[5,8,4,2,10,7,1,6,10,5,9,0],"swapped_pitches":[5,8,4,2,10,1,8,6,10,5,9,0],"shift_direction":-1,"question_num":111,"has_decoy":false,"subject":"S1C1228","sona":"41642","block":1,"time":"2021-09-17T18:28:35.800Z"},{"rt":326.30000001192093,"stimulus":"[A] option 1, [L] option 2, [G] neither","key_press":76,"name":"choice","trial_type":"html-keyboard-response","trial_index":147,"time_elapsed":366698,"internal_node_id":"0.0-147.0","response":"2nd","certainty":"high","char":"L","transposition":-3,"order":["shifted","swapped"],"probe_pitches":[10,7,8,1,9,5,3,7,3,10,11,9],"shifted_pitches":[10,7,8,1,9,5,4,7,3,10,11,9],"swapped_pitches":[10,7,8,1,9,3,5,7,3,10,11,9],"shift_direction":1,"question_num":121,"has_decoy":false,"subject":"S1C1228","sona":"41642","block":1,"time":"2021-09-17T18:28:35.800Z"},{"rt":4818.200000017881,"stimulus":"[A] option 1, [L] option 2, [G] neither","key_press":71,"name":"choice","trial_type":"html-keyboard-response","trial_index":158,"time_elapsed":390853,"internal_node_id":"0.0-158.0","response":"neither","certainty":"high","char":"G","transposition":-2,"order":["swapped","shifted"],"probe_pitches":[4,9,2,7,4,14,7,4,9,4,7,11],"shifted_pitches":[4,9,2,7,4,14,6,4,9,4,7,11],"swapped_pitches":[4,9,2,7,4,7,14,4,9,4,7,11],"shift_direction":-1,"question_num":131,"has_decoy":false,"subject":"S1C1228","sona":"41642","block":1,"time":"2021-09-17T18:28:35.800Z"},{"rt":754.7999999821186,"stimulus":"[A] option 1, [L] option 2, [G] neither","key_press":76,"name":"choice","trial_type":"html-keyboard-response","trial_index":169,"time_elapsed":410512,"internal_node_id":"0.0-169.0","response":"2nd","certainty":"high","char":"L","transposition":-3,"order":["swapped","shifted"],"probe_pitches":[7,6,8,4,5,10,2,5,3,2,10,2],"shifted_pitches":[7,6,8,4,5,10,1,5,3,2,10,2],"swapped_pitches":[7,6,8,4,5,2,10,5,3,2,10,2],"shift_direction":-1,"question_num":141,"has_decoy":false,"subject":"S1C1228","sona":"41642","block":1,"time":"2021-09-17T18:28:35.800Z"},{"rt":333.09999999403954,"stimulus":"[A] option 1, [L] option 2, [G] neither","key_press":76,"name":"choice","trial_type":"html-keyboard-response","trial_index":180,"time_elapsed":429209,"internal_node_id":"0.0-180.0","response":"2nd","certainty":"high","char":"L","transposition":-2,"order":["shifted","swapped"],"probe_pitches":[2,7,12,7,5,12,14,10,5,10,2,12],"shifted_pitches":[2,7,12,7,5,12,15,10,5,10,2,12],"swapped_pitches":[2,7,12,7,5,14,12,10,5,10,2,12],"shift_direction":1,"question_num":151,"has_decoy":false,"subject":"S1C1228","sona":"41642","block":1,"time":"2021-09-17T18:28:35.800Z"},{"rt":343.7000000178814,"stimulus":"[A] option 1, [L] option 2, [G] neither","key_press":65,"name":"choice","trial_type":"html-keyboard-response","trial_index":191,"time_elapsed":448307,"internal_node_id":"0.0-191.0","response":"1st","certainty":"high","char":"A","transposition":-2,"order":["swapped","shifted"],"probe_pitches":[9,10,8,4,8,4,6,11,2,3,-1,10],"shifted_pitches":[9,10,8,4,8,5,6,11,2,3,-1,10],"swapped_pitches":[9,10,8,4,8,6,4,11,2,3,-1,10],"shift_direction":1,"question_num":161,"has_decoy":false,"subject":"S1C1228","sona":"41642","block":1,"time":"2021-09-17T18:28:35.800Z"},{"rt":258,"stimulus":"[A] option 1, [L] option 2, [G] neither","key_press":76,"name":"choice","trial_type":"html-keyboard-response","trial_index":202,"time_elapsed":467404,"internal_node_id":"0.0-202.0","response":"2nd","certainty":"high","char":"L","transposition":-3,"order":["swapped","shifted"],"probe_pitches":[5,7,12,7,14,5,2,9,5,2,5,12],"shifted_pitches":[5,7,12,7,14,4,2,9,5,2,5,12],"swapped_pitches":[5,7,12,7,14,2,5,9,5,2,5,12],"shift_direction":-1,"question_num":171,"has_decoy":false,"subject":"S1C1228","sona":"41642","block":1,"time":"2021-09-17T18:28:35.800Z"},{"rt":2307.9000000059605,"stimulus":"[A] option 1, [L] option 2, [G] neither","key_press":76,"name":"choice","trial_type":"html-keyboard-response","trial_index":213,"time_elapsed":488008,"internal_node_id":"0.0-213.0","response":"2nd","certainty":"high","char":"L","transposition":2,"order":["shifted","swapped"],"probe_pitches":[7,2,7,14,9,14,12,9,14,5,7,9],"shifted_pitches":[7,2,7,14,9,13,12,9,14,5,7,9],"swapped_pitches":[7,2,7,14,9,12,14,9,14,5,7,9],"shift_direction":-1,"question_num":181,"has_decoy":false,"subject":"S1C1228","sona":"41642","block":1,"time":"2021-09-17T18:28:35.800Z"},{"rt":500.39999997615814,"stimulus":"[A] option 1, [L] option 2, [G] neither","key_press":65,"name":"choice","trial_type":"html-keyboard-response","trial_index":224,"time_elapsed":507432,"internal_node_id":"0.0-224.0","response":"1st","certainty":"high","char":"A","transposition":3,"order":["shifted","swapped"],"probe_pitches":[14,11,4,2,6,14,4,6,11,4,6,9],"shifted_pitches":[14,11,4,2,6,14,5,6,11,4,6,9],"swapped_pitches":[14,11,4,2,6,4,14,6,11,4,6,9],"shift_direction":1,"question_num":191,"has_decoy":false,"subject":"S1C1228","sona":"41642","block":1,"time":"2021-09-17T18:28:35.800Z"}]