[{"rt":361.39999997615814,"stimulus":"[A] option 1, [L] option 2, [G] neither","key_press":65,"name":"choice","trial_type":"html-keyboard-response","trial_index":10,"time_elapsed":24908,"internal_node_id":"0.0-10.0","subject":"S1C1228","sona":"41642","block":4,"time":"2021-09-17T19:05:59.424Z","response":"1st","certainty":"high","char":"A","transposition":2,"order":["shifted","swapped"],"probe_pitches":[-1,1,7,5,7,5,3,2,8,-1,2,9],"shifted_pitches":[-1,1,7,5,7,6,3,2,8,-1,2,9],"swapped_pitches":[-1,1,7,5,7,3,5,2,8,-1,2,9],"shift_direction":1,"question_num":1,"has_decoy":false},{"rt":1602.5999999940395,"stimulus":"[A] option 1, [L] option 2, [G] neither","key_press":71,"name":"choice","trial_type":"html-keyboard-response","trial_index":21,"time_elapsed":44831,"internal_node_id":"0.0-21.0","subject":"S1C1228","sona":"41642","block":4,"time":"2021-09-17T19:05:59.424Z","response":"neither","certainty":"high","char":"G","transposition":-2,"order":["shifted","swapped"],"probe_pitches":[4,-1,-3,4,6,-3,1,-1,1,4,1,9],"shifted_pitches":[4,-1,-3,4,6,-3,2,-1,1,4,1,9],"swapped_pitches":[4,-1,-3,4,6,1,-3,-1,1,4,1,9],"shift_direction":1,"question_num":11,"has_decoy":false},{"rt":291.69999998807907,"stimulus":"[A] option 1, [L] option 2, [G] neither","key_press":76,"name":"choice","trial_type":"html-keyboard-response","trial_index":32,"time_elapsed":64021,"internal_node_id":"0.0-32.0","subject":"S1C1228","sona":"41642","block":4,"time":"2021-09-17T19:05:59.424Z","response":"2nd","certainty":"high","char":"L","transposition":-2,"order":["shifted","swapped"],"probe_pitches":[6,7,0,-1,8,10,6,-1,6,9,2,3],"shifted_pitches":[6,7,0,-1,8,10,5,-1,6,9,2,3],"swapped_pitches":[6,7,0,-1,8,6,10,-1,6,9,2,3],"shift_direction":-1,"question_num":21,"has_decoy":false},{"rt":1331.5999999940395,"stimulus":"[A] option 1, [L] option 2, [G] neither","key_press":65,"name":"choice","trial_type":"html-keyboard-response","trial_index":43,"time_elapsed":84036,"internal_node_id":"0.0-43.0","subject":"S1C1228","sona":"41642","block":4,"time":"2021-09-17T19:05:59.424Z","response":"1st","certainty":"high","char":"A","transposition":2,"order":["shifted","swapped"],"probe_pitches":[0,4,-3,4,9,0,2,7,4,7,9,7],"shifted_pitches":[0,4,-3,4,9,1,2,7,4,7,9,7],"swapped_pitches":[0,4,-3,4,9,2,0,7,4,7,9,7],"shift_direction":1,"question_num":31,"has_decoy":false},{"rt":360.30000001192093,"stimulus":"[A] option 1, [L] option 2, [G] neither","key_press":76,"name":"choice","trial_type":"html-keyboard-response","trial_index":54,"time_elapsed":106025,"internal_node_id":"0.0-54.0","subject":"S1C1228","sona":"41642","block":4,"time":"2021-09-17T19:05:59.424Z","response":"2nd","certainty":"high","char":"L","transposition":0,"order":["swapped","shifted"],"probe_pitches":[-3,-1,4,-1,-3,4,-1,6,-3,9,2,6],"shifted_pitches":[-3,-1,4,-1,-3,4,0,6,-3,9,2,6],"swapped_pitches":[-3,-1,4,-1,-3,-1,4,6,-3,9,2,6],"shift_direction":1,"question_num":41,"has_decoy":false},{"rt":7759,"stimulus":"[A] option 1, [L] option 2, [G] neither","key_press":76,"name":"choice","trial_type":"html-keyboard-response","trial_index":65,"time_elapsed":186820,"internal_node_id":"0.0-65.0","subject":"S1C1228","sona":"41642","block":4,"time":"2021-09-17T19:05:59.424Z","response":"2nd","certainty":"high","char":"L","transposition":3,"order":["shifted","swapped"],"probe_pitches":[6,10,4,5,0,7,4,5,0,7,5,10],"shifted_pitches":[6,10,4,5,0,8,4,5,0,7,5,10],"swapped_pitches":[6,10,4,5,0,4,7,5,0,7,5,10],"shift_direction":1,"question_num":51,"has_decoy":false},{"rt":3935.300000011921,"stimulus":"[A] option 1, [L] option 2, [G] neither","key_press":76,"name":"choice","trial_type":"html-keyboard-response","trial_index":76,"time_elapsed":209434,"internal_node_id":"0.0-76.0","subject":"S1C1228","sona":"41642","block":4,"time":"2021-09-17T19:05:59.424Z","response":"2nd","certainty":"high","char":"L","transposition":-3,"order":["swapped","shifted"],"probe_pitches":[7,8,4,0,1,0,8,10,4,10,2,7],"shifted_pitches":[7,8,4,0,1,0,9,10,4,10,2,7],"swapped_pitches":[7,8,4,0,1,8,0,10,4,10,2,7],"shift_direction":1,"question_num":61,"has_decoy":false},{"rt":998.4000000059605,"stimulus":"[A] option 1, [L] option 2, [G] neither","key_press":65,"name":"choice","trial_type":"html-keyboard-response","trial_index":87,"time_elapsed":229770,"internal_node_id":"0.0-87.0","subject":"S1C1228","sona":"41642","block":4,"time":"2021-09-17T19:05:59.424Z","response":"1st","certainty":"high","char":"A","transposition":0,"order":["swapped","shifted"],"probe_pitches":[0,-2,-1,7,9,5,2,-2,8,1,9,6],"shifted_pitches":[0,-2,-1,7,9,4,2,-2,8,1,9,6],"swapped_pitches":[0,-2,-1,7,9,2,5,-2,8,1,9,6],"shift_direction":-1,"question_num":71,"has_decoy":false},{"rt":311.5,"stimulus":"[A] option 1, [L] option 2, [G] neither","key_press":76,"name":"choice","trial_type":"html-keyboard-response","trial_index":98,"time_elapsed":248710,"internal_node_id":"0.0-98.0","subject":"S1C1228","sona":"41642","block":4,"time":"2021-09-17T19:05:59.424Z","response":"2nd","certainty":"high","char":"L","transposition":-3,"order":["swapped","shifted"],"probe_pitches":[4,8,1,-2,5,3,4,1,5,-1,3,4],"shifted_pitches":[4,8,1,-2,5,2,4,1,5,-1,3,4],"swapped_pitches":[4,8,1,-2,5,4,3,1,5,-1,3,4],"shift_direction":-1,"question_num":81,"has_decoy":false},{"rt":358.40000000596046,"stimulus":"[A] option 1, [L] option 2, [G] neither","key_press":76,"name":"choice","trial_type":"html-keyboard-response","trial_index":109,"time_elapsed":267556,"internal_node_id":"0.0-109.0","subject":"S1C1228","sona":"41642","block":4,"time":"2021-09-17T19:05:59.424Z","response":"2nd","certainty":"high","char":"L","transposition":-1,"order":["shifted","swapped"],"probe_pitches":[9,3,2,9,8,-2,1,8,-1,10,5,2],"shifted_pitches":[9,3,2,9,8,-2,0,8,-1,10,5,2],"swapped_pitches":[9,3,2,9,8,1,-2,8,-1,10,5,2],"shift_direction":-1,"question_num":91,"has_decoy":false},{"rt":6032.699999988079,"stimulus":"[A] option 1, [L] option 2, [G] neither","key_press":76,"name":"choice","trial_type":"html-keyboard-response","trial_index":120,"time_elapsed":367916,"internal_node_id":"0.0-120.0","subject":"S1C1228","sona":"41642","block":4,"time":"2021-09-17T19:05:59.424Z","response":"2nd","certainty":"high","char":"L","transposition":-3,"order":["shifted","swapped"],"probe_pitches":[2,0,7,0,9,5,0,2,-3,7,2,9],"shifted_pitches":[2,0,7,0,9,4,0,2,-3,7,2,9],"swapped_pitches":[2,0,7,0,9,0,5,2,-3,7,2,9],"shift_direction":-1,"question_num":101,"has_decoy":false},{"rt":5773.799999982119,"stimulus":"[A] option 1, [L] option 2, [G] neither","key_press":76,"name":"choice","trial_type":"html-keyboard-response","trial_index":131,"time_elapsed":398458,"internal_node_id":"0.0-131.0","subject":"S1C1228","sona":"41642","block":4,"time":"2021-09-17T19:05:59.424Z","response":"2nd","certainty":"high","char":"L","transposition":-1,"order":["swapped","shifted"],"probe_pitches":[4,7,2,4,-3,2,4,-1,7,2,4,7],"shifted_pitches":[4,7,2,4,-3,2,5,-1,7,2,4,7],"swapped_pitches":[4,7,2,4,-3,4,2,-1,7,2,4,7],"shift_direction":1,"question_num":111,"has_decoy":false},{"rt":669.4000000059605,"stimulus":"[A] option 1, [L] option 2, [G] neither","key_press":65,"name":"choice","trial_type":"html-keyboard-response","trial_index":142,"time_elapsed":417902,"internal_node_id":"0.0-142.0","subject":"S1C1228","sona":"41642","block":4,"time":"2021-09-17T19:05:59.424Z","response":"1st","certainty":"high","char":"A","transposition":1,"order":["shifted","swapped"],"probe_pitches":[-2,-1,4,7,10,0,-1,6,10,9,3,8],"shifted_pitches":[-2,-1,4,7,10,1,-1,6,10,9,3,8],"swapped_pitches":[-2,-1,4,7,10,-1,0,6,10,9,3,8],"shift_direction":1,"question_num":121,"has_decoy":false},{"rt":640.9000000059605,"stimulus":"[A] option 1, [L] option 2, [G] neither","key_press":76,"name":"choice","trial_type":"html-keyboard-response","trial_index":153,"time_elapsed":444305,"internal_node_id":"0.0-153.0","subject":"S1C1228","sona":"41642","block":4,"time":"2021-09-17T19:05:59.424Z","response":"2nd","certainty":"high","char":"L","transposition":-2,"order":["swapped","shifted"],"probe_pitches":[2,0,2,7,2,4,9,0,4,0,4,2],"shifted_pitches":[2,0,2,7,2,4,8,0,4,0,4,2],"swapped_pitches":[2,0,2,7,2,9,4,0,4,0,4,2],"shift_direction":-1,"question_num":131,"has_decoy":false},{"rt":862,"stimulus":"[A] option 1, [L] option 2, [G] neither","key_press":76,"name":"choice","trial_type":"html-keyboard-response","trial_index":164,"time_elapsed":463416,"internal_node_id":"0.0-164.0","subject":"S1C1228","sona":"41642","block":4,"time":"2021-09-17T19:05:59.424Z","response":"2nd","certainty":"high","char":"L","transposition":-2,"order":["swapped","shifted"],"probe_pitches":[6,9,4,8,3,6,8,-1,3,8,6,-1],"shifted_pitches":[6,9,4,8,3,6,7,-1,3,8,6,-1],"swapped_pitches":[6,9,4,8,3,8,6,-1,3,8,6,-1],"shift_direction":-1,"question_num":141,"has_decoy":false},{"rt":979.8000000119209,"stimulus":"[A] option 1, [L] option 2, [G] neither","key_press":65,"name":"choice","trial_type":"html-keyboard-response","trial_index":175,"time_elapsed":490291,"internal_node_id":"0.0-175.0","subject":"S1C1228","sona":"41642","block":4,"time":"2021-09-17T19:05:59.424Z","response":"1st","certainty":"high","char":"A","transposition":3,"order":["shifted","swapped"],"probe_pitches":[-3,2,6,9,4,2,9,6,-3,9,2,-1],"shifted_pitches":[-3,2,6,9,4,2,8,6,-3,9,2,-1],"swapped_pitches":[-3,2,6,9,4,9,2,6,-3,9,2,-1],"shift_direction":-1,"question_num":151,"has_decoy":false},{"rt":2324.800000011921,"stimulus":"[A] option 1, [L] option 2, [G] neither","key_press":76,"name":"choice","trial_type":"html-keyboard-response","trial_index":186,"time_elapsed":511315,"internal_node_id":"0.0-186.0","subject":"S1C1228","sona":"41642","block":4,"time":"2021-09-17T19:05:59.424Z","response":"2nd","certainty":"high","char":"L","transposition":-3,"order":["swapped","shifted"],"probe_pitches":[5,2,-3,5,-3,7,0,5,0,5,-3,0],"shifted_pitches":[5,2,-3,5,-3,6,0,5,0,5,-3,0],"swapped_pitches":[5,2,-3,5,-3,0,7,5,0,5,-3,0],"shift_direction":-1,"question_num":161,"has_decoy":false},{"rt":409.59999999403954,"stimulus":"[A] option 1, [L] option 2, [G] neither","key_press":76,"name":"choice","trial_type":"html-keyboard-response","trial_index":197,"time_elapsed":611595,"internal_node_id":"0.0-197.0","subject":"S1C1228","sona":"41642","block":4,"time":"2021-09-17T19:05:59.424Z","response":"2nd","certainty":"high","char":"L","transposition":1,"order":["swapped","shifted"],"probe_pitches":[1,-3,4,6,9,-1,1,6,4,-1,-3,1],"shifted_pitches":[1,-3,4,6,9,-2,1,6,4,-1,-3,1],"swapped_pitches":[1,-3,4,6,9,1,-1,6,4,-1,-3,1],"shift_direction":-1,"question_num":171,"has_decoy":false},{"rt":2041.4000000059605,"stimulus":"[A] option 1, [L] option 2, [G] neither","key_press":65,"name":"choice","trial_type":"html-keyboard-response","trial_index":208,"time_elapsed":631957,"internal_node_id":"0.0-208.0","subject":"S1C1228","sona":"41642","block":4,"time":"2021-09-17T19:05:59.424Z","response":"1st","certainty":"high","char":"A","transposition":-1,"order":["shifted","swapped"],"probe_pitches":[9,4,7,2,-1,7,-3,-1,-3,9,4,7],"shifted_pitches":[9,4,7,2,-1,8,-3,-1,-3,9,4,7],"swapped_pitches":[9,4,7,2,-1,-3,7,-1,-3,9,4,7],"shift_direction":1,"question_num":181,"has_decoy":false},{"rt":4476.9000000059605,"stimulus":"[A] option 1, [L] option 2, [G] neither","key_press":65,"name":"choice","trial_type":"html-keyboard-response","trial_index":219,"time_elapsed":654877,"internal_node_id":"0.0-219.0","subject":"S1C1228","sona":"41642","block":4,"time":"2021-09-17T19:05:59.424Z","response":"1st","certainty":"high","char":"A","transposition":-1,"order":["swapped","shifted"],"probe_pitches":[8,2,8,2,0,5,2,8,7,5,1,6],"shifted_pitches":[8,2,8,2,0,5,3,8,7,5,1,6],"swapped_pitches":[8,2,8,2,0,2,5,8,7,5,1,6],"shift_direction":1,"question_num":191,"has_decoy":false}]