[{"rt":1745.7000000178814,"stimulus":"[A] option 1, [L] option 2, [G] neither","key_press":65,"name":"choice","trial_type":"html-keyboard-response","trial_index":10,"time_elapsed":26474,"internal_node_id":"0.0-10.0","subject":"S1C1228","sona":"41642","block":3,"time":"2021-09-17T18:52:51.362Z","response":"1st","certainty":"high","char":"A","transposition":-3,"order":["swapped","shifted"],"probe_pitches":[9,11,6,4,9,4,2,9,4,2,6,4],"shifted_pitches":[9,11,6,4,9,5,2,9,4,2,6,4],"swapped_pitches":[9,11,6,4,9,2,4,9,4,2,6,4],"shift_direction":1,"question_num":1,"has_decoy":false},{"rt":953.2000000178814,"stimulus":"[A] option 1, [L] option 2, [G] neither","key_press":76,"name":"choice","trial_type":"html-keyboard-response","trial_index":21,"time_elapsed":51567,"internal_node_id":"0.0-21.0","subject":"S1C1228","sona":"41642","block":3,"time":"2021-09-17T18:52:51.362Z","response":"2nd","certainty":"high","char":"L","transposition":-2,"order":["shifted","swapped"],"probe_pitches":[11,8,11,8,6,11,1,6,4,8,-1,8],"shifted_pitches":[11,8,11,8,6,11,0,6,4,8,-1,8],"swapped_pitches":[11,8,11,8,6,1,11,6,4,8,-1,8],"shift_direction":-1,"question_num":11,"has_decoy":false},{"rt":369.59999999403954,"stimulus":"[A] option 1, [L] option 2, [G] neither","key_press":65,"name":"choice","trial_type":"html-keyboard-response","trial_index":32,"time_elapsed":70349,"internal_node_id":"0.0-32.0","subject":"S1C1228","sona":"41642","block":3,"time":"2021-09-17T18:52:51.362Z","response":"1st","certainty":"high","char":"A","transposition":3,"order":["swapped","shifted"],"probe_pitches":[8,4,8,11,4,1,11,4,11,6,-1,4],"shifted_pitches":[8,4,8,11,4,0,11,4,11,6,-1,4],"swapped_pitches":[8,4,8,11,4,11,1,4,11,6,-1,4],"shift_direction":-1,"question_num":21,"has_decoy":false},{"rt":248.80000001192093,"stimulus":"[A] option 1, [L] option 2, [G] neither","key_press":76,"name":"choice","trial_type":"html-keyboard-response","trial_index":43,"time_elapsed":92830,"internal_node_id":"0.0-43.0","subject":"S1C1228","sona":"41642","block":3,"time":"2021-09-17T18:52:51.362Z","response":"2nd","certainty":"high","char":"L","transposition":-1,"order":["swapped","shifted"],"probe_pitches":[8,3,6,1,6,1,8,6,3,6,11,-1],"shifted_pitches":[8,3,6,1,6,2,8,6,3,6,11,-1],"swapped_pitches":[8,3,6,1,6,8,1,6,3,6,11,-1],"shift_direction":1,"question_num":31,"has_decoy":false},{"rt":303.90000000596046,"stimulus":"[A] option 1, [L] option 2, [G] neither","key_press":76,"name":"choice","trial_type":"html-keyboard-response","trial_index":54,"time_elapsed":111510,"internal_node_id":"0.0-54.0","subject":"S1C1228","sona":"41642","block":3,"time":"2021-09-17T18:52:51.362Z","response":"2nd","certainty":"high","char":"L","transposition":3,"order":["swapped","shifted"],"probe_pitches":[8,10,7,8,2,4,9,10,8,2,11,4],"shifted_pitches":[8,10,7,8,2,5,9,10,8,2,11,4],"swapped_pitches":[8,10,7,8,2,9,4,10,8,2,11,4],"shift_direction":1,"question_num":41,"has_decoy":false},{"rt":55.5,"stimulus":"[A] option 1, [L] option 2, [G] neither","key_press":76,"name":"choice","trial_type":"html-keyboard-response","trial_index":65,"time_elapsed":131473,"internal_node_id":"0.0-65.0","subject":"S1C1228","sona":"41642","block":3,"time":"2021-09-17T18:52:51.362Z","response":"2nd","certainty":"high","char":"L","transposition":-2,"order":["shifted","swapped"],"probe_pitches":[11,7,4,7,4,7,2,11,7,11,9,7],"shifted_pitches":[11,7,4,7,4,7,1,11,7,11,9,7],"swapped_pitches":[11,7,4,7,4,2,7,11,7,11,9,7],"shift_direction":-1,"question_num":51,"has_decoy":false},{"rt":202.59999999403954,"stimulus":"[A] option 1, [L] option 2, [G] neither","key_press":65,"name":"choice","trial_type":"html-keyboard-response","trial_index":76,"time_elapsed":150073,"internal_node_id":"0.0-76.0","subject":"S1C1228","sona":"41642","block":3,"time":"2021-09-17T18:52:51.362Z","response":"1st","certainty":"high","char":"A","transposition":-1,"order":["swapped","shifted"],"probe_pitches":[4,10,4,3,11,4,9,3,10,-1,5,2],"shifted_pitches":[4,10,4,3,11,4,8,3,10,-1,5,2],"swapped_pitches":[4,10,4,3,11,9,4,3,10,-1,5,2],"shift_direction":-1,"question_num":61,"has_decoy":false},{"rt":1282.5999999940395,"stimulus":"[A] option 1, [L] option 2, [G] neither","key_press":76,"name":"choice","trial_type":"html-keyboard-response","trial_index":87,"time_elapsed":169505,"internal_node_id":"0.0-87.0","subject":"S1C1228","sona":"41642","block":3,"time":"2021-09-17T18:52:51.362Z","response":"2nd","certainty":"high","char":"L","transposition":2,"order":["swapped","shifted"],"probe_pitches":[-1,2,-1,2,4,2,-1,11,-1,9,4,6],"shifted_pitches":[-1,2,-1,2,4,1,-1,11,-1,9,4,6],"swapped_pitches":[-1,2,-1,2,4,-1,2,11,-1,9,4,6],"shift_direction":-1,"question_num":71,"has_decoy":false},{"rt":2687.600000023842,"stimulus":"[A] option 1, [L] option 2, [G] neither","key_press":71,"name":"choice","trial_type":"html-keyboard-response","trial_index":98,"time_elapsed":191784,"internal_node_id":"0.0-98.0","subject":"S1C1228","sona":"41642","block":3,"time":"2021-09-17T18:52:51.362Z","response":"neither","certainty":"high","char":"G","transposition":1,"order":["shifted","swapped"],"probe_pitches":[9,3,1,0,8,2,7,10,5,10,3,1],"shifted_pitches":[9,3,1,0,8,2,6,10,5,10,3,1],"swapped_pitches":[9,3,1,0,8,7,2,10,5,10,3,1],"shift_direction":-1,"question_num":81,"has_decoy":false},{"rt":435.09999999403954,"stimulus":"[A] option 1, [L] option 2, [G] neither","key_press":76,"name":"choice","trial_type":"html-keyboard-response","trial_index":109,"time_elapsed":214229,"internal_node_id":"0.0-109.0","subject":"S1C1228","sona":"41642","block":3,"time":"2021-09-17T18:52:51.362Z","response":"2nd","certainty":"high","char":"L","transposition":1,"order":["swapped","shifted"],"probe_pitches":[9,11,9,7,11,4,2,11,-1,11,2,11],"shifted_pitches":[9,11,9,7,11,4,3,11,-1,11,2,11],"swapped_pitches":[9,11,9,7,11,2,4,11,-1,11,2,11],"shift_direction":1,"question_num":91,"has_decoy":false},{"rt":2128.2000000178814,"stimulus":"[A] option 1, [L] option 2, [G] neither","key_press":65,"name":"choice","trial_type":"html-keyboard-response","trial_index":120,"time_elapsed":237089,"internal_node_id":"0.0-120.0","subject":"S1C1228","sona":"41642","block":3,"time":"2021-09-17T18:52:51.362Z","response":"1st","certainty":"high","char":"A","transposition":-3,"order":["shifted","swapped"],"probe_pitches":[4,9,4,1,6,11,9,1,11,1,4,-1],"shifted_pitches":[4,9,4,1,6,12,9,1,11,1,4,-1],"swapped_pitches":[4,9,4,1,6,9,11,1,11,1,4,-1],"shift_direction":1,"question_num":101,"has_decoy":false},{"rt":513.3000000119209,"stimulus":"[A] option 1, [L] option 2, [G] neither","key_press":76,"name":"choice","trial_type":"html-keyboard-response","trial_index":131,"time_elapsed":258412,"internal_node_id":"0.0-131.0","subject":"S1C1228","sona":"41642","block":3,"time":"2021-09-17T18:52:51.362Z","response":"2nd","certainty":"high","char":"L","transposition":-1,"order":["shifted","swapped"],"probe_pitches":[5,11,6,8,0,8,5,6,3,7,2,11],"shifted_pitches":[5,11,6,8,0,9,5,6,3,7,2,11],"swapped_pitches":[5,11,6,8,0,5,8,6,3,7,2,11],"shift_direction":1,"question_num":111,"has_decoy":false},{"rt":762.3000000119209,"stimulus":"[A] option 1, [L] option 2, [G] neither","key_press":65,"name":"choice","trial_type":"html-keyboard-response","trial_index":142,"time_elapsed":284602,"internal_node_id":"0.0-142.0","subject":"S1C1228","sona":"41642","block":3,"time":"2021-09-17T18:52:51.362Z","response":"1st","certainty":"high","char":"A","transposition":0,"order":["shifted","swapped"],"probe_pitches":[1,-1,6,1,-1,1,3,8,3,8,3,6],"shifted_pitches":[1,-1,6,1,-1,1,2,8,3,8,3,6],"swapped_pitches":[1,-1,6,1,-1,3,1,8,3,8,3,6],"shift_direction":-1,"question_num":121,"has_decoy":false},{"rt":154.40000000596046,"stimulus":"[A] option 1, [L] option 2, [G] neither","key_press":65,"name":"choice","trial_type":"html-keyboard-response","trial_index":153,"time_elapsed":307652,"internal_node_id":"0.0-153.0","subject":"S1C1228","sona":"41642","block":3,"time":"2021-09-17T18:52:51.362Z","response":"1st","certainty":"high","char":"A","transposition":0,"order":["shifted","swapped"],"probe_pitches":[9,3,9,3,-1,1,5,10,5,8,5,0],"shifted_pitches":[9,3,9,3,-1,2,5,10,5,8,5,0],"swapped_pitches":[9,3,9,3,-1,5,1,10,5,8,5,0],"shift_direction":1,"question_num":131,"has_decoy":false},{"rt":3142.699999988079,"stimulus":"[A] option 1, [L] option 2, [G] neither","key_press":71,"name":"choice","trial_type":"html-keyboard-response","trial_index":164,"time_elapsed":330767,"internal_node_id":"0.0-164.0","subject":"S1C1228","sona":"41642","block":3,"time":"2021-09-17T18:52:51.362Z","response":"neither","certainty":"high","char":"G","transposition":2,"order":["shifted","swapped"],"probe_pitches":[10,4,1,5,10,9,2,6,8,1,7,1],"shifted_pitches":[10,4,1,5,10,9,3,6,8,1,7,1],"swapped_pitches":[10,4,1,5,10,2,9,6,8,1,7,1],"shift_direction":1,"question_num":141,"has_decoy":false},{"rt":722.3000000119209,"stimulus":"[A] option 1, [L] option 2, [G] neither","key_press":76,"name":"choice","trial_type":"html-keyboard-response","trial_index":175,"time_elapsed":357482,"internal_node_id":"0.0-175.0","subject":"S1C1228","sona":"41642","block":3,"time":"2021-09-17T18:52:51.362Z","response":"2nd","certainty":"high","char":"L","transposition":-2,"order":["shifted","swapped"],"probe_pitches":[2,7,10,3,-1,2,5,9,3,9,5,2],"shifted_pitches":[2,7,10,3,-1,1,5,9,3,9,5,2],"swapped_pitches":[2,7,10,3,-1,5,2,9,3,9,5,2],"shift_direction":-1,"question_num":151,"has_decoy":false},{"rt":2897.800000011921,"stimulus":"[A] option 1, [L] option 2, [G] neither","key_press":76,"name":"choice","trial_type":"html-keyboard-response","trial_index":186,"time_elapsed":383608,"internal_node_id":"0.0-186.0","subject":"S1C1228","sona":"41642","block":3,"time":"2021-09-17T18:52:51.362Z","response":"2nd","certainty":"high","char":"L","transposition":-3,"order":["swapped","shifted"],"probe_pitches":[1,-1,0,2,1,8,9,0,2,-1,6,2],"shifted_pitches":[1,-1,0,2,1,8,10,0,2,-1,6,2],"swapped_pitches":[1,-1,0,2,1,9,8,0,2,-1,6,2],"shift_direction":1,"question_num":161,"has_decoy":false},{"rt":1033.199999988079,"stimulus":"[A] option 1, [L] option 2, [G] neither","key_press":76,"name":"choice","trial_type":"html-keyboard-response","trial_index":197,"time_elapsed":408591,"internal_node_id":"0.0-197.0","subject":"S1C1228","sona":"41642","block":3,"time":"2021-09-17T18:52:51.362Z","response":"2nd","certainty":"high","char":"L","transposition":-1,"order":["shifted","swapped"],"probe_pitches":[9,4,11,4,9,4,1,-1,6,-1,1,9],"shifted_pitches":[9,4,11,4,9,4,2,-1,6,-1,1,9],"swapped_pitches":[9,4,11,4,9,1,4,-1,6,-1,1,9],"shift_direction":1,"question_num":171,"has_decoy":false},{"rt":749.3000000119209,"stimulus":"[A] option 1, [L] option 2, [G] neither","key_press":65,"name":"choice","trial_type":"html-keyboard-response","trial_index":208,"time_elapsed":428031,"internal_node_id":"0.0-208.0","subject":"S1C1228","sona":"41642","block":3,"time":"2021-09-17T18:52:51.362Z","response":"1st","certainty":"high","char":"A","transposition":-2,"order":["swapped","shifted"],"probe_pitches":[6,8,6,9,10,5,8,0,2,0,10,1],"shifted_pitches":[6,8,6,9,10,5,7,0,2,0,10,1],"swapped_pitches":[6,8,6,9,10,8,5,0,2,0,10,1],"shift_direction":-1,"question_num":181,"has_decoy":false},{"rt":657.8999999761581,"stimulus":"[A] option 1, [L] option 2, [G] neither","key_press":71,"name":"choice","trial_type":"html-keyboard-response","trial_index":219,"time_elapsed":447374,"internal_node_id":"0.0-219.0","subject":"S1C1228","sona":"41642","block":3,"time":"2021-09-17T18:52:51.362Z","response":"neither","certainty":"high","char":"G","transposition":-3,"order":["swapped","shifted"],"probe_pitches":[7,5,11,5,11,5,10,6,7,-1,7,2],"shifted_pitches":[7,5,11,5,11,4,10,6,7,-1,7,2],"swapped_pitches":[7,5,11,5,11,10,5,6,7,-1,7,2],"shift_direction":-1,"question_num":191,"has_decoy":false}]