[{"rt":1044.2000000029802,"stimulus":"[A] option 1, [L] option 2, [G] neither","key_press":76,"name":"choice","trial_type":"html-keyboard-response","trial_index":10,"time_elapsed":17891,"internal_node_id":"0.0-10.0","subject":"S1C0820","sona":"41508","block":4,"time":"2021-09-18T21:53:32.333Z","response":"2nd","certainty":"high","char":"L","transposition":-3,"order":["shifted","swapped"],"probe_pitches":[9,5,7,5,8,-1,-2,2],"shifted_pitches":[9,5,7,6,8,-1,-2,2],"swapped_pitches":[9,5,7,8,5,-1,-2,2],"shift_direction":1,"question_num":1,"has_decoy":false},{"rt":2664.2000000029802,"stimulus":"[A] option 1, [L] option 2, [G] neither","key_press":76,"name":"choice","trial_type":"html-keyboard-response","trial_index":21,"time_elapsed":40183,"internal_node_id":"0.0-21.0","subject":"S1C0820","sona":"41508","block":4,"time":"2021-09-18T21:53:32.333Z","response":"2nd","certainty":"high","char":"L","transposition":0,"order":["shifted","swapped"],"probe_pitches":[-2,1,4,6,-1,1,2,-1],"shifted_pitches":[-2,1,4,6,0,1,2,-1],"swapped_pitches":[-2,1,4,-1,6,1,2,-1],"shift_direction":1,"question_num":11,"has_decoy":false},{"rt":1784.1000000089407,"stimulus":"[A] option 1, [L] option 2, [G] neither","key_press":76,"name":"choice","trial_type":"html-keyboard-response","trial_index":32,"time_elapsed":57037,"internal_node_id":"0.0-32.0","subject":"S1C0820","sona":"41508","block":4,"time":"2021-09-18T21:53:32.333Z","response":"2nd","certainty":"high","char":"L","transposition":3,"order":["swapped","shifted"],"probe_pitches":[2,7,5,9,2,0,2,5],"shifted_pitches":[2,7,5,10,2,0,2,5],"swapped_pitches":[2,7,5,2,9,0,2,5],"shift_direction":1,"question_num":21,"has_decoy":false},{"rt":4890.29999999702,"stimulus":"[A] option 1, [L] option 2, [G] neither","key_press":65,"name":"choice","trial_type":"html-keyboard-response","trial_index":43,"time_elapsed":76500,"internal_node_id":"0.0-43.0","subject":"S1C0820","sona":"41508","block":4,"time":"2021-09-18T21:53:32.333Z","response":"1st","certainty":"high","char":"A","transposition":2,"order":["shifted","swapped"],"probe_pitches":[-3,0,4,-3,2,9,7,0],"shifted_pitches":[-3,0,4,-2,2,9,7,0],"swapped_pitches":[-3,0,4,2,-3,9,7,0],"shift_direction":1,"question_num":31,"has_decoy":false},{"rt":2742,"stimulus":"[A] option 1, [L] option 2, [G] neither","key_press":76,"name":"choice","trial_type":"html-keyboard-response","trial_index":54,"time_elapsed":95345,"internal_node_id":"0.0-54.0","subject":"S1C0820","sona":"41508","block":4,"time":"2021-09-18T21:53:32.333Z","response":"2nd","certainty":"high","char":"L","transposition":-2,"order":["swapped","shifted"],"probe_pitches":[3,9,5,-2,2,4,-1,8],"shifted_pitches":[3,9,5,-2,1,4,-1,8],"swapped_pitches":[3,9,5,2,-2,4,-1,8],"shift_direction":-1,"question_num":41,"has_decoy":false},{"rt":1445.2999999970198,"stimulus":"[A] option 1, [L] option 2, [G] neither","key_press":76,"name":"choice","trial_type":"html-keyboard-response","trial_index":65,"time_elapsed":112192,"internal_node_id":"0.0-65.0","subject":"S1C0820","sona":"41508","block":4,"time":"2021-09-18T21:53:32.333Z","response":"2nd","certainty":"high","char":"L","transposition":-3,"order":["shifted","swapped"],"probe_pitches":[9,6,1,-1,-3,4,6,4],"shifted_pitches":[9,6,1,-2,-3,4,6,4],"swapped_pitches":[9,6,1,-3,-1,4,6,4],"shift_direction":-1,"question_num":51,"has_decoy":false},{"rt":2521.199999988079,"stimulus":"[A] option 1, [L] option 2, [G] neither","key_press":71,"name":"choice","trial_type":"html-keyboard-response","trial_index":76,"time_elapsed":129945,"internal_node_id":"0.0-76.0","subject":"S1C0820","sona":"41508","block":4,"time":"2021-09-18T21:53:32.333Z","response":"neither","certainty":"high","char":"G","transposition":-1,"order":["swapped","shifted"],"probe_pitches":[9,4,0,6,4,9,0,-1],"shifted_pitches":[9,4,0,6,3,9,0,-1],"swapped_pitches":[9,4,0,4,6,9,0,-1],"shift_direction":-1,"question_num":61,"has_decoy":false},{"rt":3612.0999999940395,"stimulus":"[A] option 1, [L] option 2, [G] neither","key_press":71,"name":"choice","trial_type":"html-keyboard-response","trial_index":87,"time_elapsed":150205,"internal_node_id":"0.0-87.0","subject":"S1C0820","sona":"41508","block":4,"time":"2021-09-18T21:53:32.333Z","response":"neither","certainty":"high","char":"G","transposition":-3,"order":["swapped","shifted"],"probe_pitches":[-1,2,3,6,9,3,4,6],"shifted_pitches":[-1,2,3,5,9,3,4,6],"swapped_pitches":[-1,2,3,9,6,3,4,6],"shift_direction":-1,"question_num":71,"has_decoy":false},{"rt":1393.5,"stimulus":"[A] option 1, [L] option 2, [G] neither","key_press":65,"name":"choice","trial_type":"html-keyboard-response","trial_index":98,"time_elapsed":167373,"internal_node_id":"0.0-98.0","subject":"S1C0820","sona":"41508","block":4,"time":"2021-09-18T21:53:32.333Z","response":"1st","certainty":"high","char":"A","transposition":1,"order":["shifted","swapped"],"probe_pitches":[9,7,4,-3,-1,7,2,-1],"shifted_pitches":[9,7,4,-3,-2,7,2,-1],"swapped_pitches":[9,7,4,-1,-3,7,2,-1],"shift_direction":-1,"question_num":81,"has_decoy":false},{"rt":13065.70000000298,"stimulus":"[A] option 1, [L] option 2, [G] neither","key_press":71,"name":"choice","trial_type":"html-keyboard-response","trial_index":109,"time_elapsed":195461,"internal_node_id":"0.0-109.0","subject":"S1C0820","sona":"41508","block":4,"time":"2021-09-18T21:53:32.333Z","response":"neither","certainty":"high","char":"G","transposition":-2,"order":["swapped","shifted"],"probe_pitches":[7,4,-1,2,9,4,9,-1],"shifted_pitches":[7,4,-1,2,8,4,9,-1],"swapped_pitches":[7,4,-1,9,2,4,9,-1],"shift_direction":-1,"question_num":91,"has_decoy":false},{"rt":2600,"stimulus":"[A] option 1, [L] option 2, [G] neither","key_press":76,"name":"choice","trial_type":"html-keyboard-response","trial_index":120,"time_elapsed":226791,"internal_node_id":"0.0-120.0","subject":"S1C0820","sona":"41508","block":4,"time":"2021-09-18T21:53:32.333Z","response":"2nd","certainty":"high","char":"L","transposition":-2,"order":["swapped","shifted"],"probe_pitches":[0,6,1,8,2,6,3,4],"shifted_pitches":[0,6,1,7,2,6,3,4],"swapped_pitches":[0,6,1,2,8,6,3,4],"shift_direction":-1,"question_num":101,"has_decoy":false},{"rt":28568.59999999404,"stimulus":"[A] option 1, [L] option 2, [G] neither","key_press":71,"name":"choice","trial_type":"html-keyboard-response","trial_index":131,"time_elapsed":270675,"internal_node_id":"0.0-131.0","subject":"S1C0820","sona":"41508","block":4,"time":"2021-09-18T21:53:32.333Z","response":"neither","certainty":"high","char":"G","transposition":-3,"order":["swapped","shifted"],"probe_pitches":[9,4,6,4,-1,6,2,-3],"shifted_pitches":[9,4,6,4,0,6,2,-3],"swapped_pitches":[9,4,6,-1,4,6,2,-3],"shift_direction":1,"question_num":111,"has_decoy":false},{"rt":3482.3999999910593,"stimulus":"[A] option 1, [L] option 2, [G] neither","key_press":71,"name":"choice","trial_type":"html-keyboard-response","trial_index":142,"time_elapsed":289946,"internal_node_id":"0.0-142.0","subject":"S1C0820","sona":"41508","block":4,"time":"2021-09-18T21:53:32.333Z","response":"neither","certainty":"high","char":"G","transposition":2,"order":["shifted","swapped"],"probe_pitches":[2,0,4,7,-2,4,-2,8],"shifted_pitches":[2,0,4,7,-1,4,-2,8],"swapped_pitches":[2,0,4,-2,7,4,-2,8],"shift_direction":1,"question_num":121,"has_decoy":false},{"rt":8829.29999999702,"stimulus":"[A] option 1, [L] option 2, [G] neither","key_press":71,"name":"choice","trial_type":"html-keyboard-response","trial_index":153,"time_elapsed":314184,"internal_node_id":"0.0-153.0","subject":"S1C0820","sona":"41508","block":4,"time":"2021-09-18T21:53:32.333Z","response":"neither","certainty":"high","char":"G","transposition":1,"order":["shifted","swapped"],"probe_pitches":[4,-1,0,6,1,-1,5,0],"shifted_pitches":[4,-1,0,6,2,-1,5,0],"swapped_pitches":[4,-1,0,1,6,-1,5,0],"shift_direction":1,"question_num":131,"has_decoy":false},{"rt":1188.9000000059605,"stimulus":"[A] option 1, [L] option 2, [G] neither","key_press":76,"name":"choice","trial_type":"html-keyboard-response","trial_index":164,"time_elapsed":330949,"internal_node_id":"0.0-164.0","subject":"S1C0820","sona":"41508","block":4,"time":"2021-09-18T21:53:32.333Z","response":"2nd","certainty":"high","char":"L","transposition":-1,"order":["shifted","swapped"],"probe_pitches":[-1,-3,4,-1,6,2,9,-1],"shifted_pitches":[-1,-3,4,-1,5,2,9,-1],"swapped_pitches":[-1,-3,4,6,-1,2,9,-1],"shift_direction":-1,"question_num":141,"has_decoy":false},{"rt":3799.5,"stimulus":"[A] option 1, [L] option 2, [G] neither","key_press":71,"name":"choice","trial_type":"html-keyboard-response","trial_index":175,"time_elapsed":349106,"internal_node_id":"0.0-175.0","subject":"S1C0820","sona":"41508","block":4,"time":"2021-09-18T21:53:32.333Z","response":"neither","certainty":"high","char":"G","transposition":-1,"order":["shifted","swapped"],"probe_pitches":[-3,-2,-3,5,0,-2,8,-2],"shifted_pitches":[-3,-2,-3,4,0,-2,8,-2],"swapped_pitches":[-3,-2,-3,0,5,-2,8,-2],"shift_direction":-1,"question_num":151,"has_decoy":false},{"rt":4391.0999999940395,"stimulus":"[A] option 1, [L] option 2, [G] neither","key_press":71,"name":"choice","trial_type":"html-keyboard-response","trial_index":186,"time_elapsed":416541,"internal_node_id":"0.0-186.0","subject":"S1C0820","sona":"41508","block":4,"time":"2021-09-18T21:53:32.333Z","response":"neither","certainty":"high","char":"G","transposition":-2,"order":["swapped","shifted"],"probe_pitches":[7,2,7,2,0,9,0,5],"shifted_pitches":[7,2,7,3,0,9,0,5],"swapped_pitches":[7,2,7,0,2,9,0,5],"shift_direction":1,"question_num":161,"has_decoy":false},{"rt":1440,"stimulus":"[A] option 1, [L] option 2, [G] neither","key_press":65,"name":"choice","trial_type":"html-keyboard-response","trial_index":197,"time_elapsed":434822,"internal_node_id":"0.0-197.0","subject":"S1C0820","sona":"41508","block":4,"time":"2021-09-18T21:53:32.333Z","response":"1st","certainty":"high","char":"A","transposition":3,"order":["swapped","shifted"],"probe_pitches":[9,7,2,7,6,5,9,7],"shifted_pitches":[9,7,2,8,6,5,9,7],"swapped_pitches":[9,7,2,6,7,5,9,7],"shift_direction":1,"question_num":171,"has_decoy":false},{"rt":6689.199999988079,"stimulus":"[A] option 1, [L] option 2, [G] neither","key_press":71,"name":"choice","trial_type":"html-keyboard-response","trial_index":208,"time_elapsed":459773,"internal_node_id":"0.0-208.0","subject":"S1C0820","sona":"41508","block":4,"time":"2021-09-18T21:53:32.333Z","response":"neither","certainty":"high","char":"G","transposition":-1,"order":["swapped","shifted"],"probe_pitches":[2,-3,4,9,7,4,0,9],"shifted_pitches":[2,-3,4,10,7,4,0,9],"swapped_pitches":[2,-3,4,7,9,4,0,9],"shift_direction":1,"question_num":181,"has_decoy":false},{"rt":18365.89999999106,"stimulus":"[A] option 1, [L] option 2, [G] neither","key_press":71,"name":"choice","trial_type":"html-keyboard-response","trial_index":219,"time_elapsed":500192,"internal_node_id":"0.0-219.0","subject":"S1C0820","sona":"41508","block":4,"time":"2021-09-18T21:53:32.333Z","response":"neither","certainty":"high","char":"G","transposition":0,"order":["shifted","swapped"],"probe_pitches":[-3,1,-1,6,9,4,-3,6],"shifted_pitches":[-3,1,-1,6,8,4,-3,6],"swapped_pitches":[-3,1,-1,9,6,4,-3,6],"shift_direction":-1,"question_num":191,"has_decoy":false}]