[{"rt":1185.8999999910593,"stimulus":"[A] option 1, [L] option 2, [G] neither","key_press":65,"name":"choice","trial_type":"html-keyboard-response","trial_index":10,"time_elapsed":16958,"internal_node_id":"0.0-10.0","subject":"S1C0820","sona":"41508","block":3,"time":"2021-09-18T21:45:06.813Z","response":"1st","certainty":"high","char":"A","transposition":-1,"order":["swapped","shifted"],"probe_pitches":[9,11,4,11,9,2,6,11],"shifted_pitches":[9,11,4,12,9,2,6,11],"swapped_pitches":[9,11,4,9,11,2,6,11],"shift_direction":1,"question_num":1,"has_decoy":false},{"rt":4045.3999999910593,"stimulus":"[A] option 1, [L] option 2, [G] neither","key_press":65,"name":"choice","trial_type":"html-keyboard-response","trial_index":21,"time_elapsed":37803,"internal_node_id":"0.0-21.0","subject":"S1C0820","sona":"41508","block":3,"time":"2021-09-18T21:45:06.813Z","response":"1st","certainty":"high","char":"A","transposition":2,"order":["swapped","shifted"],"probe_pitches":[2,6,-1,6,4,9,4,9],"shifted_pitches":[2,6,-1,5,4,9,4,9],"swapped_pitches":[2,6,-1,4,6,9,4,9],"shift_direction":-1,"question_num":11,"has_decoy":false},{"rt":4624,"stimulus":"[A] option 1, [L] option 2, [G] neither","key_press":71,"name":"choice","trial_type":"html-keyboard-response","trial_index":32,"time_elapsed":59907,"internal_node_id":"0.0-32.0","subject":"S1C0820","sona":"41508","block":3,"time":"2021-09-18T21:45:06.813Z","response":"neither","certainty":"high","char":"G","transposition":3,"order":["shifted","swapped"],"probe_pitches":[8,7,5,7,1,-2,-3,1],"shifted_pitches":[8,7,5,7,0,-2,-3,1],"swapped_pitches":[8,7,5,1,7,-2,-3,1],"shift_direction":-1,"question_num":21,"has_decoy":false},{"rt":6198.70000000298,"stimulus":"[A] option 1, [L] option 2, [G] neither","key_press":71,"name":"choice","trial_type":"html-keyboard-response","trial_index":43,"time_elapsed":95158,"internal_node_id":"0.0-43.0","subject":"S1C0820","sona":"41508","block":3,"time":"2021-09-18T21:45:06.813Z","response":"neither","certainty":"high","char":"G","transposition":-3,"order":["shifted","swapped"],"probe_pitches":[11,9,11,7,9,4,2,11],"shifted_pitches":[11,9,11,6,9,4,2,11],"swapped_pitches":[11,9,11,9,7,4,2,11],"shift_direction":-1,"question_num":31,"has_decoy":false},{"rt":1045.4000000059605,"stimulus":"[A] option 1, [L] option 2, [G] neither","key_press":76,"name":"choice","trial_type":"html-keyboard-response","trial_index":54,"time_elapsed":112026,"internal_node_id":"0.0-54.0","subject":"S1C0820","sona":"41508","block":3,"time":"2021-09-18T21:45:06.813Z","response":"2nd","certainty":"high","char":"L","transposition":-3,"order":["swapped","shifted"],"probe_pitches":[1,6,1,6,8,11,8,3],"shifted_pitches":[1,6,1,6,9,11,8,3],"swapped_pitches":[1,6,1,8,6,11,8,3],"shift_direction":1,"question_num":41,"has_decoy":false},{"rt":1228.5,"stimulus":"[A] option 1, [L] option 2, [G] neither","key_press":76,"name":"choice","trial_type":"html-keyboard-response","trial_index":65,"time_elapsed":129553,"internal_node_id":"0.0-65.0","subject":"S1C0820","sona":"41508","block":3,"time":"2021-09-18T21:45:06.813Z","response":"2nd","certainty":"high","char":"L","transposition":-1,"order":["shifted","swapped"],"probe_pitches":[7,2,-3,5,2,-1,-3,6],"shifted_pitches":[7,2,-3,4,2,-1,-3,6],"swapped_pitches":[7,2,-3,2,5,-1,-3,6],"shift_direction":-1,"question_num":51,"has_decoy":false},{"rt":2703.4000000059605,"stimulus":"[A] option 1, [L] option 2, [G] neither","key_press":71,"name":"choice","trial_type":"html-keyboard-response","trial_index":76,"time_elapsed":147658,"internal_node_id":"0.0-76.0","subject":"S1C0820","sona":"41508","block":3,"time":"2021-09-18T21:45:06.813Z","response":"neither","certainty":"high","char":"G","transposition":-3,"order":["swapped","shifted"],"probe_pitches":[-2,-3,3,1,4,7,9,4],"shifted_pitches":[-2,-3,3,1,5,7,9,4],"swapped_pitches":[-2,-3,3,4,1,7,9,4],"shift_direction":1,"question_num":61,"has_decoy":false},{"rt":1026.2000000029802,"stimulus":"[A] option 1, [L] option 2, [G] neither","key_press":76,"name":"choice","trial_type":"html-keyboard-response","trial_index":87,"time_elapsed":166184,"internal_node_id":"0.0-87.0","subject":"S1C0820","sona":"41508","block":3,"time":"2021-09-18T21:45:06.813Z","response":"2nd","certainty":"high","char":"L","transposition":-1,"order":["swapped","shifted"],"probe_pitches":[6,2,9,8,2,1,2,-2],"shifted_pitches":[6,2,9,7,2,1,2,-2],"swapped_pitches":[6,2,9,2,8,1,2,-2],"shift_direction":-1,"question_num":71,"has_decoy":false},{"rt":6365.79999999702,"stimulus":"[A] option 1, [L] option 2, [G] neither","key_press":71,"name":"choice","trial_type":"html-keyboard-response","trial_index":98,"time_elapsed":188362,"internal_node_id":"0.0-98.0","subject":"S1C0820","sona":"41508","block":3,"time":"2021-09-18T21:45:06.813Z","response":"neither","certainty":"high","char":"G","transposition":0,"order":["shifted","swapped"],"probe_pitches":[9,4,6,4,9,-1,9,1],"shifted_pitches":[9,4,6,4,8,-1,9,1],"swapped_pitches":[9,4,6,9,4,-1,9,1],"shift_direction":-1,"question_num":81,"has_decoy":false},{"rt":3739.2000000029802,"stimulus":"[A] option 1, [L] option 2, [G] neither","key_press":71,"name":"choice","trial_type":"html-keyboard-response","trial_index":109,"time_elapsed":217864,"internal_node_id":"0.0-109.0","subject":"S1C0820","sona":"41508","block":3,"time":"2021-09-18T21:45:06.813Z","response":"neither","certainty":"high","char":"G","transposition":2,"order":["swapped","shifted"],"probe_pitches":[4,5,2,-2,3,0,3,1],"shifted_pitches":[4,5,2,-1,3,0,3,1],"swapped_pitches":[4,5,2,3,-2,0,3,1],"shift_direction":1,"question_num":91,"has_decoy":false},{"rt":2185.2000000029802,"stimulus":"[A] option 1, [L] option 2, [G] neither","key_press":76,"name":"choice","trial_type":"html-keyboard-response","trial_index":120,"time_elapsed":339866,"internal_node_id":"0.0-120.0","subject":"S1C0820","sona":"41508","block":3,"time":"2021-09-18T21:45:06.813Z","response":"2nd","certainty":"high","char":"L","transposition":-2,"order":["shifted","swapped"],"probe_pitches":[6,8,9,6,1,7,6,-2],"shifted_pitches":[6,8,9,6,2,7,6,-2],"swapped_pitches":[6,8,9,1,6,7,6,-2],"shift_direction":1,"question_num":101,"has_decoy":false},{"rt":3032.199999988079,"stimulus":"[A] option 1, [L] option 2, [G] neither","key_press":65,"name":"choice","trial_type":"html-keyboard-response","trial_index":131,"time_elapsed":358580,"internal_node_id":"0.0-131.0","subject":"S1C0820","sona":"41508","block":3,"time":"2021-09-18T21:45:06.813Z","response":"1st","certainty":"high","char":"A","transposition":1,"order":["swapped","shifted"],"probe_pitches":[11,8,3,1,6,8,3,8],"shifted_pitches":[11,8,3,1,5,8,3,8],"swapped_pitches":[11,8,3,6,1,8,3,8],"shift_direction":-1,"question_num":111,"has_decoy":false},{"rt":1548.0999999940395,"stimulus":"[A] option 1, [L] option 2, [G] neither","key_press":76,"name":"choice","trial_type":"html-keyboard-response","trial_index":142,"time_elapsed":378103,"internal_node_id":"0.0-142.0","subject":"S1C0820","sona":"41508","block":3,"time":"2021-09-18T21:45:06.813Z","response":"2nd","certainty":"high","char":"L","transposition":-2,"order":["swapped","shifted"],"probe_pitches":[-2,4,-1,7,4,2,1,-3],"shifted_pitches":[-2,4,-1,6,4,2,1,-3],"swapped_pitches":[-2,4,-1,4,7,2,1,-3],"shift_direction":-1,"question_num":121,"has_decoy":false},{"rt":3242.7999999970198,"stimulus":"[A] option 1, [L] option 2, [G] neither","key_press":71,"name":"choice","trial_type":"html-keyboard-response","trial_index":153,"time_elapsed":401351,"internal_node_id":"0.0-153.0","subject":"S1C0820","sona":"41508","block":3,"time":"2021-09-18T21:45:06.813Z","response":"neither","certainty":"high","char":"G","transposition":-1,"order":["shifted","swapped"],"probe_pitches":[4,8,4,11,8,1,6,1],"shifted_pitches":[4,8,4,11,9,1,6,1],"swapped_pitches":[4,8,4,8,11,1,6,1],"shift_direction":1,"question_num":131,"has_decoy":false},{"rt":1171.5999999940395,"stimulus":"[A] option 1, [L] option 2, [G] neither","key_press":76,"name":"choice","trial_type":"html-keyboard-response","trial_index":164,"time_elapsed":419184,"internal_node_id":"0.0-164.0","subject":"S1C0820","sona":"41508","block":3,"time":"2021-09-18T21:45:06.813Z","response":"2nd","certainty":"high","char":"L","transposition":-3,"order":["shifted","swapped"],"probe_pitches":[5,9,2,9,6,-2,7,2],"shifted_pitches":[5,9,2,8,6,-2,7,2],"swapped_pitches":[5,9,2,6,9,-2,7,2],"shift_direction":-1,"question_num":141,"has_decoy":false},{"rt":1228.9000000059605,"stimulus":"[A] option 1, [L] option 2, [G] neither","key_press":65,"name":"choice","trial_type":"html-keyboard-response","trial_index":175,"time_elapsed":439722,"internal_node_id":"0.0-175.0","subject":"S1C0820","sona":"41508","block":3,"time":"2021-09-18T21:45:06.813Z","response":"1st","certainty":"high","char":"A","transposition":-2,"order":["shifted","swapped"],"probe_pitches":[9,11,4,9,1,6,-1,9],"shifted_pitches":[9,11,4,10,1,6,-1,9],"swapped_pitches":[9,11,4,1,9,6,-1,9],"shift_direction":1,"question_num":151,"has_decoy":false},{"rt":2653,"stimulus":"[A] option 1, [L] option 2, [G] neither","key_press":65,"name":"choice","trial_type":"html-keyboard-response","trial_index":186,"time_elapsed":458250,"internal_node_id":"0.0-186.0","subject":"S1C0820","sona":"41508","block":3,"time":"2021-09-18T21:45:06.813Z","response":"1st","certainty":"high","char":"A","transposition":3,"order":["shifted","swapped"],"probe_pitches":[2,7,4,9,7,-1,9,-1],"shifted_pitches":[2,7,4,8,7,-1,9,-1],"swapped_pitches":[2,7,4,7,9,-1,9,-1],"shift_direction":-1,"question_num":161,"has_decoy":false},{"rt":914.7000000029802,"stimulus":"[A] option 1, [L] option 2, [G] neither","key_press":76,"name":"choice","trial_type":"html-keyboard-response","trial_index":197,"time_elapsed":474827,"internal_node_id":"0.0-197.0","subject":"S1C0820","sona":"41508","block":3,"time":"2021-09-18T21:45:06.813Z","response":"2nd","certainty":"high","char":"L","transposition":1,"order":["shifted","swapped"],"probe_pitches":[9,8,7,5,0,-1,0,-1],"shifted_pitches":[9,8,7,5,1,-1,0,-1],"swapped_pitches":[9,8,7,0,5,-1,0,-1],"shift_direction":1,"question_num":171,"has_decoy":false},{"rt":6533.4000000059605,"stimulus":"[A] option 1, [L] option 2, [G] neither","key_press":65,"name":"choice","trial_type":"html-keyboard-response","trial_index":208,"time_elapsed":496803,"internal_node_id":"0.0-208.0","subject":"S1C0820","sona":"41508","block":3,"time":"2021-09-18T21:45:06.813Z","response":"1st","certainty":"high","char":"A","transposition":0,"order":["swapped","shifted"],"probe_pitches":[2,5,-1,-3,2,5,2,7],"shifted_pitches":[2,5,-1,-3,3,5,2,7],"swapped_pitches":[2,5,-1,2,-3,5,2,7],"shift_direction":1,"question_num":181,"has_decoy":false},{"rt":973.5,"stimulus":"[A] option 1, [L] option 2, [G] neither","key_press":65,"name":"choice","trial_type":"html-keyboard-response","trial_index":219,"time_elapsed":520737,"internal_node_id":"0.0-219.0","subject":"S1C0820","sona":"41508","block":3,"time":"2021-09-18T21:45:06.813Z","response":"1st","certainty":"high","char":"A","transposition":-2,"order":["swapped","shifted"],"probe_pitches":[-1,4,1,8,-1,1,4,6],"shifted_pitches":[-1,4,1,8,0,1,4,6],"swapped_pitches":[-1,4,1,-1,8,1,4,6],"shift_direction":1,"question_num":191,"has_decoy":false}]