[{"rt":2597.2999999970198,"stimulus":"[A] option 1, [L] option 2, [G] neither","key_press":65,"name":"choice","trial_type":"html-keyboard-response","trial_index":10,"time_elapsed":17773,"internal_node_id":"0.0-10.0","subject":"S1C0820","sona":"41508","block":6,"time":"2021-09-18T22:05:05.540Z","response":"1st","certainty":"high","char":"A","transposition":3,"order":["swapped","shifted"],"probe_pitches":[4,1,6,5,1,6,5,9],"shifted_pitches":[4,1,6,5,2,6,5,9],"swapped_pitches":[4,1,6,1,5,6,5,9],"shift_direction":1,"question_num":1,"has_decoy":false},{"rt":2427.199999988079,"stimulus":"[A] option 1, [L] option 2, [G] neither","key_press":76,"name":"choice","trial_type":"html-keyboard-response","trial_index":21,"time_elapsed":34654,"internal_node_id":"0.0-21.0","subject":"S1C0820","sona":"41508","block":6,"time":"2021-09-18T22:05:05.540Z","response":"2nd","certainty":"high","char":"L","transposition":-3,"order":["shifted","swapped"],"probe_pitches":[3,0,2,10,12,7,12,7],"shifted_pitches":[3,0,2,9,12,7,12,7],"swapped_pitches":[3,0,2,12,10,7,12,7],"shift_direction":-1,"question_num":11,"has_decoy":false},{"rt":2034.1000000089407,"stimulus":"[A] option 1, [L] option 2, [G] neither","key_press":76,"name":"choice","trial_type":"html-keyboard-response","trial_index":32,"time_elapsed":54379,"internal_node_id":"0.0-32.0","subject":"S1C0820","sona":"41508","block":6,"time":"2021-09-18T22:05:05.540Z","response":"2nd","certainty":"high","char":"L","transposition":0,"order":["shifted","swapped"],"probe_pitches":[9,4,7,-1,2,9,4,2],"shifted_pitches":[9,4,7,-1,3,9,4,2],"swapped_pitches":[9,4,7,2,-1,9,4,2],"shift_direction":1,"question_num":21,"has_decoy":false},{"rt":3170,"stimulus":"[A] option 1, [L] option 2, [G] neither","key_press":71,"name":"choice","trial_type":"html-keyboard-response","trial_index":43,"time_elapsed":72705,"internal_node_id":"0.0-43.0","subject":"S1C0820","sona":"41508","block":6,"time":"2021-09-18T22:05:05.540Z","response":"neither","certainty":"high","char":"G","transposition":2,"order":["shifted","swapped"],"probe_pitches":[-1,4,2,9,6,11,4,11],"shifted_pitches":[-1,4,2,9,5,11,4,11],"swapped_pitches":[-1,4,2,6,9,11,4,11],"shift_direction":-1,"question_num":31,"has_decoy":false},{"rt":1689.2999999970198,"stimulus":"[A] option 1, [L] option 2, [G] neither","key_press":76,"name":"choice","trial_type":"html-keyboard-response","trial_index":54,"time_elapsed":89592,"internal_node_id":"0.0-54.0","subject":"S1C0820","sona":"41508","block":6,"time":"2021-09-18T22:05:05.540Z","response":"2nd","certainty":"high","char":"L","transposition":2,"order":["shifted","swapped"],"probe_pitches":[9,4,9,6,11,8,11,8],"shifted_pitches":[9,4,9,5,11,8,11,8],"swapped_pitches":[9,4,9,11,6,8,11,8],"shift_direction":-1,"question_num":41,"has_decoy":false},{"rt":709.2999999970198,"stimulus":"[A] option 1, [L] option 2, [G] neither","key_press":76,"name":"choice","trial_type":"html-keyboard-response","trial_index":65,"time_elapsed":105113,"internal_node_id":"0.0-65.0","subject":"S1C0820","sona":"41508","block":6,"time":"2021-09-18T22:05:05.540Z","response":"2nd","certainty":"high","char":"L","transposition":1,"order":["shifted","swapped"],"probe_pitches":[8,6,8,1,-1,3,11,-1],"shifted_pitches":[8,6,8,0,-1,3,11,-1],"swapped_pitches":[8,6,8,-1,1,3,11,-1],"shift_direction":-1,"question_num":51,"has_decoy":false},{"rt":2112.5,"stimulus":"[A] option 1, [L] option 2, [G] neither","key_press":65,"name":"choice","trial_type":"html-keyboard-response","trial_index":76,"time_elapsed":122629,"internal_node_id":"0.0-76.0","subject":"S1C0820","sona":"41508","block":6,"time":"2021-09-18T22:05:05.540Z","response":"1st","certainty":"high","char":"A","transposition":-1,"order":["swapped","shifted"],"probe_pitches":[0,3,0,7,11,2,9,5],"shifted_pitches":[0,3,0,8,11,2,9,5],"swapped_pitches":[0,3,0,11,7,2,9,5],"shift_direction":1,"question_num":61,"has_decoy":false},{"rt":1698.6000000089407,"stimulus":"[A] option 1, [L] option 2, [G] neither","key_press":71,"name":"choice","trial_type":"html-keyboard-response","trial_index":87,"time_elapsed":139928,"internal_node_id":"0.0-87.0","subject":"S1C0820","sona":"41508","block":6,"time":"2021-09-18T22:05:05.540Z","response":"neither","certainty":"high","char":"G","transposition":0,"order":["swapped","shifted"],"probe_pitches":[11,8,1,9,7,12,8,12],"shifted_pitches":[11,8,1,9,6,12,8,12],"swapped_pitches":[11,8,1,7,9,12,8,12],"shift_direction":-1,"question_num":71,"has_decoy":false},{"rt":2611.7000000029802,"stimulus":"[A] option 1, [L] option 2, [G] neither","key_press":71,"name":"choice","trial_type":"html-keyboard-response","trial_index":98,"time_elapsed":157326,"internal_node_id":"0.0-98.0","subject":"S1C0820","sona":"41508","block":6,"time":"2021-09-18T22:05:05.540Z","response":"neither","certainty":"high","char":"G","transposition":-2,"order":["shifted","swapped"],"probe_pitches":[7,2,5,8,3,9,12,0],"shifted_pitches":[7,2,5,8,4,9,12,0],"swapped_pitches":[7,2,5,3,8,9,12,0],"shift_direction":1,"question_num":81,"has_decoy":false},{"rt":2000,"stimulus":"[A] option 1, [L] option 2, [G] neither","key_press":71,"name":"choice","trial_type":"html-keyboard-response","trial_index":109,"time_elapsed":173419,"internal_node_id":"0.0-109.0","subject":"S1C0820","sona":"41508","block":6,"time":"2021-09-18T22:05:05.540Z","response":"neither","certainty":"high","char":"G","transposition":-1,"order":["swapped","shifted"],"probe_pitches":[4,9,4,-1,6,4,-1,1],"shifted_pitches":[4,9,4,0,6,4,-1,1],"swapped_pitches":[4,9,4,6,-1,4,-1,1],"shift_direction":1,"question_num":91,"has_decoy":false},{"rt":2277.699999988079,"stimulus":"[A] option 1, [L] option 2, [G] neither","key_press":71,"name":"choice","trial_type":"html-keyboard-response","trial_index":120,"time_elapsed":191014,"internal_node_id":"0.0-120.0","subject":"S1C0820","sona":"41508","block":6,"time":"2021-09-18T22:05:05.540Z","response":"neither","certainty":"high","char":"G","transposition":-2,"order":["shifted","swapped"],"probe_pitches":[1,-1,6,4,11,8,1,8],"shifted_pitches":[1,-1,6,5,11,8,1,8],"swapped_pitches":[1,-1,6,11,4,8,1,8],"shift_direction":1,"question_num":101,"has_decoy":false},{"rt":1426.5,"stimulus":"[A] option 1, [L] option 2, [G] neither","key_press":76,"name":"choice","trial_type":"html-keyboard-response","trial_index":131,"time_elapsed":207096,"internal_node_id":"0.0-131.0","subject":"S1C0820","sona":"41508","block":6,"time":"2021-09-18T22:05:05.540Z","response":"2nd","certainty":"high","char":"L","transposition":-2,"order":["swapped","shifted"],"probe_pitches":[7,1,2,4,1,2,1,9],"shifted_pitches":[7,1,2,3,1,2,1,9],"swapped_pitches":[7,1,2,1,4,2,1,9],"shift_direction":-1,"question_num":111,"has_decoy":false},{"rt":520.9000000059605,"stimulus":"[A] option 1, [L] option 2, [G] neither","key_press":65,"name":"choice","trial_type":"html-keyboard-response","trial_index":142,"time_elapsed":222068,"internal_node_id":"0.0-142.0","subject":"S1C0820","sona":"41508","block":6,"time":"2021-09-18T22:05:05.540Z","response":"1st","certainty":"high","char":"A","transposition":3,"order":["swapped","shifted"],"probe_pitches":[2,-1,4,-1,7,4,7,9],"shifted_pitches":[2,-1,4,-1,8,4,7,9],"swapped_pitches":[2,-1,4,7,-1,4,7,9],"shift_direction":1,"question_num":121,"has_decoy":false},{"rt":1718.8999999910593,"stimulus":"[A] option 1, [L] option 2, [G] neither","key_press":71,"name":"choice","trial_type":"html-keyboard-response","trial_index":153,"time_elapsed":238925,"internal_node_id":"0.0-153.0","subject":"S1C0820","sona":"41508","block":6,"time":"2021-09-18T22:05:05.540Z","response":"neither","certainty":"high","char":"G","transposition":-1,"order":["swapped","shifted"],"probe_pitches":[1,6,-1,4,8,11,4,-1],"shifted_pitches":[1,6,-1,4,7,11,4,-1],"swapped_pitches":[1,6,-1,8,4,11,4,-1],"shift_direction":-1,"question_num":131,"has_decoy":false},{"rt":1700,"stimulus":"[A] option 1, [L] option 2, [G] neither","key_press":65,"name":"choice","trial_type":"html-keyboard-response","trial_index":164,"time_elapsed":255286,"internal_node_id":"0.0-164.0","subject":"S1C0820","sona":"41508","block":6,"time":"2021-09-18T22:05:05.540Z","response":"1st","certainty":"high","char":"A","transposition":-1,"order":["shifted","swapped"],"probe_pitches":[3,0,6,5,10,1,10,6],"shifted_pitches":[3,0,6,5,11,1,10,6],"swapped_pitches":[3,0,6,10,5,1,10,6],"shift_direction":1,"question_num":141,"has_decoy":false},{"rt":460.69999998807907,"stimulus":"[A] option 1, [L] option 2, [G] neither","key_press":65,"name":"choice","trial_type":"html-keyboard-response","trial_index":175,"time_elapsed":270537,"internal_node_id":"0.0-175.0","subject":"S1C0820","sona":"41508","block":6,"time":"2021-09-18T22:05:05.540Z","response":"1st","certainty":"high","char":"A","transposition":-3,"order":["swapped","shifted"],"probe_pitches":[1,6,8,1,-1,8,3,11],"shifted_pitches":[1,6,8,0,-1,8,3,11],"swapped_pitches":[1,6,8,-1,1,8,3,11],"shift_direction":-1,"question_num":151,"has_decoy":false},{"rt":395.70000000298023,"stimulus":"[A] option 1, [L] option 2, [G] neither","key_press":76,"name":"choice","trial_type":"html-keyboard-response","trial_index":186,"time_elapsed":285800,"internal_node_id":"0.0-186.0","subject":"S1C0820","sona":"41508","block":6,"time":"2021-09-18T22:05:05.540Z","response":"2nd","certainty":"high","char":"L","transposition":-2,"order":["swapped","shifted"],"probe_pitches":[6,11,4,9,2,6,11,4],"shifted_pitches":[6,11,4,9,3,6,11,4],"swapped_pitches":[6,11,4,2,9,6,11,4],"shift_direction":1,"question_num":161,"has_decoy":false},{"rt":1081.2999999970198,"stimulus":"[A] option 1, [L] option 2, [G] neither","key_press":76,"name":"choice","trial_type":"html-keyboard-response","trial_index":197,"time_elapsed":301724,"internal_node_id":"0.0-197.0","subject":"S1C0820","sona":"41508","block":6,"time":"2021-09-18T22:05:05.540Z","response":"2nd","certainty":"high","char":"L","transposition":-3,"order":["shifted","swapped"],"probe_pitches":[0,2,0,6,1,3,1,0],"shifted_pitches":[0,2,0,7,1,3,1,0],"swapped_pitches":[0,2,0,1,6,3,1,0],"shift_direction":1,"question_num":171,"has_decoy":false},{"rt":485.59999999403954,"stimulus":"[A] option 1, [L] option 2, [G] neither","key_press":76,"name":"choice","trial_type":"html-keyboard-response","trial_index":208,"time_elapsed":316515,"internal_node_id":"0.0-208.0","subject":"S1C0820","sona":"41508","block":6,"time":"2021-09-18T22:05:05.540Z","response":"2nd","certainty":"high","char":"L","transposition":-3,"order":["shifted","swapped"],"probe_pitches":[9,11,6,4,9,11,1,6],"shifted_pitches":[9,11,6,3,9,11,1,6],"swapped_pitches":[9,11,6,9,4,11,1,6],"shift_direction":-1,"question_num":181,"has_decoy":false},{"rt":829.1000000089407,"stimulus":"[A] option 1, [L] option 2, [G] neither","key_press":76,"name":"choice","trial_type":"html-keyboard-response","trial_index":219,"time_elapsed":332186,"internal_node_id":"0.0-219.0","subject":"S1C0820","sona":"41508","block":6,"time":"2021-09-18T22:05:05.540Z","response":"2nd","certainty":"high","char":"L","transposition":1,"order":["swapped","shifted"],"probe_pitches":[5,0,6,4,11,6,9,3],"shifted_pitches":[5,0,6,4,10,6,9,3],"swapped_pitches":[5,0,6,11,4,6,9,3],"shift_direction":-1,"question_num":191,"has_decoy":false}]