[{"rt":1439,"stimulus":"[A] option 1, [L] option 2, [G] neither","key_press":76,"name":"choice","trial_type":"html-keyboard-response","trial_index":10,"time_elapsed":18041,"internal_node_id":"0.0-10.0","subject":"S1C0820","sona":"41508","block":2,"time":"2021-09-18T21:36:12.714Z","response":"2nd","certainty":"high","char":"L","transposition":3,"order":["shifted","swapped"],"probe_pitches":[7,10,7,8,14,6,14,4],"shifted_pitches":[7,10,7,9,14,6,14,4],"swapped_pitches":[7,10,7,14,8,6,14,4],"shift_direction":1,"question_num":1,"has_decoy":false},{"rt":1259.5999999940395,"stimulus":"[A] option 1, [L] option 2, [G] neither","key_press":76,"name":"choice","trial_type":"html-keyboard-response","trial_index":21,"time_elapsed":34796,"internal_node_id":"0.0-21.0","subject":"S1C0820","sona":"41508","block":2,"time":"2021-09-18T21:36:12.714Z","response":"2nd","certainty":"high","char":"L","transposition":-1,"order":["shifted","swapped"],"probe_pitches":[6,3,9,3,6,11,9,13],"shifted_pitches":[6,3,9,3,5,11,9,13],"swapped_pitches":[6,3,9,6,3,11,9,13],"shift_direction":-1,"question_num":11,"has_decoy":false},{"rt":1293.300000011921,"stimulus":"[A] option 1, [L] option 2, [G] neither","key_press":76,"name":"choice","trial_type":"html-keyboard-response","trial_index":32,"time_elapsed":51006,"internal_node_id":"0.0-32.0","subject":"S1C0820","sona":"41508","block":2,"time":"2021-09-18T21:36:12.714Z","response":"2nd","certainty":"high","char":"L","transposition":-2,"order":["shifted","swapped"],"probe_pitches":[3,8,6,-1,1,11,8,11],"shifted_pitches":[3,8,6,-2,1,11,8,11],"swapped_pitches":[3,8,6,1,-1,11,8,11],"shift_direction":-1,"question_num":21,"has_decoy":false},{"rt":1679.5999999940395,"stimulus":"[A] option 1, [L] option 2, [G] neither","key_press":71,"name":"choice","trial_type":"html-keyboard-response","trial_index":43,"time_elapsed":70684,"internal_node_id":"0.0-43.0","subject":"S1C0820","sona":"41508","block":2,"time":"2021-09-18T21:36:12.714Z","response":"neither","certainty":"high","char":"G","transposition":2,"order":["shifted","swapped"],"probe_pitches":[4,9,2,6,11,4,-1,9],"shifted_pitches":[4,9,2,6,12,4,-1,9],"swapped_pitches":[4,9,2,11,6,4,-1,9],"shift_direction":1,"question_num":31,"has_decoy":false},{"rt":1225.2000000029802,"stimulus":"[A] option 1, [L] option 2, [G] neither","key_press":71,"name":"choice","trial_type":"html-keyboard-response","trial_index":54,"time_elapsed":113263,"internal_node_id":"0.0-54.0","subject":"S1C0820","sona":"41508","block":2,"time":"2021-09-18T21:36:12.714Z","response":"neither","certainty":"high","char":"G","transposition":-1,"order":["swapped","shifted"],"probe_pitches":[10,13,6,11,9,15,5,15],"shifted_pitches":[10,13,6,12,9,15,5,15],"swapped_pitches":[10,13,6,9,11,15,5,15],"shift_direction":1,"question_num":41,"has_decoy":false},{"rt":1623.5999999940395,"stimulus":"[A] option 1, [L] option 2, [G] neither","key_press":71,"name":"choice","trial_type":"html-keyboard-response","trial_index":65,"time_elapsed":130309,"internal_node_id":"0.0-65.0","subject":"S1C0820","sona":"41508","block":2,"time":"2021-09-18T21:36:12.714Z","response":"neither","certainty":"high","char":"G","transposition":-1,"order":["swapped","shifted"],"probe_pitches":[4,-1,1,9,6,-1,1,6],"shifted_pitches":[4,-1,1,8,6,-1,1,6],"swapped_pitches":[4,-1,1,6,9,-1,1,6],"shift_direction":-1,"question_num":51,"has_decoy":false},{"rt":1549.7999999970198,"stimulus":"[A] option 1, [L] option 2, [G] neither","key_press":76,"name":"choice","trial_type":"html-keyboard-response","trial_index":76,"time_elapsed":153743,"internal_node_id":"0.0-76.0","subject":"S1C0820","sona":"41508","block":2,"time":"2021-09-18T21:36:12.714Z","response":"2nd","certainty":"high","char":"L","transposition":-3,"order":["swapped","shifted"],"probe_pitches":[2,4,6,-1,2,9,4,2],"shifted_pitches":[2,4,6,-1,1,9,4,2],"swapped_pitches":[2,4,6,2,-1,9,4,2],"shift_direction":-1,"question_num":61,"has_decoy":false},{"rt":2245.300000011921,"stimulus":"[A] option 1, [L] option 2, [G] neither","key_press":76,"name":"choice","trial_type":"html-keyboard-response","trial_index":87,"time_elapsed":171927,"internal_node_id":"0.0-87.0","subject":"S1C0820","sona":"41508","block":2,"time":"2021-09-18T21:36:12.714Z","response":"2nd","certainty":"high","char":"L","transposition":-2,"order":["swapped","shifted"],"probe_pitches":[6,9,5,10,13,11,9,11],"shifted_pitches":[6,9,5,10,14,11,9,11],"swapped_pitches":[6,9,5,13,10,11,9,11],"shift_direction":1,"question_num":71,"has_decoy":false},{"rt":2254.9000000059605,"stimulus":"[A] option 1, [L] option 2, [G] neither","key_press":71,"name":"choice","trial_type":"html-keyboard-response","trial_index":98,"time_elapsed":189975,"internal_node_id":"0.0-98.0","subject":"S1C0820","sona":"41508","block":2,"time":"2021-09-18T21:36:12.714Z","response":"neither","certainty":"high","char":"G","transposition":-3,"order":["swapped","shifted"],"probe_pitches":[7,9,7,4,2,-1,4,7],"shifted_pitches":[7,9,7,3,2,-1,4,7],"swapped_pitches":[7,9,7,2,4,-1,4,7],"shift_direction":-1,"question_num":81,"has_decoy":false},{"rt":3423.699999988079,"stimulus":"[A] option 1, [L] option 2, [G] neither","key_press":71,"name":"choice","trial_type":"html-keyboard-response","trial_index":109,"time_elapsed":209422,"internal_node_id":"0.0-109.0","subject":"S1C0820","sona":"41508","block":2,"time":"2021-09-18T21:36:12.714Z","response":"neither","certainty":"high","char":"G","transposition":0,"order":["swapped","shifted"],"probe_pitches":[3,5,9,3,12,6,15,7],"shifted_pitches":[3,5,9,3,13,6,15,7],"swapped_pitches":[3,5,9,12,3,6,15,7],"shift_direction":1,"question_num":91,"has_decoy":false},{"rt":1939.7999999970198,"stimulus":"[A] option 1, [L] option 2, [G] neither","key_press":65,"name":"choice","trial_type":"html-keyboard-response","trial_index":120,"time_elapsed":227431,"internal_node_id":"0.0-120.0","subject":"S1C0820","sona":"41508","block":2,"time":"2021-09-18T21:36:12.714Z","response":"1st","certainty":"high","char":"A","transposition":-3,"order":["shifted","swapped"],"probe_pitches":[6,12,5,9,10,11,14,12],"shifted_pitches":[6,12,5,8,10,11,14,12],"swapped_pitches":[6,12,5,10,9,11,14,12],"shift_direction":-1,"question_num":101,"has_decoy":false},{"rt":2722.9000000059605,"stimulus":"[A] option 1, [L] option 2, [G] neither","key_press":76,"name":"choice","trial_type":"html-keyboard-response","trial_index":131,"time_elapsed":245629,"internal_node_id":"0.0-131.0","subject":"S1C0820","sona":"41508","block":2,"time":"2021-09-18T21:36:12.714Z","response":"2nd","certainty":"high","char":"L","transposition":-2,"order":["swapped","shifted"],"probe_pitches":[15,14,15,13,11,4,6,15],"shifted_pitches":[15,14,15,13,10,4,6,15],"swapped_pitches":[15,14,15,11,13,4,6,15],"shift_direction":-1,"question_num":111,"has_decoy":false},{"rt":1042.7000000029802,"stimulus":"[A] option 1, [L] option 2, [G] neither","key_press":76,"name":"choice","trial_type":"html-keyboard-response","trial_index":142,"time_elapsed":261975,"internal_node_id":"0.0-142.0","subject":"S1C0820","sona":"41508","block":2,"time":"2021-09-18T21:36:12.714Z","response":"2nd","certainty":"high","char":"L","transposition":-1,"order":["shifted","swapped"],"probe_pitches":[1,6,1,4,8,-1,8,-1],"shifted_pitches":[1,6,1,5,8,-1,8,-1],"swapped_pitches":[1,6,1,8,4,-1,8,-1],"shift_direction":1,"question_num":121,"has_decoy":false},{"rt":393.69999998807907,"stimulus":"[A] option 1, [L] option 2, [G] neither","key_press":65,"name":"choice","trial_type":"html-keyboard-response","trial_index":153,"time_elapsed":277203,"internal_node_id":"0.0-153.0","subject":"S1C0820","sona":"41508","block":2,"time":"2021-09-18T21:36:12.714Z","response":"1st","certainty":"high","char":"A","transposition":2,"order":["shifted","swapped"],"probe_pitches":[5,7,14,12,7,14,15,8],"shifted_pitches":[5,7,14,11,7,14,15,8],"swapped_pitches":[5,7,14,7,12,14,15,8],"shift_direction":-1,"question_num":131,"has_decoy":false},{"rt":2320.0999999940395,"stimulus":"[A] option 1, [L] option 2, [G] neither","key_press":65,"name":"choice","trial_type":"html-keyboard-response","trial_index":164,"time_elapsed":295217,"internal_node_id":"0.0-164.0","subject":"S1C0820","sona":"41508","block":2,"time":"2021-09-18T21:36:12.714Z","response":"1st","certainty":"high","char":"A","transposition":0,"order":["swapped","shifted"],"probe_pitches":[1,4,9,1,4,6,9,-1],"shifted_pitches":[1,4,9,1,5,6,9,-1],"swapped_pitches":[1,4,9,4,1,6,9,-1],"shift_direction":1,"question_num":141,"has_decoy":false},{"rt":4329.70000000298,"stimulus":"[A] option 1, [L] option 2, [G] neither","key_press":71,"name":"choice","trial_type":"html-keyboard-response","trial_index":175,"time_elapsed":316752,"internal_node_id":"0.0-175.0","subject":"S1C0820","sona":"41508","block":2,"time":"2021-09-18T21:36:12.714Z","response":"neither","certainty":"high","char":"G","transposition":-2,"order":["shifted","swapped"],"probe_pitches":[1,6,8,6,3,11,1,8],"shifted_pitches":[1,6,8,6,4,11,1,8],"swapped_pitches":[1,6,8,3,6,11,1,8],"shift_direction":1,"question_num":151,"has_decoy":false},{"rt":1133.5,"stimulus":"[A] option 1, [L] option 2, [G] neither","key_press":76,"name":"choice","trial_type":"html-keyboard-response","trial_index":186,"time_elapsed":334933,"internal_node_id":"0.0-186.0","subject":"S1C0820","sona":"41508","block":2,"time":"2021-09-18T21:36:12.714Z","response":"2nd","certainty":"high","char":"L","transposition":3,"order":["shifted","swapped"],"probe_pitches":[7,11,9,11,4,2,11,9],"shifted_pitches":[7,11,9,12,4,2,11,9],"swapped_pitches":[7,11,9,4,11,2,11,9],"shift_direction":1,"question_num":161,"has_decoy":false},{"rt":2396.9000000059605,"stimulus":"[A] option 1, [L] option 2, [G] neither","key_press":71,"name":"choice","trial_type":"html-keyboard-response","trial_index":197,"time_elapsed":353194,"internal_node_id":"0.0-197.0","subject":"S1C0820","sona":"41508","block":2,"time":"2021-09-18T21:36:12.714Z","response":"neither","certainty":"high","char":"G","transposition":1,"order":["swapped","shifted"],"probe_pitches":[1,-1,1,-1,6,8,4,1],"shifted_pitches":[1,-1,1,-1,5,8,4,1],"swapped_pitches":[1,-1,1,6,-1,8,4,1],"shift_direction":-1,"question_num":171,"has_decoy":false},{"rt":1109.3999999910593,"stimulus":"[A] option 1, [L] option 2, [G] neither","key_press":65,"name":"choice","trial_type":"html-keyboard-response","trial_index":208,"time_elapsed":370456,"internal_node_id":"0.0-208.0","subject":"S1C0820","sona":"41508","block":2,"time":"2021-09-18T21:36:12.714Z","response":"1st","certainty":"high","char":"A","transposition":-3,"order":["shifted","swapped"],"probe_pitches":[8,11,5,7,8,15,5,8],"shifted_pitches":[8,11,5,6,8,15,5,8],"swapped_pitches":[8,11,5,8,7,15,5,8],"shift_direction":-1,"question_num":181,"has_decoy":false},{"rt":2833.0999999940395,"stimulus":"[A] option 1, [L] option 2, [G] neither","key_press":71,"name":"choice","trial_type":"html-keyboard-response","trial_index":219,"time_elapsed":389349,"internal_node_id":"0.0-219.0","subject":"S1C0820","sona":"41508","block":2,"time":"2021-09-18T21:36:12.714Z","response":"neither","certainty":"high","char":"G","transposition":1,"order":["swapped","shifted"],"probe_pitches":[5,3,9,14,6,8,9,13],"shifted_pitches":[5,3,9,14,7,8,9,13],"swapped_pitches":[5,3,9,6,14,8,9,13],"shift_direction":1,"question_num":191,"has_decoy":false}]