[{"rt":7082,"stimulus":"[A] option 1, [L] option 2, [G] neither","key_press":65,"name":"choice","trial_type":"html-keyboard-response","trial_index":15,"time_elapsed":71031,"internal_node_id":"0.0-15.0","response":"1st","certainty":"high","char":"A","transposition":-3,"order":["swapped","shifted"],"probe_pitches":[2,5,4,10,14,13,10,12],"shifted_pitches":[2,5,4,11,14,13,10,12],"swapped_pitches":[2,5,4,14,10,13,10,12],"shift_direction":1,"question_num":1,"has_decoy":false,"subject":"S1C0820","sona":"41508","block":1,"time":"2021-09-18T21:29:39.754Z"},{"rt":1710.3999999910593,"stimulus":"[A] option 1, [L] option 2, [G] neither","key_press":76,"name":"choice","trial_type":"html-keyboard-response","trial_index":26,"time_elapsed":90790,"internal_node_id":"0.0-26.0","response":"2nd","certainty":"high","char":"L","transposition":-1,"order":["shifted","swapped"],"probe_pitches":[4,6,12,4,9,6,9,13],"shifted_pitches":[4,6,12,4,8,6,9,13],"swapped_pitches":[4,6,12,9,4,6,9,13],"shift_direction":-1,"question_num":11,"has_decoy":false,"subject":"S1C0820","sona":"41508","block":1,"time":"2021-09-18T21:29:39.754Z"},{"rt":4945.4000000059605,"stimulus":"[A] option 1, [L] option 2, [G] neither","key_press":65,"name":"choice","trial_type":"html-keyboard-response","trial_index":37,"time_elapsed":111898,"internal_node_id":"0.0-37.0","response":"1st","certainty":"high","char":"A","transposition":0,"order":["swapped","shifted"],"probe_pitches":[2,8,9,4,8,13,3,11],"shifted_pitches":[2,8,9,4,7,13,3,11],"swapped_pitches":[2,8,9,8,4,13,3,11],"shift_direction":-1,"question_num":21,"has_decoy":false,"subject":"S1C0820","sona":"41508","block":1,"time":"2021-09-18T21:29:39.754Z"},{"rt":1134.5999999940395,"stimulus":"[A] option 1, [L] option 2, [G] neither","key_press":76,"name":"choice","trial_type":"html-keyboard-response","trial_index":48,"time_elapsed":128887,"internal_node_id":"0.0-48.0","response":"2nd","certainty":"high","char":"L","transposition":-1,"order":["shifted","swapped"],"probe_pitches":[6,7,8,2,6,4,14,4],"shifted_pitches":[6,7,8,2,5,4,14,4],"swapped_pitches":[6,7,8,6,2,4,14,4],"shift_direction":-1,"question_num":31,"has_decoy":false,"subject":"S1C0820","sona":"41508","block":1,"time":"2021-09-18T21:29:39.754Z"},{"rt":10228.90000000596,"stimulus":"[A] option 1, [L] option 2, [G] neither","key_press":71,"name":"choice","trial_type":"html-keyboard-response","trial_index":59,"time_elapsed":154569,"internal_node_id":"0.0-59.0","response":"neither","certainty":"high","char":"G","transposition":-2,"order":["shifted","swapped"],"probe_pitches":[8,5,3,8,10,5,1,8],"shifted_pitches":[8,5,3,7,10,5,1,8],"swapped_pitches":[8,5,3,10,8,5,1,8],"shift_direction":-1,"question_num":41,"has_decoy":false,"subject":"S1C0820","sona":"41508","block":1,"time":"2021-09-18T21:29:39.754Z"},{"rt":1907.2000000029802,"stimulus":"[A] option 1, [L] option 2, [G] neither","key_press":71,"name":"choice","trial_type":"html-keyboard-response","trial_index":70,"time_elapsed":171677,"internal_node_id":"0.0-70.0","response":"neither","certainty":"high","char":"G","transposition":-3,"order":["shifted","swapped"],"probe_pitches":[8,6,13,8,3,1,11,1],"shifted_pitches":[8,6,13,9,3,1,11,1],"swapped_pitches":[8,6,13,3,8,1,11,1],"shift_direction":1,"question_num":51,"has_decoy":false,"subject":"S1C0820","sona":"41508","block":1,"time":"2021-09-18T21:29:39.754Z"},{"rt":1705.5,"stimulus":"[A] option 1, [L] option 2, [G] neither","key_press":76,"name":"choice","trial_type":"html-keyboard-response","trial_index":81,"time_elapsed":189204,"internal_node_id":"0.0-81.0","response":"2nd","certainty":"high","char":"L","transposition":-1,"order":["swapped","shifted"],"probe_pitches":[13,10,6,8,13,6,8,3],"shifted_pitches":[13,10,6,8,14,6,8,3],"swapped_pitches":[13,10,6,13,8,6,8,3],"shift_direction":1,"question_num":61,"has_decoy":false,"subject":"S1C0820","sona":"41508","block":1,"time":"2021-09-18T21:29:39.754Z"},{"rt":1413.5,"stimulus":"[A] option 1, [L] option 2, [G] neither","key_press":71,"name":"choice","trial_type":"html-keyboard-response","trial_index":92,"time_elapsed":205766,"internal_node_id":"0.0-92.0","response":"neither","certainty":"high","char":"G","transposition":3,"order":["swapped","shifted"],"probe_pitches":[8,6,3,11,6,13,8,13],"shifted_pitches":[8,6,3,10,6,13,8,13],"swapped_pitches":[8,6,3,6,11,13,8,13],"shift_direction":-1,"question_num":71,"has_decoy":false,"subject":"S1C0820","sona":"41508","block":1,"time":"2021-09-18T21:29:39.754Z"},{"rt":2765.4000000059605,"stimulus":"[A] option 1, [L] option 2, [G] neither","key_press":76,"name":"choice","trial_type":"html-keyboard-response","trial_index":103,"time_elapsed":225838,"internal_node_id":"0.0-103.0","response":"2nd","certainty":"high","char":"L","transposition":3,"order":["swapped","shifted"],"probe_pitches":[11,6,5,8,13,4,5,6],"shifted_pitches":[11,6,5,9,13,4,5,6],"swapped_pitches":[11,6,5,13,8,4,5,6],"shift_direction":1,"question_num":81,"has_decoy":false,"subject":"S1C0820","sona":"41508","block":1,"time":"2021-09-18T21:29:39.754Z"},{"rt":792.4000000059605,"stimulus":"[A] option 1, [L] option 2, [G] neither","key_press":76,"name":"choice","trial_type":"html-keyboard-response","trial_index":114,"time_elapsed":241551,"internal_node_id":"0.0-114.0","response":"2nd","certainty":"high","char":"L","transposition":-3,"order":["shifted","swapped"],"probe_pitches":[13,8,14,13,4,8,4,5],"shifted_pitches":[13,8,14,12,4,8,4,5],"swapped_pitches":[13,8,14,4,13,8,4,5],"shift_direction":-1,"question_num":91,"has_decoy":false,"subject":"S1C0820","sona":"41508","block":1,"time":"2021-09-18T21:29:39.754Z"},{"rt":2187.5999999940395,"stimulus":"[A] option 1, [L] option 2, [G] neither","key_press":76,"name":"choice","trial_type":"html-keyboard-response","trial_index":125,"time_elapsed":258601,"internal_node_id":"0.0-125.0","response":"2nd","certainty":"high","char":"L","transposition":-2,"order":["shifted","swapped"],"probe_pitches":[7,5,9,5,2,8,10,13],"shifted_pitches":[7,5,9,6,2,8,10,13],"swapped_pitches":[7,5,9,2,5,8,10,13],"shift_direction":1,"question_num":101,"has_decoy":false,"subject":"S1C0820","sona":"41508","block":1,"time":"2021-09-18T21:29:39.754Z"},{"rt":886,"stimulus":"[A] option 1, [L] option 2, [G] neither","key_press":65,"name":"choice","trial_type":"html-keyboard-response","trial_index":136,"time_elapsed":275241,"internal_node_id":"0.0-136.0","response":"1st","certainty":"high","char":"A","transposition":1,"order":["swapped","shifted"],"probe_pitches":[2,3,7,12,14,5,10,6],"shifted_pitches":[2,3,7,12,13,5,10,6],"swapped_pitches":[2,3,7,14,12,5,10,6],"shift_direction":-1,"question_num":111,"has_decoy":false,"subject":"S1C0820","sona":"41508","block":1,"time":"2021-09-18T21:29:39.754Z"},{"rt":1359.5,"stimulus":"[A] option 1, [L] option 2, [G] neither","key_press":65,"name":"choice","trial_type":"html-keyboard-response","trial_index":147,"time_elapsed":291427,"internal_node_id":"0.0-147.0","response":"1st","certainty":"high","char":"A","transposition":-2,"order":["shifted","swapped"],"probe_pitches":[9,13,11,4,9,6,9,13],"shifted_pitches":[9,13,11,4,8,6,9,13],"swapped_pitches":[9,13,11,9,4,6,9,13],"shift_direction":-1,"question_num":121,"has_decoy":false,"subject":"S1C0820","sona":"41508","block":1,"time":"2021-09-18T21:29:39.754Z"},{"rt":2030.7999999970198,"stimulus":"[A] option 1, [L] option 2, [G] neither","key_press":71,"name":"choice","trial_type":"html-keyboard-response","trial_index":158,"time_elapsed":308659,"internal_node_id":"0.0-158.0","response":"neither","certainty":"high","char":"G","transposition":2,"order":["shifted","swapped"],"probe_pitches":[8,3,6,3,1,8,13,10],"shifted_pitches":[8,3,6,3,2,8,13,10],"swapped_pitches":[8,3,6,1,3,8,13,10],"shift_direction":1,"question_num":131,"has_decoy":false,"subject":"S1C0820","sona":"41508","block":1,"time":"2021-09-18T21:29:39.754Z"},{"rt":1339.0999999940395,"stimulus":"[A] option 1, [L] option 2, [G] neither","key_press":76,"name":"choice","trial_type":"html-keyboard-response","trial_index":169,"time_elapsed":325098,"internal_node_id":"0.0-169.0","response":"2nd","certainty":"high","char":"L","transposition":-3,"order":["swapped","shifted"],"probe_pitches":[6,1,8,1,4,11,1,11],"shifted_pitches":[6,1,8,2,4,11,1,11],"swapped_pitches":[6,1,8,4,1,11,1,11],"shift_direction":1,"question_num":141,"has_decoy":false,"subject":"S1C0820","sona":"41508","block":1,"time":"2021-09-18T21:29:39.754Z"},{"rt":5873.399999991059,"stimulus":"[A] option 1, [L] option 2, [G] neither","key_press":71,"name":"choice","trial_type":"html-keyboard-response","trial_index":180,"time_elapsed":347313,"internal_node_id":"0.0-180.0","response":"neither","certainty":"high","char":"G","transposition":2,"order":["shifted","swapped"],"probe_pitches":[6,8,6,14,9,5,6,12],"shifted_pitches":[6,8,6,14,10,5,6,12],"swapped_pitches":[6,8,6,9,14,5,6,12],"shift_direction":1,"question_num":151,"has_decoy":false,"subject":"S1C0820","sona":"41508","block":1,"time":"2021-09-18T21:29:39.754Z"},{"rt":682.1000000089407,"stimulus":"[A] option 1, [L] option 2, [G] neither","key_press":76,"name":"choice","trial_type":"html-keyboard-response","trial_index":191,"time_elapsed":362783,"internal_node_id":"0.0-191.0","response":"2nd","certainty":"high","char":"L","transposition":0,"order":["swapped","shifted"],"probe_pitches":[4,8,4,6,11,1,8,4],"shifted_pitches":[4,8,4,7,11,1,8,4],"swapped_pitches":[4,8,4,11,6,1,8,4],"shift_direction":1,"question_num":161,"has_decoy":false,"subject":"S1C0820","sona":"41508","block":1,"time":"2021-09-18T21:29:39.754Z"},{"rt":2389.4000000059605,"stimulus":"[A] option 1, [L] option 2, [G] neither","key_press":65,"name":"choice","trial_type":"html-keyboard-response","trial_index":202,"time_elapsed":380719,"internal_node_id":"0.0-202.0","response":"1st","certainty":"high","char":"A","transposition":1,"order":["shifted","swapped"],"probe_pitches":[13,11,6,4,9,1,4,9],"shifted_pitches":[13,11,6,4,8,1,4,9],"swapped_pitches":[13,11,6,9,4,1,4,9],"shift_direction":-1,"question_num":171,"has_decoy":false,"subject":"S1C0820","sona":"41508","block":1,"time":"2021-09-18T21:29:39.754Z"},{"rt":1491.7999999970198,"stimulus":"[A] option 1, [L] option 2, [G] neither","key_press":76,"name":"choice","trial_type":"html-keyboard-response","trial_index":213,"time_elapsed":397596,"internal_node_id":"0.0-213.0","response":"2nd","certainty":"high","char":"L","transposition":-1,"order":["swapped","shifted"],"probe_pitches":[5,8,10,13,5,3,5,1],"shifted_pitches":[5,8,10,13,4,3,5,1],"swapped_pitches":[5,8,10,5,13,3,5,1],"shift_direction":-1,"question_num":181,"has_decoy":false,"subject":"S1C0820","sona":"41508","block":1,"time":"2021-09-18T21:29:39.754Z"},{"rt":4502.600000008941,"stimulus":"[A] option 1, [L] option 2, [G] neither","key_press":71,"name":"choice","trial_type":"html-keyboard-response","trial_index":224,"time_elapsed":417017,"internal_node_id":"0.0-224.0","response":"neither","certainty":"high","char":"G","transposition":-2,"order":["swapped","shifted"],"probe_pitches":[3,9,2,3,8,13,9,11],"shifted_pitches":[3,9,2,4,8,13,9,11],"swapped_pitches":[3,9,2,8,3,13,9,11],"shift_direction":1,"question_num":191,"has_decoy":false,"subject":"S1C0820","sona":"41508","block":1,"time":"2021-09-18T21:29:39.754Z"}]