[{"rt":3439.7999999970198,"stimulus":"[A] option 1, [L] option 2, [G] neither","key_press":65,"name":"choice","trial_type":"html-keyboard-response","trial_index":10,"time_elapsed":22411,"internal_node_id":"0.0-10.0","subject":"S1C0820","sona":"41508","block":5,"time":"2021-09-18T21:59:29.777Z","response":"1st","certainty":"high","char":"A","transposition":3,"order":["swapped","shifted"],"probe_pitches":[0,6,10,6,2,7,5,11],"shifted_pitches":[0,6,10,6,3,7,5,11],"swapped_pitches":[0,6,10,2,6,7,5,11],"shift_direction":1,"question_num":1,"has_decoy":false},{"rt":2849.0999999940395,"stimulus":"[A] option 1, [L] option 2, [G] neither","key_press":71,"name":"choice","trial_type":"html-keyboard-response","trial_index":21,"time_elapsed":42967,"internal_node_id":"0.0-21.0","subject":"S1C0820","sona":"41508","block":5,"time":"2021-09-18T21:59:29.777Z","response":"neither","certainty":"high","char":"G","transposition":-3,"order":["shifted","swapped"],"probe_pitches":[1,4,1,4,8,6,-1,4],"shifted_pitches":[1,4,1,4,7,6,-1,4],"swapped_pitches":[1,4,1,8,4,6,-1,4],"shift_direction":-1,"question_num":11,"has_decoy":false},{"rt":4891.0999999940395,"stimulus":"[A] option 1, [L] option 2, [G] neither","key_press":71,"name":"choice","trial_type":"html-keyboard-response","trial_index":32,"time_elapsed":63628,"internal_node_id":"0.0-32.0","subject":"S1C0820","sona":"41508","block":5,"time":"2021-09-18T21:59:29.777Z","response":"neither","certainty":"high","char":"G","transposition":-2,"order":["swapped","shifted"],"probe_pitches":[10,11,10,3,2,0,8,3],"shifted_pitches":[10,11,10,4,2,0,8,3],"swapped_pitches":[10,11,10,2,3,0,8,3],"shift_direction":1,"question_num":21,"has_decoy":false},{"rt":1085.1000000089407,"stimulus":"[A] option 1, [L] option 2, [G] neither","key_press":76,"name":"choice","trial_type":"html-keyboard-response","trial_index":43,"time_elapsed":81418,"internal_node_id":"0.0-43.0","subject":"S1C0820","sona":"41508","block":5,"time":"2021-09-18T21:59:29.777Z","response":"2nd","certainty":"high","char":"L","transposition":-1,"order":["shifted","swapped"],"probe_pitches":[9,7,3,6,9,4,1,2],"shifted_pitches":[9,7,3,5,9,4,1,2],"swapped_pitches":[9,7,3,9,6,4,1,2],"shift_direction":-1,"question_num":31,"has_decoy":false},{"rt":2773.2000000029802,"stimulus":"[A] option 1, [L] option 2, [G] neither","key_press":65,"name":"choice","trial_type":"html-keyboard-response","trial_index":54,"time_elapsed":100871,"internal_node_id":"0.0-54.0","subject":"S1C0820","sona":"41508","block":5,"time":"2021-09-18T21:59:29.777Z","response":"1st","certainty":"high","char":"A","transposition":0,"order":["shifted","swapped"],"probe_pitches":[3,0,2,10,1,3,6,3],"shifted_pitches":[3,0,2,9,1,3,6,3],"swapped_pitches":[3,0,2,1,10,3,6,3],"shift_direction":-1,"question_num":41,"has_decoy":false},{"rt":2115.7999999970198,"stimulus":"[A] option 1, [L] option 2, [G] neither","key_press":71,"name":"choice","trial_type":"html-keyboard-response","trial_index":65,"time_elapsed":117643,"internal_node_id":"0.0-65.0","subject":"S1C0820","sona":"41508","block":5,"time":"2021-09-18T21:59:29.777Z","response":"neither","certainty":"high","char":"G","transposition":0,"order":["swapped","shifted"],"probe_pitches":[9,11,9,4,6,2,6,4],"shifted_pitches":[9,11,9,4,5,2,6,4],"swapped_pitches":[9,11,9,6,4,2,6,4],"shift_direction":-1,"question_num":51,"has_decoy":false},{"rt":692.7999999970198,"stimulus":"[A] option 1, [L] option 2, [G] neither","key_press":76,"name":"choice","trial_type":"html-keyboard-response","trial_index":76,"time_elapsed":133581,"internal_node_id":"0.0-76.0","subject":"S1C0820","sona":"41508","block":5,"time":"2021-09-18T21:59:29.777Z","response":"2nd","certainty":"high","char":"L","transposition":2,"order":["shifted","swapped"],"probe_pitches":[0,6,1,9,6,2,1,9],"shifted_pitches":[0,6,1,10,6,2,1,9],"swapped_pitches":[0,6,1,6,9,2,1,9],"shift_direction":1,"question_num":61,"has_decoy":false},{"rt":378,"stimulus":"[A] option 1, [L] option 2, [G] neither","key_press":76,"name":"choice","trial_type":"html-keyboard-response","trial_index":87,"time_elapsed":148540,"internal_node_id":"0.0-87.0","subject":"S1C0820","sona":"41508","block":5,"time":"2021-09-18T21:59:29.777Z","response":"2nd","certainty":"high","char":"L","transposition":-3,"order":["shifted","swapped"],"probe_pitches":[12,9,8,12,10,9,12,10],"shifted_pitches":[12,9,8,11,10,9,12,10],"swapped_pitches":[12,9,8,10,12,9,12,10],"shift_direction":-1,"question_num":71,"has_decoy":false},{"rt":3679.4000000059605,"stimulus":"[A] option 1, [L] option 2, [G] neither","key_press":71,"name":"choice","trial_type":"html-keyboard-response","trial_index":98,"time_elapsed":166807,"internal_node_id":"0.0-98.0","subject":"S1C0820","sona":"41508","block":5,"time":"2021-09-18T21:59:29.777Z","response":"neither","certainty":"high","char":"G","transposition":-3,"order":["shifted","swapped"],"probe_pitches":[6,1,4,11,9,1,4,11],"shifted_pitches":[6,1,4,12,9,1,4,11],"swapped_pitches":[6,1,4,9,11,1,4,11],"shift_direction":1,"question_num":81,"has_decoy":false},{"rt":1924,"stimulus":"[A] option 1, [L] option 2, [G] neither","key_press":71,"name":"choice","trial_type":"html-keyboard-response","trial_index":109,"time_elapsed":183484,"internal_node_id":"0.0-109.0","subject":"S1C0820","sona":"41508","block":5,"time":"2021-09-18T21:59:29.777Z","response":"neither","certainty":"high","char":"G","transposition":-2,"order":["swapped","shifted"],"probe_pitches":[6,2,4,1,8,6,8,11],"shifted_pitches":[6,2,4,1,7,6,8,11],"swapped_pitches":[6,2,4,8,1,6,8,11],"shift_direction":-1,"question_num":91,"has_decoy":false},{"rt":1440.7000000029802,"stimulus":"[A] option 1, [L] option 2, [G] neither","key_press":65,"name":"choice","trial_type":"html-keyboard-response","trial_index":120,"time_elapsed":199871,"internal_node_id":"0.0-120.0","subject":"S1C0820","sona":"41508","block":5,"time":"2021-09-18T21:59:29.777Z","response":"1st","certainty":"high","char":"A","transposition":1,"order":["swapped","shifted"],"probe_pitches":[7,2,5,2,7,0,2,12],"shifted_pitches":[7,2,5,2,6,0,2,12],"swapped_pitches":[7,2,5,7,2,0,2,12],"shift_direction":-1,"question_num":101,"has_decoy":false},{"rt":1280.4000000059605,"stimulus":"[A] option 1, [L] option 2, [G] neither","key_press":71,"name":"choice","trial_type":"html-keyboard-response","trial_index":131,"time_elapsed":216132,"internal_node_id":"0.0-131.0","subject":"S1C0820","sona":"41508","block":5,"time":"2021-09-18T21:59:29.777Z","response":"neither","certainty":"high","char":"G","transposition":-1,"order":["swapped","shifted"],"probe_pitches":[-1,1,8,1,6,11,1,4],"shifted_pitches":[-1,1,8,2,6,11,1,4],"swapped_pitches":[-1,1,8,6,1,11,1,4],"shift_direction":1,"question_num":111,"has_decoy":false},{"rt":368.5,"stimulus":"[A] option 1, [L] option 2, [G] neither","key_press":76,"name":"choice","trial_type":"html-keyboard-response","trial_index":142,"time_elapsed":231269,"internal_node_id":"0.0-142.0","subject":"S1C0820","sona":"41508","block":5,"time":"2021-09-18T21:59:29.777Z","response":"2nd","certainty":"high","char":"L","transposition":-1,"order":["swapped","shifted"],"probe_pitches":[3,4,6,10,1,4,8,5],"shifted_pitches":[3,4,6,10,2,4,8,5],"swapped_pitches":[3,4,6,1,10,4,8,5],"shift_direction":1,"question_num":121,"has_decoy":false},{"rt":547.7000000029802,"stimulus":"[A] option 1, [L] option 2, [G] neither","key_press":76,"name":"choice","trial_type":"html-keyboard-response","trial_index":153,"time_elapsed":247282,"internal_node_id":"0.0-153.0","subject":"S1C0820","sona":"41508","block":5,"time":"2021-09-18T21:59:29.777Z","response":"2nd","certainty":"high","char":"L","transposition":2,"order":["swapped","shifted"],"probe_pitches":[9,6,-1,6,2,4,9,2],"shifted_pitches":[9,6,-1,7,2,4,9,2],"swapped_pitches":[9,6,-1,2,6,4,9,2],"shift_direction":1,"question_num":131,"has_decoy":false},{"rt":2277.2000000029802,"stimulus":"[A] option 1, [L] option 2, [G] neither","key_press":71,"name":"choice","trial_type":"html-keyboard-response","trial_index":164,"time_elapsed":264255,"internal_node_id":"0.0-164.0","subject":"S1C0820","sona":"41508","block":5,"time":"2021-09-18T21:59:29.777Z","response":"neither","certainty":"high","char":"G","transposition":1,"order":["swapped","shifted"],"probe_pitches":[3,1,8,6,1,11,3,1],"shifted_pitches":[3,1,8,6,0,11,3,1],"swapped_pitches":[3,1,8,1,6,11,3,1],"shift_direction":-1,"question_num":141,"has_decoy":false},{"rt":1314.9000000059605,"stimulus":"[A] option 1, [L] option 2, [G] neither","key_press":76,"name":"choice","trial_type":"html-keyboard-response","trial_index":175,"time_elapsed":280664,"internal_node_id":"0.0-175.0","subject":"S1C0820","sona":"41508","block":5,"time":"2021-09-18T21:59:29.777Z","response":"2nd","certainty":"high","char":"L","transposition":-3,"order":["shifted","swapped"],"probe_pitches":[4,1,6,11,7,0,11,9],"shifted_pitches":[4,1,6,11,8,0,11,9],"swapped_pitches":[4,1,6,7,11,0,11,9],"shift_direction":1,"question_num":151,"has_decoy":false},{"rt":2776.5,"stimulus":"[A] option 1, [L] option 2, [G] neither","key_press":65,"name":"choice","trial_type":"html-keyboard-response","trial_index":186,"time_elapsed":298467,"internal_node_id":"0.0-186.0","subject":"S1C0820","sona":"41508","block":5,"time":"2021-09-18T21:59:29.777Z","response":"1st","certainty":"high","char":"A","transposition":3,"order":["shifted","swapped"],"probe_pitches":[-1,1,6,-1,4,6,9,1],"shifted_pitches":[-1,1,6,-1,3,6,9,1],"swapped_pitches":[-1,1,6,4,-1,6,9,1],"shift_direction":-1,"question_num":161,"has_decoy":false},{"rt":6762.79999999702,"stimulus":"[A] option 1, [L] option 2, [G] neither","key_press":71,"name":"choice","trial_type":"html-keyboard-response","trial_index":197,"time_elapsed":319781,"internal_node_id":"0.0-197.0","subject":"S1C0820","sona":"41508","block":5,"time":"2021-09-18T21:59:29.777Z","response":"neither","certainty":"high","char":"G","transposition":-1,"order":["swapped","shifted"],"probe_pitches":[-1,1,6,11,3,-1,6,8],"shifted_pitches":[-1,1,6,12,3,-1,6,8],"swapped_pitches":[-1,1,6,3,11,-1,6,8],"shift_direction":1,"question_num":171,"has_decoy":false},{"rt":1685.5,"stimulus":"[A] option 1, [L] option 2, [G] neither","key_press":76,"name":"choice","trial_type":"html-keyboard-response","trial_index":208,"time_elapsed":336331,"internal_node_id":"0.0-208.0","subject":"S1C0820","sona":"41508","block":5,"time":"2021-09-18T21:59:29.777Z","response":"2nd","certainty":"high","char":"L","transposition":-2,"order":["shifted","swapped"],"probe_pitches":[-1,4,-1,4,11,7,2,9],"shifted_pitches":[-1,4,-1,5,11,7,2,9],"swapped_pitches":[-1,4,-1,11,4,7,2,9],"shift_direction":1,"question_num":181,"has_decoy":false},{"rt":424.79999999701977,"stimulus":"[A] option 1, [L] option 2, [G] neither","key_press":65,"name":"choice","trial_type":"html-keyboard-response","trial_index":219,"time_elapsed":351327,"internal_node_id":"0.0-219.0","subject":"S1C0820","sona":"41508","block":5,"time":"2021-09-18T21:59:29.777Z","response":"1st","certainty":"high","char":"A","transposition":-2,"order":["shifted","swapped"],"probe_pitches":[4,7,9,11,2,9,-1,7],"shifted_pitches":[4,7,9,11,1,9,-1,7],"swapped_pitches":[4,7,9,2,11,9,-1,7],"shift_direction":-1,"question_num":191,"has_decoy":false}]