[{"rt":3465.100000143051,"stimulus":"[A] option 1, [L] option 2, [G] neither","key_press":71,"name":"choice","trial_type":"html-keyboard-response","trial_index":10,"time_elapsed":27947,"internal_node_id":"0.0-10.0","subject":"S1C1611","sona":"41562","block":4,"time":"2021-09-15T18:48:56.010Z","response":"neither","certainty":"high","char":"G","transposition":3,"order":["swapped","shifted"],"probe_pitches":[5,8,10,3,-2,0,10,3,-2,0,10,8,5,3,0,10],"shifted_pitches":[5,8,10,3,-2,0,10,4,-2,0,10,8,5,3,0,10],"swapped_pitches":[5,8,10,3,-2,0,10,-2,3,0,10,8,5,3,0,10],"shift_direction":1,"question_num":1,"has_decoy":false},{"rt":4521.700000047684,"stimulus":"[A] option 1, [L] option 2, [G] neither","key_press":76,"name":"choice","trial_type":"html-keyboard-response","trial_index":21,"time_elapsed":55618,"internal_node_id":"0.0-21.0","subject":"S1C1611","sona":"41562","block":4,"time":"2021-09-15T18:48:56.010Z","response":"2nd","certainty":"high","char":"L","transposition":3,"order":["swapped","shifted"],"probe_pitches":[13,10,11,5,11,5,2,9,5,14,7,5,3,14,11,3],"shifted_pitches":[13,10,11,5,11,5,2,8,5,14,7,5,3,14,11,3],"swapped_pitches":[13,10,11,5,11,5,2,5,9,14,7,5,3,14,11,3],"shift_direction":-1,"question_num":11,"has_decoy":false},{"rt":3419.7999999523163,"stimulus":"[A] option 1, [L] option 2, [G] neither","key_press":65,"name":"choice","trial_type":"html-keyboard-response","trial_index":32,"time_elapsed":82264,"internal_node_id":"0.0-32.0","subject":"S1C1611","sona":"41562","block":4,"time":"2021-09-15T18:48:56.010Z","response":"1st","certainty":"high","char":"A","transposition":-3,"order":["shifted","swapped"],"probe_pitches":[12,11,13,6,13,10,3,8,12,13,5,12,4,7,3,7],"shifted_pitches":[12,11,13,6,13,10,3,9,12,13,5,12,4,7,3,7],"swapped_pitches":[12,11,13,6,13,10,3,12,8,13,5,12,4,7,3,7],"shift_direction":1,"question_num":21,"has_decoy":false},{"rt":593.3999998569489,"stimulus":"[A] option 1, [L] option 2, [G] neither","key_press":76,"name":"choice","trial_type":"html-keyboard-response","trial_index":43,"time_elapsed":105964,"internal_node_id":"0.0-43.0","subject":"S1C1611","sona":"41562","block":4,"time":"2021-09-15T18:48:56.010Z","response":"2nd","certainty":"high","char":"L","transposition":2,"order":["swapped","shifted"],"probe_pitches":[3,0,3,10,8,-2,0,10,3,5,-2,3,5,8,3,-2],"shifted_pitches":[3,0,3,10,8,-2,0,11,3,5,-2,3,5,8,3,-2],"swapped_pitches":[3,0,3,10,8,-2,0,3,10,5,-2,3,5,8,3,-2],"shift_direction":1,"question_num":31,"has_decoy":false},{"rt":5510.5,"stimulus":"[A] option 1, [L] option 2, [G] neither","key_press":76,"name":"choice","trial_type":"html-keyboard-response","trial_index":54,"time_elapsed":133991,"internal_node_id":"0.0-54.0","subject":"S1C1611","sona":"41562","block":4,"time":"2021-09-15T18:48:56.010Z","response":"2nd","certainty":"high","char":"L","transposition":0,"order":["shifted","swapped"],"probe_pitches":[-2,2,0,2,7,-2,5,0,7,-2,2,-2,0,-2,10,5],"shifted_pitches":[-2,2,0,2,7,-2,5,0,6,-2,2,-2,0,-2,10,5],"swapped_pitches":[-2,2,0,2,7,-2,5,7,0,-2,2,-2,0,-2,10,5],"shift_direction":-1,"question_num":41,"has_decoy":false},{"rt":751.2000000476837,"stimulus":"[A] option 1, [L] option 2, [G] neither","key_press":65,"name":"choice","trial_type":"html-keyboard-response","trial_index":65,"time_elapsed":157646,"internal_node_id":"0.0-65.0","subject":"S1C1611","sona":"41562","block":4,"time":"2021-09-15T18:48:56.010Z","response":"1st","certainty":"high","char":"A","transposition":-2,"order":["swapped","shifted"],"probe_pitches":[-2,2,5,0,2,-2,7,0,5,-2,10,0,7,-2,5,7],"shifted_pitches":[-2,2,5,0,2,-2,7,-1,5,-2,10,0,7,-2,5,7],"swapped_pitches":[-2,2,5,0,2,-2,7,5,0,-2,10,0,7,-2,5,7],"shift_direction":-1,"question_num":51,"has_decoy":false},{"rt":1671.3000001907349,"stimulus":"[A] option 1, [L] option 2, [G] neither","key_press":65,"name":"choice","trial_type":"html-keyboard-response","trial_index":76,"time_elapsed":181919,"internal_node_id":"0.0-76.0","subject":"S1C1611","sona":"41562","block":4,"time":"2021-09-15T18:48:56.010Z","response":"1st","certainty":"high","char":"A","transposition":-2,"order":["shifted","swapped"],"probe_pitches":[8,10,8,3,8,-2,5,-2,10,5,1,5,8,-2,3,8],"shifted_pitches":[8,10,8,3,8,-2,5,-2,9,5,1,5,8,-2,3,8],"swapped_pitches":[8,10,8,3,8,-2,5,10,-2,5,1,5,8,-2,3,8],"shift_direction":-1,"question_num":61,"has_decoy":false},{"rt":7107.5,"stimulus":"[A] option 1, [L] option 2, [G] neither","key_press":71,"name":"choice","trial_type":"html-keyboard-response","trial_index":87,"time_elapsed":211444,"internal_node_id":"0.0-87.0","subject":"S1C1611","sona":"41562","block":4,"time":"2021-09-15T18:48:56.010Z","response":"neither","certainty":"high","char":"G","transposition":0,"order":["swapped","shifted"],"probe_pitches":[5,7,14,11,13,8,7,9,6,7,11,7,2,14,7,5],"shifted_pitches":[5,7,14,11,13,8,7,10,6,7,11,7,2,14,7,5],"swapped_pitches":[5,7,14,11,13,8,7,6,9,7,11,7,2,14,7,5],"shift_direction":1,"question_num":71,"has_decoy":false},{"rt":1163.9000000953674,"stimulus":"[A] option 1, [L] option 2, [G] neither","key_press":65,"name":"choice","trial_type":"html-keyboard-response","trial_index":98,"time_elapsed":235374,"internal_node_id":"0.0-98.0","subject":"S1C1611","sona":"41562","block":4,"time":"2021-09-15T18:48:56.010Z","response":"1st","certainty":"high","char":"A","transposition":-1,"order":["swapped","shifted"],"probe_pitches":[10,8,6,-2,3,1,-2,8,6,3,1,6,-2,1,6,8],"shifted_pitches":[10,8,6,-2,3,1,-2,7,6,3,1,6,-2,1,6,8],"swapped_pitches":[10,8,6,-2,3,1,-2,6,8,3,1,6,-2,1,6,8],"shift_direction":-1,"question_num":81,"has_decoy":false},{"rt":1060.8999998569489,"stimulus":"[A] option 1, [L] option 2, [G] neither","key_press":76,"name":"choice","trial_type":"html-keyboard-response","trial_index":109,"time_elapsed":259249,"internal_node_id":"0.0-109.0","subject":"S1C1611","sona":"41562","block":4,"time":"2021-09-15T18:48:56.010Z","response":"2nd","certainty":"high","char":"L","transposition":1,"order":["shifted","swapped"],"probe_pitches":[-2,0,3,-2,5,3,-2,7,3,5,-2,3,-2,3,-2,0],"shifted_pitches":[-2,0,3,-2,5,3,-2,7,4,5,-2,3,-2,3,-2,0],"swapped_pitches":[-2,0,3,-2,5,3,-2,3,7,5,-2,3,-2,3,-2,0],"shift_direction":1,"question_num":91,"has_decoy":false},{"rt":1096.7999999523163,"stimulus":"[A] option 1, [L] option 2, [G] neither","key_press":76,"name":"choice","trial_type":"html-keyboard-response","trial_index":120,"time_elapsed":282771,"internal_node_id":"0.0-120.0","subject":"S1C1611","sona":"41562","block":4,"time":"2021-09-15T18:48:56.010Z","response":"2nd","certainty":"high","char":"L","transposition":2,"order":["swapped","shifted"],"probe_pitches":[5,10,14,8,3,7,11,8,5,3,12,13,10,13,10,8],"shifted_pitches":[5,10,14,8,3,7,11,8,6,3,12,13,10,13,10,8],"swapped_pitches":[5,10,14,8,3,7,11,5,8,3,12,13,10,13,10,8],"shift_direction":1,"question_num":101,"has_decoy":false},{"rt":676.2999999523163,"stimulus":"[A] option 1, [L] option 2, [G] neither","key_press":76,"name":"choice","trial_type":"html-keyboard-response","trial_index":131,"time_elapsed":306387,"internal_node_id":"0.0-131.0","subject":"S1C1611","sona":"41562","block":4,"time":"2021-09-15T18:48:56.010Z","response":"2nd","certainty":"high","char":"L","transposition":-1,"order":["shifted","swapped"],"probe_pitches":[9,5,8,12,9,12,5,6,12,11,8,10,7,2,3,14],"shifted_pitches":[9,5,8,12,9,12,5,6,13,11,8,10,7,2,3,14],"swapped_pitches":[9,5,8,12,9,12,5,12,6,11,8,10,7,2,3,14],"shift_direction":1,"question_num":111,"has_decoy":false},{"rt":7230.299999952316,"stimulus":"[A] option 1, [L] option 2, [G] neither","key_press":76,"name":"choice","trial_type":"html-keyboard-response","trial_index":142,"time_elapsed":336271,"internal_node_id":"0.0-142.0","subject":"S1C1611","sona":"41562","block":4,"time":"2021-09-15T18:48:56.010Z","response":"2nd","certainty":"high","char":"L","transposition":-2,"order":["shifted","swapped"],"probe_pitches":[7,6,7,12,13,3,8,5,2,9,11,5,3,12,10,7],"shifted_pitches":[7,6,7,12,13,3,8,4,2,9,11,5,3,12,10,7],"swapped_pitches":[7,6,7,12,13,3,8,2,5,9,11,5,3,12,10,7],"shift_direction":-1,"question_num":121,"has_decoy":false},{"rt":2678.7000000476837,"stimulus":"[A] option 1, [L] option 2, [G] neither","key_press":76,"name":"choice","trial_type":"html-keyboard-response","trial_index":153,"time_elapsed":361553,"internal_node_id":"0.0-153.0","subject":"S1C1611","sona":"41562","block":4,"time":"2021-09-15T18:48:56.010Z","response":"2nd","certainty":"high","char":"L","transposition":-3,"order":["shifted","swapped"],"probe_pitches":[3,1,8,5,8,3,10,3,8,5,8,10,1,5,8,-2],"shifted_pitches":[3,1,8,5,8,3,10,3,7,5,8,10,1,5,8,-2],"swapped_pitches":[3,1,8,5,8,3,10,8,3,5,8,10,1,5,8,-2],"shift_direction":-1,"question_num":131,"has_decoy":false},{"rt":4428.5,"stimulus":"[A] option 1, [L] option 2, [G] neither","key_press":76,"name":"choice","trial_type":"html-keyboard-response","trial_index":164,"time_elapsed":388363,"internal_node_id":"0.0-164.0","subject":"S1C1611","sona":"41562","block":4,"time":"2021-09-15T18:48:56.010Z","response":"2nd","certainty":"high","char":"L","transposition":1,"order":["swapped","shifted"],"probe_pitches":[4,6,4,9,13,3,11,9,6,5,9,6,13,9,13,9],"shifted_pitches":[4,6,4,9,13,3,11,9,7,5,9,6,13,9,13,9],"swapped_pitches":[4,6,4,9,13,3,11,6,9,5,9,6,13,9,13,9],"shift_direction":1,"question_num":141,"has_decoy":false},{"rt":7334,"stimulus":"[A] option 1, [L] option 2, [G] neither","key_press":65,"name":"choice","trial_type":"html-keyboard-response","trial_index":175,"time_elapsed":417732,"internal_node_id":"0.0-175.0","subject":"S1C1611","sona":"41562","block":4,"time":"2021-09-15T18:48:56.010Z","response":"1st","certainty":"high","char":"A","transposition":-3,"order":["shifted","swapped"],"probe_pitches":[1,3,-2,6,3,8,-2,10,3,6,8,6,1,3,-2,3],"shifted_pitches":[1,3,-2,6,3,8,-2,10,4,6,8,6,1,3,-2,3],"swapped_pitches":[1,3,-2,6,3,8,-2,3,10,6,8,6,1,3,-2,3],"shift_direction":1,"question_num":151,"has_decoy":false},{"rt":3833.899999856949,"stimulus":"[A] option 1, [L] option 2, [G] neither","key_press":76,"name":"choice","trial_type":"html-keyboard-response","trial_index":186,"time_elapsed":444217,"internal_node_id":"0.0-186.0","subject":"S1C1611","sona":"41562","block":4,"time":"2021-09-15T18:48:56.010Z","response":"2nd","certainty":"high","char":"L","transposition":-1,"order":["swapped","shifted"],"probe_pitches":[3,0,7,10,7,10,7,-2,10,7,-2,7,5,0,10,0],"shifted_pitches":[3,0,7,10,7,10,7,-1,10,7,-2,7,5,0,10,0],"swapped_pitches":[3,0,7,10,7,10,7,10,-2,7,-2,7,5,0,10,0],"shift_direction":1,"question_num":161,"has_decoy":false},{"rt":1798.1999998092651,"stimulus":"[A] option 1, [L] option 2, [G] neither","key_press":76,"name":"choice","trial_type":"html-keyboard-response","trial_index":197,"time_elapsed":468649,"internal_node_id":"0.0-197.0","subject":"S1C1611","sona":"41562","block":4,"time":"2021-09-15T18:48:56.010Z","response":"2nd","certainty":"high","char":"L","transposition":-2,"order":["shifted","swapped"],"probe_pitches":[14,11,9,14,6,7,8,12,6,14,2,11,14,12,10,6],"shifted_pitches":[14,11,9,14,6,7,8,12,5,14,2,11,14,12,10,6],"swapped_pitches":[14,11,9,14,6,7,8,6,12,14,2,11,14,12,10,6],"shift_direction":-1,"question_num":171,"has_decoy":false},{"rt":1676,"stimulus":"[A] option 1, [L] option 2, [G] neither","key_press":76,"name":"choice","trial_type":"html-keyboard-response","trial_index":208,"time_elapsed":493316,"internal_node_id":"0.0-208.0","subject":"S1C1611","sona":"41562","block":4,"time":"2021-09-15T18:48:56.010Z","response":"2nd","certainty":"high","char":"L","transposition":-1,"order":["swapped","shifted"],"probe_pitches":[6,4,2,4,9,3,9,12,3,2,12,3,2,10,4,13],"shifted_pitches":[6,4,2,4,9,3,9,11,3,2,12,3,2,10,4,13],"swapped_pitches":[6,4,2,4,9,3,9,3,12,2,12,3,2,10,4,13],"shift_direction":-1,"question_num":181,"has_decoy":false},{"rt":1414.8999998569489,"stimulus":"[A] option 1, [L] option 2, [G] neither","key_press":65,"name":"choice","trial_type":"html-keyboard-response","trial_index":219,"time_elapsed":517126,"internal_node_id":"0.0-219.0","subject":"S1C1611","sona":"41562","block":4,"time":"2021-09-15T18:48:56.010Z","response":"1st","certainty":"high","char":"A","transposition":-3,"order":["shifted","swapped"],"probe_pitches":[5,11,5,3,9,10,8,11,13,10,6,13,9,13,8,7],"shifted_pitches":[5,11,5,3,9,10,8,11,12,10,6,13,9,13,8,7],"swapped_pitches":[5,11,5,3,9,10,8,13,11,10,6,13,9,13,8,7],"shift_direction":-1,"question_num":191,"has_decoy":false}]