[{"rt":8002.5,"stimulus":"[A] option 1, [L] option 2, [G] neither","key_press":65,"name":"choice","trial_type":"html-keyboard-response","trial_index":15,"time_elapsed":133315,"internal_node_id":"0.0-15.0","response":"1st","certainty":"high","char":"A","transposition":3,"order":["swapped","shifted"],"probe_pitches":[7,8,11,8,-1,4,7,11,5,10,2,9,10,4,10,0],"shifted_pitches":[7,8,11,8,-1,4,7,11,6,10,2,9,10,4,10,0],"swapped_pitches":[7,8,11,8,-1,4,7,5,11,10,2,9,10,4,10,0],"shift_direction":1,"question_num":1,"has_decoy":false,"subject":"S1C1611","sona":"41562","block":1,"time":"2021-09-15T17:52:27.699Z"},{"rt":2436.0999999046326,"stimulus":"[A] option 1, [L] option 2, [G] neither","key_press":76,"name":"choice","trial_type":"html-keyboard-response","trial_index":26,"time_elapsed":160339,"internal_node_id":"0.0-26.0","response":"2nd","certainty":"high","char":"L","transposition":-3,"order":["swapped","shifted"],"probe_pitches":[12,9,2,4,7,14,7,4,14,7,9,14,12,2,9,4],"shifted_pitches":[12,9,2,4,7,14,7,4,15,7,9,14,12,2,9,4],"swapped_pitches":[12,9,2,4,7,14,7,14,4,7,9,14,12,2,9,4],"shift_direction":1,"question_num":11,"has_decoy":false,"subject":"S1C1611","sona":"41562","block":1,"time":"2021-09-15T17:52:27.699Z"},{"rt":2006.7999999523163,"stimulus":"[A] option 1, [L] option 2, [G] neither","key_press":65,"name":"choice","trial_type":"html-keyboard-response","trial_index":37,"time_elapsed":185967,"internal_node_id":"0.0-37.0","response":"1st","certainty":"high","char":"A","transposition":-2,"order":["shifted","swapped"],"probe_pitches":[6,4,2,9,4,9,4,11,6,4,2,4,9,4,2,14],"shifted_pitches":[6,4,2,9,4,9,4,10,6,4,2,4,9,4,2,14],"swapped_pitches":[6,4,2,9,4,9,4,6,11,4,2,4,9,4,2,14],"shift_direction":-1,"question_num":21,"has_decoy":false,"subject":"S1C1611","sona":"41562","block":1,"time":"2021-09-15T17:52:27.699Z"},{"rt":2099.600000143051,"stimulus":"[A] option 1, [L] option 2, [G] neither","key_press":76,"name":"choice","trial_type":"html-keyboard-response","trial_index":48,"time_elapsed":211497,"internal_node_id":"0.0-48.0","response":"2nd","certainty":"high","char":"L","transposition":2,"order":["shifted","swapped"],"probe_pitches":[11,7,6,5,7,0,11,3,2,5,-1,3,6,-1,1,6],"shifted_pitches":[11,7,6,5,7,0,11,4,2,5,-1,3,6,-1,1,6],"swapped_pitches":[11,7,6,5,7,0,11,2,3,5,-1,3,6,-1,1,6],"shift_direction":1,"question_num":31,"has_decoy":false,"subject":"S1C1611","sona":"41562","block":1,"time":"2021-09-15T17:52:27.699Z"},{"rt":991.2000000476837,"stimulus":"[A] option 1, [L] option 2, [G] neither","key_press":76,"name":"choice","trial_type":"html-keyboard-response","trial_index":59,"time_elapsed":235775,"internal_node_id":"0.0-59.0","response":"2nd","certainty":"high","char":"L","transposition":3,"order":["swapped","shifted"],"probe_pitches":[14,9,4,2,7,12,14,7,4,9,2,14,7,12,4,2],"shifted_pitches":[14,9,4,2,7,12,14,7,5,9,2,14,7,12,4,2],"swapped_pitches":[14,9,4,2,7,12,14,4,7,9,2,14,7,12,4,2],"shift_direction":1,"question_num":41,"has_decoy":false,"subject":"S1C1611","sona":"41562","block":1,"time":"2021-09-15T17:52:27.699Z"},{"rt":1744.5999999046326,"stimulus":"[A] option 1, [L] option 2, [G] neither","key_press":76,"name":"choice","trial_type":"html-keyboard-response","trial_index":70,"time_elapsed":260759,"internal_node_id":"0.0-70.0","response":"2nd","certainty":"high","char":"L","transposition":0,"order":["shifted","swapped"],"probe_pitches":[12,7,2,9,12,2,7,5,9,7,5,2,7,12,14,5],"shifted_pitches":[12,7,2,9,12,2,7,4,9,7,5,2,7,12,14,5],"swapped_pitches":[12,7,2,9,12,2,7,9,5,7,5,2,7,12,14,5],"shift_direction":-1,"question_num":51,"has_decoy":false,"subject":"S1C1611","sona":"41562","block":1,"time":"2021-09-15T17:52:27.699Z"},{"rt":5837,"stimulus":"[A] option 1, [L] option 2, [G] neither","key_press":76,"name":"choice","trial_type":"html-keyboard-response","trial_index":81,"time_elapsed":291108,"internal_node_id":"0.0-81.0","response":"2nd","certainty":"high","char":"L","transposition":-3,"order":["shifted","swapped"],"probe_pitches":[0,2,0,4,2,8,5,11,10,1,11,3,7,8,0,2],"shifted_pitches":[0,2,0,4,2,8,5,11,9,1,11,3,7,8,0,2],"swapped_pitches":[0,2,0,4,2,8,5,10,11,1,11,3,7,8,0,2],"shift_direction":-1,"question_num":61,"has_decoy":false,"subject":"S1C1611","sona":"41562","block":1,"time":"2021-09-15T17:52:27.699Z"},{"rt":763.5,"stimulus":"[A] option 1, [L] option 2, [G] neither","key_press":76,"name":"choice","trial_type":"html-keyboard-response","trial_index":92,"time_elapsed":315365,"internal_node_id":"0.0-92.0","response":"2nd","certainty":"high","char":"L","transposition":1,"order":["swapped","shifted"],"probe_pitches":[-1,3,9,11,2,6,4,7,2,0,2,10,9,8,-1,4],"shifted_pitches":[-1,3,9,11,2,6,4,7,1,0,2,10,9,8,-1,4],"swapped_pitches":[-1,3,9,11,2,6,4,2,7,0,2,10,9,8,-1,4],"shift_direction":-1,"question_num":71,"has_decoy":false,"subject":"S1C1611","sona":"41562","block":1,"time":"2021-09-15T17:52:27.699Z"},{"rt":2047.5999999046326,"stimulus":"[A] option 1, [L] option 2, [G] neither","key_press":65,"name":"choice","trial_type":"html-keyboard-response","trial_index":103,"time_elapsed":340604,"internal_node_id":"0.0-103.0","response":"1st","certainty":"high","char":"A","transposition":2,"order":["shifted","swapped"],"probe_pitches":[7,5,12,5,2,7,14,5,9,12,5,9,2,5,9,5],"shifted_pitches":[7,5,12,5,2,7,14,6,9,12,5,9,2,5,9,5],"swapped_pitches":[7,5,12,5,2,7,14,9,5,12,5,9,2,5,9,5],"shift_direction":1,"question_num":81,"has_decoy":false,"subject":"S1C1611","sona":"41562","block":1,"time":"2021-09-15T17:52:27.699Z"},{"rt":1995.4000000953674,"stimulus":"[A] option 1, [L] option 2, [G] neither","key_press":71,"name":"choice","trial_type":"html-keyboard-response","trial_index":114,"time_elapsed":366053,"internal_node_id":"0.0-114.0","response":"neither","certainty":"high","char":"G","transposition":0,"order":["swapped","shifted"],"probe_pitches":[4,5,11,9,11,4,-1,1,10,5,6,10,6,0,4,6],"shifted_pitches":[4,5,11,9,11,4,-1,2,10,5,6,10,6,0,4,6],"swapped_pitches":[4,5,11,9,11,4,-1,10,1,5,6,10,6,0,4,6],"shift_direction":1,"question_num":91,"has_decoy":false,"subject":"S1C1611","sona":"41562","block":1,"time":"2021-09-15T17:52:27.699Z"},{"rt":1535.3000001907349,"stimulus":"[A] option 1, [L] option 2, [G] neither","key_press":65,"name":"choice","trial_type":"html-keyboard-response","trial_index":125,"time_elapsed":391488,"internal_node_id":"0.0-125.0","response":"1st","certainty":"high","char":"A","transposition":1,"order":["shifted","swapped"],"probe_pitches":[5,2,7,2,10,5,12,10,5,2,12,5,2,14,7,10],"shifted_pitches":[5,2,7,2,10,5,12,10,4,2,12,5,2,14,7,10],"swapped_pitches":[5,2,7,2,10,5,12,5,10,2,12,5,2,14,7,10],"shift_direction":-1,"question_num":101,"has_decoy":false,"subject":"S1C1611","sona":"41562","block":1,"time":"2021-09-15T17:52:27.699Z"},{"rt":789.5999999046326,"stimulus":"[A] option 1, [L] option 2, [G] neither","key_press":65,"name":"choice","trial_type":"html-keyboard-response","trial_index":136,"time_elapsed":415010,"internal_node_id":"0.0-136.0","response":"1st","certainty":"high","char":"A","transposition":-2,"order":["swapped","shifted"],"probe_pitches":[14,9,4,9,6,2,4,2,14,6,2,9,11,4,6,4],"shifted_pitches":[14,9,4,9,6,2,4,2,13,6,2,9,11,4,6,4],"swapped_pitches":[14,9,4,9,6,2,4,14,2,6,2,9,11,4,6,4],"shift_direction":-1,"question_num":111,"has_decoy":false,"subject":"S1C1611","sona":"41562","block":1,"time":"2021-09-15T17:52:27.699Z"},{"rt":648.2000000476837,"stimulus":"[A] option 1, [L] option 2, [G] neither","key_press":76,"name":"choice","trial_type":"html-keyboard-response","trial_index":147,"time_elapsed":438494,"internal_node_id":"0.0-147.0","response":"2nd","certainty":"high","char":"L","transposition":-2,"order":["swapped","shifted"],"probe_pitches":[-1,2,7,0,3,9,1,6,3,1,3,7,10,6,9,8],"shifted_pitches":[-1,2,7,0,3,9,1,5,3,1,3,7,10,6,9,8],"swapped_pitches":[-1,2,7,0,3,9,1,3,6,1,3,7,10,6,9,8],"shift_direction":-1,"question_num":121,"has_decoy":false,"subject":"S1C1611","sona":"41562","block":1,"time":"2021-09-15T17:52:27.699Z"},{"rt":1655.0999999046326,"stimulus":"[A] option 1, [L] option 2, [G] neither","key_press":76,"name":"choice","trial_type":"html-keyboard-response","trial_index":158,"time_elapsed":462367,"internal_node_id":"0.0-158.0","response":"2nd","certainty":"high","char":"L","transposition":-1,"order":["swapped","shifted"],"probe_pitches":[4,3,1,5,11,5,10,2,8,0,1,6,8,4,-1,8],"shifted_pitches":[4,3,1,5,11,5,10,2,7,0,1,6,8,4,-1,8],"swapped_pitches":[4,3,1,5,11,5,10,8,2,0,1,6,8,4,-1,8],"shift_direction":-1,"question_num":131,"has_decoy":false,"subject":"S1C1611","sona":"41562","block":1,"time":"2021-09-15T17:52:27.699Z"},{"rt":3764.0999999046326,"stimulus":"[A] option 1, [L] option 2, [G] neither","key_press":65,"name":"choice","trial_type":"html-keyboard-response","trial_index":169,"time_elapsed":488784,"internal_node_id":"0.0-169.0","response":"1st","certainty":"high","char":"A","transposition":-1,"order":["swapped","shifted"],"probe_pitches":[7,11,9,7,9,7,9,2,7,4,7,2,14,7,14,4],"shifted_pitches":[7,11,9,7,9,7,9,3,7,4,7,2,14,7,14,4],"swapped_pitches":[7,11,9,7,9,7,9,7,2,4,7,2,14,7,14,4],"shift_direction":1,"question_num":141,"has_decoy":false,"subject":"S1C1611","sona":"41562","block":1,"time":"2021-09-15T17:52:27.699Z"},{"rt":1112,"stimulus":"[A] option 1, [L] option 2, [G] neither","key_press":76,"name":"choice","trial_type":"html-keyboard-response","trial_index":180,"time_elapsed":511958,"internal_node_id":"0.0-180.0","response":"2nd","certainty":"high","char":"L","transposition":-3,"order":["shifted","swapped"],"probe_pitches":[7,5,1,0,7,8,6,2,9,5,9,-1,2,4,6,5],"shifted_pitches":[7,5,1,0,7,8,6,3,9,5,9,-1,2,4,6,5],"swapped_pitches":[7,5,1,0,7,8,6,9,2,5,9,-1,2,4,6,5],"shift_direction":1,"question_num":151,"has_decoy":false,"subject":"S1C1611","sona":"41562","block":1,"time":"2021-09-15T17:52:27.699Z"},{"rt":1409.9000000953674,"stimulus":"[A] option 1, [L] option 2, [G] neither","key_press":65,"name":"choice","trial_type":"html-keyboard-response","trial_index":191,"time_elapsed":536014,"internal_node_id":"0.0-191.0","response":"1st","certainty":"high","char":"A","transposition":-1,"order":["swapped","shifted"],"probe_pitches":[5,10,5,10,12,2,12,5,14,7,14,5,10,7,10,5],"shifted_pitches":[5,10,5,10,12,2,12,6,14,7,14,5,10,7,10,5],"swapped_pitches":[5,10,5,10,12,2,12,14,5,7,14,5,10,7,10,5],"shift_direction":1,"question_num":161,"has_decoy":false,"subject":"S1C1611","sona":"41562","block":1,"time":"2021-09-15T17:52:27.699Z"},{"rt":533.5999999046326,"stimulus":"[A] option 1, [L] option 2, [G] neither","key_press":76,"name":"choice","trial_type":"html-keyboard-response","trial_index":202,"time_elapsed":559984,"internal_node_id":"0.0-202.0","response":"2nd","certainty":"high","char":"L","transposition":-2,"order":["shifted","swapped"],"probe_pitches":[0,1,-1,0,5,3,2,9,4,11,2,6,3,1,5,7],"shifted_pitches":[0,1,-1,0,5,3,2,8,4,11,2,6,3,1,5,7],"swapped_pitches":[0,1,-1,0,5,3,2,4,9,11,2,6,3,1,5,7],"shift_direction":-1,"question_num":171,"has_decoy":false,"subject":"S1C1611","sona":"41562","block":1,"time":"2021-09-15T17:52:27.699Z"},{"rt":1942.5,"stimulus":"[A] option 1, [L] option 2, [G] neither","key_press":76,"name":"choice","trial_type":"html-keyboard-response","trial_index":213,"time_elapsed":584932,"internal_node_id":"0.0-213.0","response":"2nd","certainty":"high","char":"L","transposition":-3,"order":["shifted","swapped"],"probe_pitches":[7,11,14,11,2,9,7,2,14,4,9,14,7,4,9,14],"shifted_pitches":[7,11,14,11,2,9,7,2,13,4,9,14,7,4,9,14],"swapped_pitches":[7,11,14,11,2,9,7,14,2,4,9,14,7,4,9,14],"shift_direction":-1,"question_num":181,"has_decoy":false,"subject":"S1C1611","sona":"41562","block":1,"time":"2021-09-15T17:52:27.699Z"},{"rt":1820.7999999523163,"stimulus":"[A] option 1, [L] option 2, [G] neither","key_press":76,"name":"choice","trial_type":"html-keyboard-response","trial_index":224,"time_elapsed":609286,"internal_node_id":"0.0-224.0","response":"2nd","certainty":"high","char":"L","transposition":-1,"order":["shifted","swapped"],"probe_pitches":[0,5,3,8,1,3,2,7,9,3,-1,7,4,8,9,8],"shifted_pitches":[0,5,3,8,1,3,2,7,10,3,-1,7,4,8,9,8],"swapped_pitches":[0,5,3,8,1,3,2,9,7,3,-1,7,4,8,9,8],"shift_direction":1,"question_num":191,"has_decoy":false,"subject":"S1C1611","sona":"41562","block":1,"time":"2021-09-15T17:52:27.699Z"}]