[{"rt":3175.5,"stimulus":"[A] option 1, [L] option 2, [G] neither","key_press":71,"name":"choice","trial_type":"html-keyboard-response","trial_index":10,"time_elapsed":126716,"internal_node_id":"0.0-10.0","subject":"S1C1611","sona":"41562","block":5,"time":"2021-09-15T19:07:23.492Z","response":"neither","certainty":"high","char":"G","transposition":1,"order":["swapped","shifted"],"probe_pitches":[-3,0,5,9,7,0,-3,2,7,-3,5,0,5,0,2,9],"shifted_pitches":[-3,0,5,9,7,0,-3,1,7,-3,5,0,5,0,2,9],"swapped_pitches":[-3,0,5,9,7,0,-3,7,2,-3,5,0,5,0,2,9],"shift_direction":-1,"question_num":1,"has_decoy":false},{"rt":18568.89999985695,"stimulus":"[A] option 1, [L] option 2, [G] neither","key_press":65,"name":"choice","trial_type":"html-keyboard-response","trial_index":21,"time_elapsed":168566,"internal_node_id":"0.0-21.0","subject":"S1C1611","sona":"41562","block":5,"time":"2021-09-15T19:07:23.492Z","response":"1st","certainty":"high","char":"A","transposition":1,"order":["swapped","shifted"],"probe_pitches":[12,9,14,13,14,12,14,10,7,4,3,5,9,14,12,4],"shifted_pitches":[12,9,14,13,14,12,14,10,8,4,3,5,9,14,12,4],"swapped_pitches":[12,9,14,13,14,12,14,7,10,4,3,5,9,14,12,4],"shift_direction":1,"question_num":11,"has_decoy":false},{"rt":10848.100000143051,"stimulus":"[A] option 1, [L] option 2, [G] neither","key_press":76,"name":"choice","trial_type":"html-keyboard-response","trial_index":32,"time_elapsed":201956,"internal_node_id":"0.0-32.0","subject":"S1C1611","sona":"41562","block":5,"time":"2021-09-15T19:07:23.492Z","response":"2nd","certainty":"high","char":"L","transposition":-3,"order":["swapped","shifted"],"probe_pitches":[-1,-3,2,-1,2,-1,6,-3,2,4,2,-3,9,-1,4,-1],"shifted_pitches":[-1,-3,2,-1,2,-1,6,-4,2,4,2,-3,9,-1,4,-1],"swapped_pitches":[-1,-3,2,-1,2,-1,6,2,-3,4,2,-3,9,-1,4,-1],"shift_direction":-1,"question_num":21,"has_decoy":false},{"rt":1365.5999999046326,"stimulus":"[A] option 1, [L] option 2, [G] neither","key_press":65,"name":"choice","trial_type":"html-keyboard-response","trial_index":43,"time_elapsed":227432,"internal_node_id":"0.0-43.0","subject":"S1C1611","sona":"41562","block":5,"time":"2021-09-15T19:07:23.492Z","response":"1st","certainty":"high","char":"A","transposition":0,"order":["swapped","shifted"],"probe_pitches":[7,4,8,10,8,5,9,4,5,12,2,11,10,4,7,2],"shifted_pitches":[7,4,8,10,8,5,9,4,6,12,2,11,10,4,7,2],"swapped_pitches":[7,4,8,10,8,5,9,5,4,12,2,11,10,4,7,2],"shift_direction":1,"question_num":31,"has_decoy":false},{"rt":2006.7999999523163,"stimulus":"[A] option 1, [L] option 2, [G] neither","key_press":76,"name":"choice","trial_type":"html-keyboard-response","trial_index":54,"time_elapsed":251872,"internal_node_id":"0.0-54.0","subject":"S1C1611","sona":"41562","block":5,"time":"2021-09-15T19:07:23.492Z","response":"2nd","certainty":"high","char":"L","transposition":-2,"order":["shifted","swapped"],"probe_pitches":[9,4,7,-1,4,-3,2,7,4,2,9,7,9,4,-3,9],"shifted_pitches":[9,4,7,-1,4,-3,2,8,4,2,9,7,9,4,-3,9],"swapped_pitches":[9,4,7,-1,4,-3,2,4,7,2,9,7,9,4,-3,9],"shift_direction":1,"question_num":41,"has_decoy":false},{"rt":3109.9000000953674,"stimulus":"[A] option 1, [L] option 2, [G] neither","key_press":65,"name":"choice","trial_type":"html-keyboard-response","trial_index":65,"time_elapsed":278431,"internal_node_id":"0.0-65.0","subject":"S1C1611","sona":"41562","block":5,"time":"2021-09-15T19:07:23.492Z","response":"1st","certainty":"high","char":"A","transposition":-1,"order":["shifted","swapped"],"probe_pitches":[4,2,7,9,4,2,4,0,7,4,-3,9,7,4,2,7],"shifted_pitches":[4,2,7,9,4,2,4,1,7,4,-3,9,7,4,2,7],"swapped_pitches":[4,2,7,9,4,2,4,7,0,4,-3,9,7,4,2,7],"shift_direction":1,"question_num":51,"has_decoy":false},{"rt":1452.0999999046326,"stimulus":"[A] option 1, [L] option 2, [G] neither","key_press":76,"name":"choice","trial_type":"html-keyboard-response","trial_index":76,"time_elapsed":302611,"internal_node_id":"0.0-76.0","subject":"S1C1611","sona":"41562","block":5,"time":"2021-09-15T19:07:23.492Z","response":"2nd","certainty":"high","char":"L","transposition":3,"order":["shifted","swapped"],"probe_pitches":[4,3,2,3,12,4,5,10,12,6,13,12,3,2,5,12],"shifted_pitches":[4,3,2,3,12,4,5,10,11,6,13,12,3,2,5,12],"swapped_pitches":[4,3,2,3,12,4,5,12,10,6,13,12,3,2,5,12],"shift_direction":-1,"question_num":61,"has_decoy":false},{"rt":4037.7000000476837,"stimulus":"[A] option 1, [L] option 2, [G] neither","key_press":76,"name":"choice","trial_type":"html-keyboard-response","trial_index":87,"time_elapsed":329272,"internal_node_id":"0.0-87.0","subject":"S1C1611","sona":"41562","block":5,"time":"2021-09-15T19:07:23.492Z","response":"2nd","certainty":"high","char":"L","transposition":-1,"order":["shifted","swapped"],"probe_pitches":[5,4,6,5,12,13,9,8,12,6,2,13,14,6,4,6],"shifted_pitches":[5,4,6,5,12,13,9,7,12,6,2,13,14,6,4,6],"swapped_pitches":[5,4,6,5,12,13,9,12,8,6,2,13,14,6,4,6],"shift_direction":-1,"question_num":71,"has_decoy":false},{"rt":1221.5,"stimulus":"[A] option 1, [L] option 2, [G] neither","key_press":76,"name":"choice","trial_type":"html-keyboard-response","trial_index":98,"time_elapsed":353116,"internal_node_id":"0.0-98.0","subject":"S1C1611","sona":"41562","block":5,"time":"2021-09-15T19:07:23.492Z","response":"2nd","certainty":"high","char":"L","transposition":2,"order":["swapped","shifted"],"probe_pitches":[4,5,3,2,6,7,5,9,11,6,11,2,9,12,8,12],"shifted_pitches":[4,5,3,2,6,7,5,10,11,6,11,2,9,12,8,12],"swapped_pitches":[4,5,3,2,6,7,5,11,9,6,11,2,9,12,8,12],"shift_direction":1,"question_num":81,"has_decoy":false},{"rt":5771.200000047684,"stimulus":"[A] option 1, [L] option 2, [G] neither","key_press":65,"name":"choice","trial_type":"html-keyboard-response","trial_index":109,"time_elapsed":381824,"internal_node_id":"0.0-109.0","subject":"S1C1611","sona":"41562","block":5,"time":"2021-09-15T19:07:23.492Z","response":"1st","certainty":"high","char":"A","transposition":-3,"order":["swapped","shifted"],"probe_pitches":[1,4,1,4,-3,6,4,-3,1,-1,-3,6,4,6,1,6],"shifted_pitches":[1,4,1,4,-3,6,4,-3,0,-1,-3,6,4,6,1,6],"swapped_pitches":[1,4,1,4,-3,6,4,1,-3,-1,-3,6,4,6,1,6],"shift_direction":-1,"question_num":91,"has_decoy":false},{"rt":1366.1000001430511,"stimulus":"[A] option 1, [L] option 2, [G] neither","key_press":76,"name":"choice","trial_type":"html-keyboard-response","trial_index":120,"time_elapsed":406175,"internal_node_id":"0.0-120.0","subject":"S1C1611","sona":"41562","block":5,"time":"2021-09-15T19:07:23.492Z","response":"2nd","certainty":"high","char":"L","transposition":-2,"order":["swapped","shifted"],"probe_pitches":[12,14,7,2,7,4,14,4,6,8,9,2,8,11,7,14],"shifted_pitches":[12,14,7,2,7,4,14,4,5,8,9,2,8,11,7,14],"swapped_pitches":[12,14,7,2,7,4,14,6,4,8,9,2,8,11,7,14],"shift_direction":-1,"question_num":101,"has_decoy":false},{"rt":6152.5,"stimulus":"[A] option 1, [L] option 2, [G] neither","key_press":65,"name":"choice","trial_type":"html-keyboard-response","trial_index":131,"time_elapsed":434748,"internal_node_id":"0.0-131.0","subject":"S1C1611","sona":"41562","block":5,"time":"2021-09-15T19:07:23.492Z","response":"1st","certainty":"high","char":"A","transposition":-3,"order":["shifted","swapped"],"probe_pitches":[13,10,6,7,2,11,7,3,14,6,8,14,5,10,6,7],"shifted_pitches":[13,10,6,7,2,11,7,4,14,6,8,14,5,10,6,7],"swapped_pitches":[13,10,6,7,2,11,7,14,3,6,8,14,5,10,6,7],"shift_direction":1,"question_num":111,"has_decoy":false},{"rt":6752.399999856949,"stimulus":"[A] option 1, [L] option 2, [G] neither","key_press":65,"name":"choice","trial_type":"html-keyboard-response","trial_index":142,"time_elapsed":464076,"internal_node_id":"0.0-142.0","subject":"S1C1611","sona":"41562","block":5,"time":"2021-09-15T19:07:23.492Z","response":"1st","certainty":"high","char":"A","transposition":-2,"order":["swapped","shifted"],"probe_pitches":[6,2,6,2,3,8,7,8,5,6,14,11,6,4,5,12],"shifted_pitches":[6,2,6,2,3,8,7,9,5,6,14,11,6,4,5,12],"swapped_pitches":[6,2,6,2,3,8,7,5,8,6,14,11,6,4,5,12],"shift_direction":1,"question_num":121,"has_decoy":false},{"rt":5127.100000143051,"stimulus":"[A] option 1, [L] option 2, [G] neither","key_press":76,"name":"choice","trial_type":"html-keyboard-response","trial_index":153,"time_elapsed":491595,"internal_node_id":"0.0-153.0","subject":"S1C1611","sona":"41562","block":5,"time":"2021-09-15T19:07:23.492Z","response":"2nd","certainty":"high","char":"L","transposition":0,"order":["shifted","swapped"],"probe_pitches":[7,2,7,9,4,-3,7,9,0,7,-3,9,4,9,-3,4],"shifted_pitches":[7,2,7,9,4,-3,7,10,0,7,-3,9,4,9,-3,4],"swapped_pitches":[7,2,7,9,4,-3,7,0,9,7,-3,9,4,9,-3,4],"shift_direction":1,"question_num":131,"has_decoy":false},{"rt":1631.6000001430511,"stimulus":"[A] option 1, [L] option 2, [G] neither","key_press":65,"name":"choice","trial_type":"html-keyboard-response","trial_index":164,"time_elapsed":515512,"internal_node_id":"0.0-164.0","subject":"S1C1611","sona":"41562","block":5,"time":"2021-09-15T19:07:23.492Z","response":"1st","certainty":"high","char":"A","transposition":-1,"order":["shifted","swapped"],"probe_pitches":[6,10,14,10,4,11,14,13,5,3,14,6,11,6,2,4],"shifted_pitches":[6,10,14,10,4,11,14,12,5,3,14,6,11,6,2,4],"swapped_pitches":[6,10,14,10,4,11,14,5,13,3,14,6,11,6,2,4],"shift_direction":-1,"question_num":141,"has_decoy":false},{"rt":4499.399999856949,"stimulus":"[A] option 1, [L] option 2, [G] neither","key_press":71,"name":"choice","trial_type":"html-keyboard-response","trial_index":175,"time_elapsed":542515,"internal_node_id":"0.0-175.0","subject":"S1C1611","sona":"41562","block":5,"time":"2021-09-15T19:07:23.492Z","response":"neither","certainty":"high","char":"G","transposition":-2,"order":["swapped","shifted"],"probe_pitches":[9,5,7,9,7,9,2,0,-3,5,0,9,7,-3,5,9],"shifted_pitches":[9,5,7,9,7,9,2,0,-4,5,0,9,7,-3,5,9],"swapped_pitches":[9,5,7,9,7,9,2,-3,0,5,0,9,7,-3,5,9],"shift_direction":-1,"question_num":151,"has_decoy":false},{"rt":2008.4000000953674,"stimulus":"[A] option 1, [L] option 2, [G] neither","key_press":76,"name":"choice","trial_type":"html-keyboard-response","trial_index":186,"time_elapsed":567003,"internal_node_id":"0.0-186.0","subject":"S1C1611","sona":"41562","block":5,"time":"2021-09-15T19:07:23.492Z","response":"2nd","certainty":"high","char":"L","transposition":-1,"order":["shifted","swapped"],"probe_pitches":[-3,-1,2,4,2,-1,2,9,-3,4,-1,4,7,-1,2,9],"shifted_pitches":[-3,-1,2,4,2,-1,2,9,-4,4,-1,4,7,-1,2,9],"swapped_pitches":[-3,-1,2,4,2,-1,2,-3,9,4,-1,4,7,-1,2,9],"shift_direction":-1,"question_num":161,"has_decoy":false},{"rt":1815.9000000953674,"stimulus":"[A] option 1, [L] option 2, [G] neither","key_press":65,"name":"choice","trial_type":"html-keyboard-response","trial_index":197,"time_elapsed":591228,"internal_node_id":"0.0-197.0","subject":"S1C1611","sona":"41562","block":5,"time":"2021-09-15T19:07:23.492Z","response":"1st","certainty":"high","char":"A","transposition":-3,"order":["shifted","swapped"],"probe_pitches":[12,8,12,4,3,7,12,9,2,14,2,3,14,5,14,9],"shifted_pitches":[12,8,12,4,3,7,12,9,1,14,2,3,14,5,14,9],"swapped_pitches":[12,8,12,4,3,7,12,2,9,14,2,3,14,5,14,9],"shift_direction":-1,"question_num":171,"has_decoy":false},{"rt":878.5999999046326,"stimulus":"[A] option 1, [L] option 2, [G] neither","key_press":65,"name":"choice","trial_type":"html-keyboard-response","trial_index":208,"time_elapsed":614646,"internal_node_id":"0.0-208.0","subject":"S1C1611","sona":"41562","block":5,"time":"2021-09-15T19:07:23.492Z","response":"1st","certainty":"high","char":"A","transposition":2,"order":["shifted","swapped"],"probe_pitches":[-1,2,9,2,9,6,2,4,9,-3,-1,4,9,4,6,2],"shifted_pitches":[-1,2,9,2,9,6,2,4,10,-3,-1,4,9,4,6,2],"swapped_pitches":[-1,2,9,2,9,6,2,9,4,-3,-1,4,9,4,6,2],"shift_direction":1,"question_num":181,"has_decoy":false},{"rt":5049.099999904633,"stimulus":"[A] option 1, [L] option 2, [G] neither","key_press":71,"name":"choice","trial_type":"html-keyboard-response","trial_index":219,"time_elapsed":642314,"internal_node_id":"0.0-219.0","subject":"S1C1611","sona":"41562","block":5,"time":"2021-09-15T19:07:23.492Z","response":"neither","certainty":"high","char":"G","transposition":3,"order":["swapped","shifted"],"probe_pitches":[9,4,6,1,6,4,6,-1,1,9,1,6,-1,1,4,1],"shifted_pitches":[9,4,6,1,6,4,6,-1,2,9,1,6,-1,1,4,1],"swapped_pitches":[9,4,6,1,6,4,6,1,-1,9,1,6,-1,1,4,1],"shift_direction":1,"question_num":191,"has_decoy":false}]