[{"rt":2879.7000000476837,"stimulus":"[A] option 1, [L] option 2, [G] neither","key_press":71,"name":"choice","trial_type":"html-keyboard-response","trial_index":10,"time_elapsed":27626,"internal_node_id":"0.0-10.0","subject":"S1C1611","sona":"41562","block":3,"time":"2021-09-15T18:25:14.337Z","response":"neither","certainty":"high","char":"G","transposition":0,"order":["shifted","swapped"],"probe_pitches":[7,9,4,2,0,7,2,4,0,9,0,2,9,2,0,7],"shifted_pitches":[7,9,4,2,0,7,2,3,0,9,0,2,9,2,0,7],"swapped_pitches":[7,9,4,2,0,7,2,0,4,9,0,2,9,2,0,7],"shift_direction":-1,"question_num":1,"has_decoy":false},{"rt":1622.2000000476837,"stimulus":"[A] option 1, [L] option 2, [G] neither","key_press":76,"name":"choice","trial_type":"html-keyboard-response","trial_index":21,"time_elapsed":52408,"internal_node_id":"0.0-21.0","subject":"S1C1611","sona":"41562","block":3,"time":"2021-09-15T18:25:14.337Z","response":"2nd","certainty":"high","char":"L","transposition":-3,"order":["shifted","swapped"],"probe_pitches":[2,4,9,7,4,-3,7,2,9,4,-1,2,4,-3,9,2],"shifted_pitches":[2,4,9,7,4,-3,7,1,9,4,-1,2,4,-3,9,2],"swapped_pitches":[2,4,9,7,4,-3,7,9,2,4,-1,2,4,-3,9,2],"shift_direction":-1,"question_num":11,"has_decoy":false},{"rt":936.7999999523163,"stimulus":"[A] option 1, [L] option 2, [G] neither","key_press":76,"name":"choice","trial_type":"html-keyboard-response","trial_index":32,"time_elapsed":75944,"internal_node_id":"0.0-32.0","subject":"S1C1611","sona":"41562","block":3,"time":"2021-09-15T18:25:14.337Z","response":"2nd","certainty":"high","char":"L","transposition":1,"order":["swapped","shifted"],"probe_pitches":[4,9,4,-3,6,9,6,1,4,-3,-1,1,4,9,-3,6],"shifted_pitches":[4,9,4,-3,6,9,6,1,5,-3,-1,1,4,9,-3,6],"swapped_pitches":[4,9,4,-3,6,9,6,4,1,-3,-1,1,4,9,-3,6],"shift_direction":1,"question_num":21,"has_decoy":false},{"rt":2154.5,"stimulus":"[A] option 1, [L] option 2, [G] neither","key_press":76,"name":"choice","trial_type":"html-keyboard-response","trial_index":43,"time_elapsed":100839,"internal_node_id":"0.0-43.0","subject":"S1C1611","sona":"41562","block":3,"time":"2021-09-15T18:25:14.337Z","response":"2nd","certainty":"high","char":"L","transposition":3,"order":["swapped","shifted"],"probe_pitches":[7,2,0,-3,4,5,-2,2,4,8,2,4,3,0,7,5],"shifted_pitches":[7,2,0,-3,4,5,-2,1,4,8,2,4,3,0,7,5],"swapped_pitches":[7,2,0,-3,4,5,-2,4,2,8,2,4,3,0,7,5],"shift_direction":-1,"question_num":31,"has_decoy":false},{"rt":1345,"stimulus":"[A] option 1, [L] option 2, [G] neither","key_press":76,"name":"choice","trial_type":"html-keyboard-response","trial_index":54,"time_elapsed":125640,"internal_node_id":"0.0-54.0","subject":"S1C1611","sona":"41562","block":3,"time":"2021-09-15T18:25:14.337Z","response":"2nd","certainty":"high","char":"L","transposition":2,"order":["shifted","swapped"],"probe_pitches":[8,3,4,7,9,5,-2,5,3,-2,4,3,7,1,2,4],"shifted_pitches":[8,3,4,7,9,5,-2,6,3,-2,4,3,7,1,2,4],"swapped_pitches":[8,3,4,7,9,5,-2,3,5,-2,4,3,7,1,2,4],"shift_direction":1,"question_num":41,"has_decoy":false},{"rt":3123.800000190735,"stimulus":"[A] option 1, [L] option 2, [G] neither","key_press":71,"name":"choice","trial_type":"html-keyboard-response","trial_index":65,"time_elapsed":152099,"internal_node_id":"0.0-65.0","subject":"S1C1611","sona":"41562","block":3,"time":"2021-09-15T18:25:14.337Z","response":"neither","certainty":"high","char":"G","transposition":3,"order":["swapped","shifted"],"probe_pitches":[-1,4,-1,4,2,-1,-3,7,-1,4,-3,-1,4,-3,-1,2],"shifted_pitches":[-1,4,-1,4,2,-1,-3,7,0,4,-3,-1,4,-3,-1,2],"swapped_pitches":[-1,4,-1,4,2,-1,-3,-1,7,4,-3,-1,4,-3,-1,2],"shift_direction":1,"question_num":51,"has_decoy":false},{"rt":1924.3999998569489,"stimulus":"[A] option 1, [L] option 2, [G] neither","key_press":76,"name":"choice","trial_type":"html-keyboard-response","trial_index":76,"time_elapsed":177021,"internal_node_id":"0.0-76.0","subject":"S1C1611","sona":"41562","block":3,"time":"2021-09-15T18:25:14.337Z","response":"2nd","certainty":"high","char":"L","transposition":-1,"order":["swapped","shifted"],"probe_pitches":[-2,3,6,5,4,-2,0,-2,3,9,3,0,-2,7,5,0],"shifted_pitches":[-2,3,6,5,4,-2,0,-1,3,9,3,0,-2,7,5,0],"swapped_pitches":[-2,3,6,5,4,-2,0,3,-2,9,3,0,-2,7,5,0],"shift_direction":1,"question_num":61,"has_decoy":false},{"rt":1966.6000001430511,"stimulus":"[A] option 1, [L] option 2, [G] neither","key_press":76,"name":"choice","trial_type":"html-keyboard-response","trial_index":87,"time_elapsed":201591,"internal_node_id":"0.0-87.0","subject":"S1C1611","sona":"41562","block":3,"time":"2021-09-15T18:25:14.337Z","response":"2nd","certainty":"high","char":"L","transposition":-3,"order":["swapped","shifted"],"probe_pitches":[-1,5,7,9,5,4,7,9,1,-3,3,-2,9,3,6,9],"shifted_pitches":[-1,5,7,9,5,4,7,9,2,-3,3,-2,9,3,6,9],"swapped_pitches":[-1,5,7,9,5,4,7,1,9,-3,3,-2,9,3,6,9],"shift_direction":1,"question_num":71,"has_decoy":false},{"rt":1267.2000000476837,"stimulus":"[A] option 1, [L] option 2, [G] neither","key_press":76,"name":"choice","trial_type":"html-keyboard-response","trial_index":98,"time_elapsed":225751,"internal_node_id":"0.0-98.0","subject":"S1C1611","sona":"41562","block":3,"time":"2021-09-15T18:25:14.337Z","response":"2nd","certainty":"high","char":"L","transposition":1,"order":["swapped","shifted"],"probe_pitches":[1,4,8,1,8,0,1,-1,4,5,6,9,7,1,-1,9],"shifted_pitches":[1,4,8,1,8,0,1,-1,3,5,6,9,7,1,-1,9],"swapped_pitches":[1,4,8,1,8,0,1,4,-1,5,6,9,7,1,-1,9],"shift_direction":-1,"question_num":81,"has_decoy":false},{"rt":1579.1000001430511,"stimulus":"[A] option 1, [L] option 2, [G] neither","key_press":65,"name":"choice","trial_type":"html-keyboard-response","trial_index":109,"time_elapsed":249809,"internal_node_id":"0.0-109.0","subject":"S1C1611","sona":"41562","block":3,"time":"2021-09-15T18:25:14.337Z","response":"1st","certainty":"high","char":"A","transposition":-3,"order":["swapped","shifted"],"probe_pitches":[5,2,7,2,9,2,5,2,0,7,9,-3,9,5,-3,5],"shifted_pitches":[5,2,7,2,9,2,5,2,-1,7,9,-3,9,5,-3,5],"swapped_pitches":[5,2,7,2,9,2,5,0,2,7,9,-3,9,5,-3,5],"shift_direction":-1,"question_num":91,"has_decoy":false},{"rt":1441.1999998092651,"stimulus":"[A] option 1, [L] option 2, [G] neither","key_press":76,"name":"choice","trial_type":"html-keyboard-response","trial_index":120,"time_elapsed":274159,"internal_node_id":"0.0-120.0","subject":"S1C1611","sona":"41562","block":3,"time":"2021-09-15T18:25:14.337Z","response":"2nd","certainty":"high","char":"L","transposition":-3,"order":["shifted","swapped"],"probe_pitches":[-2,1,4,9,0,8,4,8,9,-3,9,2,5,6,0,1],"shifted_pitches":[-2,1,4,9,0,8,4,7,9,-3,9,2,5,6,0,1],"swapped_pitches":[-2,1,4,9,0,8,4,9,8,-3,9,2,5,6,0,1],"shift_direction":-1,"question_num":101,"has_decoy":false},{"rt":1296.5999999046326,"stimulus":"[A] option 1, [L] option 2, [G] neither","key_press":76,"name":"choice","trial_type":"html-keyboard-response","trial_index":131,"time_elapsed":298855,"internal_node_id":"0.0-131.0","subject":"S1C1611","sona":"41562","block":3,"time":"2021-09-15T18:25:14.337Z","response":"2nd","certainty":"high","char":"L","transposition":-2,"order":["shifted","swapped"],"probe_pitches":[4,6,4,6,-1,1,4,9,-3,6,1,4,1,4,9,4],"shifted_pitches":[4,6,4,6,-1,1,4,9,-4,6,1,4,1,4,9,4],"swapped_pitches":[4,6,4,6,-1,1,4,-3,9,6,1,4,1,4,9,4],"shift_direction":-1,"question_num":111,"has_decoy":false},{"rt":1851.2999999523163,"stimulus":"[A] option 1, [L] option 2, [G] neither","key_press":76,"name":"choice","trial_type":"html-keyboard-response","trial_index":142,"time_elapsed":323962,"internal_node_id":"0.0-142.0","subject":"S1C1611","sona":"41562","block":3,"time":"2021-09-15T18:25:14.337Z","response":"2nd","certainty":"high","char":"L","transposition":2,"order":["swapped","shifted"],"probe_pitches":[7,9,7,9,5,9,7,2,0,9,-3,2,9,7,-3,5],"shifted_pitches":[7,9,7,9,5,9,7,2,1,9,-3,2,9,7,-3,5],"swapped_pitches":[7,9,7,9,5,9,7,0,2,9,-3,2,9,7,-3,5],"shift_direction":1,"question_num":121,"has_decoy":false},{"rt":533.1999998092651,"stimulus":"[A] option 1, [L] option 2, [G] neither","key_press":76,"name":"choice","trial_type":"html-keyboard-response","trial_index":153,"time_elapsed":348423,"internal_node_id":"0.0-153.0","subject":"S1C1611","sona":"41562","block":3,"time":"2021-09-15T18:25:14.337Z","response":"2nd","certainty":"high","char":"L","transposition":0,"order":["shifted","swapped"],"probe_pitches":[1,-2,0,1,8,6,1,2,6,3,2,-2,6,2,1,8],"shifted_pitches":[1,-2,0,1,8,6,1,2,5,3,2,-2,6,2,1,8],"swapped_pitches":[1,-2,0,1,8,6,1,6,2,3,2,-2,6,2,1,8],"shift_direction":-1,"question_num":131,"has_decoy":false},{"rt":5599.099999904633,"stimulus":"[A] option 1, [L] option 2, [G] neither","key_press":76,"name":"choice","trial_type":"html-keyboard-response","trial_index":164,"time_elapsed":376616,"internal_node_id":"0.0-164.0","subject":"S1C1611","sona":"41562","block":3,"time":"2021-09-15T18:25:14.337Z","response":"2nd","certainty":"high","char":"L","transposition":-1,"order":["swapped","shifted"],"probe_pitches":[2,4,6,4,-1,-3,4,9,-1,-3,4,9,-1,-3,6,9],"shifted_pitches":[2,4,6,4,-1,-3,4,10,-1,-3,4,9,-1,-3,6,9],"swapped_pitches":[2,4,6,4,-1,-3,4,-1,9,-3,4,9,-1,-3,6,9],"shift_direction":1,"question_num":141,"has_decoy":false},{"rt":4710.5,"stimulus":"[A] option 1, [L] option 2, [G] neither","key_press":76,"name":"choice","trial_type":"html-keyboard-response","trial_index":175,"time_elapsed":404264,"internal_node_id":"0.0-175.0","subject":"S1C1611","sona":"41562","block":3,"time":"2021-09-15T18:25:14.337Z","response":"2nd","certainty":"high","char":"L","transposition":-2,"order":["shifted","swapped"],"probe_pitches":[7,1,2,-3,6,-1,9,-3,7,-2,0,-3,-1,9,7,9],"shifted_pitches":[7,1,2,-3,6,-1,9,-3,8,-2,0,-3,-1,9,7,9],"swapped_pitches":[7,1,2,-3,6,-1,9,7,-3,-2,0,-3,-1,9,7,9],"shift_direction":1,"question_num":151,"has_decoy":false},{"rt":1475.1000001430511,"stimulus":"[A] option 1, [L] option 2, [G] neither","key_press":65,"name":"choice","trial_type":"html-keyboard-response","trial_index":186,"time_elapsed":428304,"internal_node_id":"0.0-186.0","subject":"S1C1611","sona":"41562","block":3,"time":"2021-09-15T18:25:14.337Z","response":"1st","certainty":"high","char":"A","transposition":-2,"order":["shifted","swapped"],"probe_pitches":[8,2,-1,-2,5,6,3,1,9,-1,7,6,8,6,9,-1],"shifted_pitches":[8,2,-1,-2,5,6,3,0,9,-1,7,6,8,6,9,-1],"swapped_pitches":[8,2,-1,-2,5,6,3,9,1,-1,7,6,8,6,9,-1],"shift_direction":-1,"question_num":161,"has_decoy":false},{"rt":1064.0999999046326,"stimulus":"[A] option 1, [L] option 2, [G] neither","key_press":65,"name":"choice","trial_type":"html-keyboard-response","trial_index":197,"time_elapsed":451906,"internal_node_id":"0.0-197.0","subject":"S1C1611","sona":"41562","block":3,"time":"2021-09-15T18:25:14.337Z","response":"1st","certainty":"high","char":"A","transposition":-2,"order":["shifted","swapped"],"probe_pitches":[7,4,-3,0,2,9,2,4,9,7,4,2,4,-3,2,7],"shifted_pitches":[7,4,-3,0,2,9,2,3,9,7,4,2,4,-3,2,7],"swapped_pitches":[7,4,-3,0,2,9,2,9,4,7,4,2,4,-3,2,7],"shift_direction":-1,"question_num":171,"has_decoy":false},{"rt":3926.5,"stimulus":"[A] option 1, [L] option 2, [G] neither","key_press":65,"name":"choice","trial_type":"html-keyboard-response","trial_index":208,"time_elapsed":478995,"internal_node_id":"0.0-208.0","subject":"S1C1611","sona":"41562","block":3,"time":"2021-09-15T18:25:14.337Z","response":"1st","certainty":"high","char":"A","transposition":-1,"order":["shifted","swapped"],"probe_pitches":[-1,2,9,4,-3,2,-1,6,2,-3,4,-1,9,4,9,-1],"shifted_pitches":[-1,2,9,4,-3,2,-1,7,2,-3,4,-1,9,4,9,-1],"swapped_pitches":[-1,2,9,4,-3,2,-1,2,6,-3,4,-1,9,4,9,-1],"shift_direction":1,"question_num":181,"has_decoy":false},{"rt":7298.5,"stimulus":"[A] option 1, [L] option 2, [G] neither","key_press":71,"name":"choice","trial_type":"html-keyboard-response","trial_index":219,"time_elapsed":508997,"internal_node_id":"0.0-219.0","subject":"S1C1611","sona":"41562","block":3,"time":"2021-09-15T18:25:14.337Z","response":"neither","certainty":"high","char":"G","transposition":-1,"order":["swapped","shifted"],"probe_pitches":[0,6,7,6,7,5,6,-1,3,7,0,-1,3,1,3,7],"shifted_pitches":[0,6,7,6,7,5,6,-1,4,7,0,-1,3,1,3,7],"swapped_pitches":[0,6,7,6,7,5,6,3,-1,7,0,-1,3,1,3,7],"shift_direction":1,"question_num":191,"has_decoy":false}]