[{"rt":2424,"stimulus":"[A] option 1, [L] option 2, [G] neither","key_press":71,"name":"choice","trial_type":"html-keyboard-response","trial_index":10,"time_elapsed":28931,"internal_node_id":"0.0-10.0","subject":"S1C1611","sona":"41562","block":6,"time":"2021-09-15T19:16:28.062Z","response":"neither","certainty":"high","char":"G","transposition":2,"order":["shifted","swapped"],"probe_pitches":[-3,1,4,-1,4,9,4,-3,1,6,-1,-3,-1,-3,4,-1],"shifted_pitches":[-3,1,4,-1,4,9,4,-3,0,6,-1,-3,-1,-3,4,-1],"swapped_pitches":[-3,1,4,-1,4,9,4,1,-3,6,-1,-3,-1,-3,4,-1],"shift_direction":-1,"question_num":1,"has_decoy":false},{"rt":644.2999999523163,"stimulus":"[A] option 1, [L] option 2, [G] neither","key_press":76,"name":"choice","trial_type":"html-keyboard-response","trial_index":21,"time_elapsed":52176,"internal_node_id":"0.0-21.0","subject":"S1C1611","sona":"41562","block":6,"time":"2021-09-15T19:16:28.062Z","response":"2nd","certainty":"high","char":"L","transposition":2,"order":["shifted","swapped"],"probe_pitches":[11,12,6,14,6,5,3,10,2,13,8,13,14,10,12,10],"shifted_pitches":[11,12,6,14,6,5,3,9,2,13,8,13,14,10,12,10],"swapped_pitches":[11,12,6,14,6,5,3,2,10,13,8,13,14,10,12,10],"shift_direction":-1,"question_num":11,"has_decoy":false},{"rt":1194.2000000476837,"stimulus":"[A] option 1, [L] option 2, [G] neither","key_press":76,"name":"choice","trial_type":"html-keyboard-response","trial_index":32,"time_elapsed":75698,"internal_node_id":"0.0-32.0","subject":"S1C1611","sona":"41562","block":6,"time":"2021-09-15T19:16:28.062Z","response":"2nd","certainty":"high","char":"L","transposition":3,"order":["shifted","swapped"],"probe_pitches":[10,4,10,9,2,10,8,14,12,7,14,10,11,4,9,4],"shifted_pitches":[10,4,10,9,2,10,8,14,13,7,14,10,11,4,9,4],"swapped_pitches":[10,4,10,9,2,10,8,12,14,7,14,10,11,4,9,4],"shift_direction":1,"question_num":21,"has_decoy":false},{"rt":577.9000000953674,"stimulus":"[A] option 1, [L] option 2, [G] neither","key_press":76,"name":"choice","trial_type":"html-keyboard-response","trial_index":43,"time_elapsed":98741,"internal_node_id":"0.0-43.0","subject":"S1C1611","sona":"41562","block":6,"time":"2021-09-15T19:16:28.062Z","response":"2nd","certainty":"high","char":"L","transposition":0,"order":["swapped","shifted"],"probe_pitches":[-3,0,-3,5,7,5,-3,0,5,7,-3,5,7,0,7,2],"shifted_pitches":[-3,0,-3,5,7,5,-3,1,5,7,-3,5,7,0,7,2],"swapped_pitches":[-3,0,-3,5,7,5,-3,5,0,7,-3,5,7,0,7,2],"shift_direction":1,"question_num":31,"has_decoy":false},{"rt":1282.1000001430511,"stimulus":"[A] option 1, [L] option 2, [G] neither","key_press":65,"name":"choice","trial_type":"html-keyboard-response","trial_index":54,"time_elapsed":122554,"internal_node_id":"0.0-54.0","subject":"S1C1611","sona":"41562","block":6,"time":"2021-09-15T19:16:28.062Z","response":"1st","certainty":"high","char":"A","transposition":-2,"order":["swapped","shifted"],"probe_pitches":[9,13,12,6,7,5,2,9,11,2,13,3,9,12,6,5],"shifted_pitches":[9,13,12,6,7,5,2,10,11,2,13,3,9,12,6,5],"swapped_pitches":[9,13,12,6,7,5,2,11,9,2,13,3,9,12,6,5],"shift_direction":1,"question_num":41,"has_decoy":false},{"rt":2929.7000000476837,"stimulus":"[A] option 1, [L] option 2, [G] neither","key_press":76,"name":"choice","trial_type":"html-keyboard-response","trial_index":65,"time_elapsed":147543,"internal_node_id":"0.0-65.0","subject":"S1C1611","sona":"41562","block":6,"time":"2021-09-15T19:16:28.062Z","response":"2nd","certainty":"high","char":"L","transposition":-3,"order":["swapped","shifted"],"probe_pitches":[8,2,8,12,11,2,4,5,13,11,3,14,13,3,14,9],"shifted_pitches":[8,2,8,12,11,2,4,6,13,11,3,14,13,3,14,9],"swapped_pitches":[8,2,8,12,11,2,4,13,5,11,3,14,13,3,14,9],"shift_direction":1,"question_num":51,"has_decoy":false},{"rt":1302.7000000476837,"stimulus":"[A] option 1, [L] option 2, [G] neither","key_press":76,"name":"choice","trial_type":"html-keyboard-response","trial_index":76,"time_elapsed":171168,"internal_node_id":"0.0-76.0","subject":"S1C1611","sona":"41562","block":6,"time":"2021-09-15T19:16:28.062Z","response":"2nd","certainty":"high","char":"L","transposition":3,"order":["shifted","swapped"],"probe_pitches":[7,4,2,7,2,9,2,9,4,2,4,0,7,-3,7,9],"shifted_pitches":[7,4,2,7,2,9,2,8,4,2,4,0,7,-3,7,9],"swapped_pitches":[7,4,2,7,2,9,2,4,9,2,4,0,7,-3,7,9],"shift_direction":-1,"question_num":61,"has_decoy":false},{"rt":456.7999999523163,"stimulus":"[A] option 1, [L] option 2, [G] neither","key_press":65,"name":"choice","trial_type":"html-keyboard-response","trial_index":87,"time_elapsed":194897,"internal_node_id":"0.0-87.0","subject":"S1C1611","sona":"41562","block":6,"time":"2021-09-15T19:16:28.062Z","response":"1st","certainty":"high","char":"A","transposition":-3,"order":["swapped","shifted"],"probe_pitches":[4,10,8,11,12,7,11,6,4,10,8,2,12,6,2,11],"shifted_pitches":[4,10,8,11,12,7,11,6,5,10,8,2,12,6,2,11],"swapped_pitches":[4,10,8,11,12,7,11,4,6,10,8,2,12,6,2,11],"shift_direction":1,"question_num":71,"has_decoy":false},{"rt":1402.0999999046326,"stimulus":"[A] option 1, [L] option 2, [G] neither","key_press":65,"name":"choice","trial_type":"html-keyboard-response","trial_index":98,"time_elapsed":219467,"internal_node_id":"0.0-98.0","subject":"S1C1611","sona":"41562","block":6,"time":"2021-09-15T19:16:28.062Z","response":"1st","certainty":"high","char":"A","transposition":-1,"order":["shifted","swapped"],"probe_pitches":[12,13,12,9,12,3,13,14,5,11,14,12,9,13,8,3],"shifted_pitches":[12,13,12,9,12,3,13,14,4,11,14,12,9,13,8,3],"swapped_pitches":[12,13,12,9,12,3,13,5,14,11,14,12,9,13,8,3],"shift_direction":-1,"question_num":81,"has_decoy":false},{"rt":2289.5999999046326,"stimulus":"[A] option 1, [L] option 2, [G] neither","key_press":76,"name":"choice","trial_type":"html-keyboard-response","trial_index":109,"time_elapsed":244264,"internal_node_id":"0.0-109.0","subject":"S1C1611","sona":"41562","block":6,"time":"2021-09-15T19:16:28.062Z","response":"2nd","certainty":"high","char":"L","transposition":-1,"order":["swapped","shifted"],"probe_pitches":[-3,-1,2,6,-1,9,2,-3,4,2,-1,6,2,9,2,-3],"shifted_pitches":[-3,-1,2,6,-1,9,2,-3,5,2,-1,6,2,9,2,-3],"swapped_pitches":[-3,-1,2,6,-1,9,2,4,-3,2,-1,6,2,9,2,-3],"shift_direction":1,"question_num":91,"has_decoy":false},{"rt":1257.2000000476837,"stimulus":"[A] option 1, [L] option 2, [G] neither","key_press":76,"name":"choice","trial_type":"html-keyboard-response","trial_index":120,"time_elapsed":268472,"internal_node_id":"0.0-120.0","subject":"S1C1611","sona":"41562","block":6,"time":"2021-09-15T19:16:28.062Z","response":"2nd","certainty":"high","char":"L","transposition":-2,"order":["shifted","swapped"],"probe_pitches":[-1,2,6,-1,6,9,-1,-3,6,2,9,-3,2,6,4,-3],"shifted_pitches":[-1,2,6,-1,6,9,-1,-4,6,2,9,-3,2,6,4,-3],"swapped_pitches":[-1,2,6,-1,6,9,-1,6,-3,2,9,-3,2,6,4,-3],"shift_direction":-1,"question_num":101,"has_decoy":false},{"rt":1365.2999999523163,"stimulus":"[A] option 1, [L] option 2, [G] neither","key_press":76,"name":"choice","trial_type":"html-keyboard-response","trial_index":131,"time_elapsed":292854,"internal_node_id":"0.0-131.0","subject":"S1C1611","sona":"41562","block":6,"time":"2021-09-15T19:16:28.062Z","response":"2nd","certainty":"high","char":"L","transposition":1,"order":["swapped","shifted"],"probe_pitches":[9,7,2,9,5,2,-3,2,7,0,5,-3,2,-3,5,0],"shifted_pitches":[9,7,2,9,5,2,-3,2,8,0,5,-3,2,-3,5,0],"swapped_pitches":[9,7,2,9,5,2,-3,7,2,0,5,-3,2,-3,5,0],"shift_direction":1,"question_num":111,"has_decoy":false},{"rt":1504.7999999523163,"stimulus":"[A] option 1, [L] option 2, [G] neither","key_press":65,"name":"choice","trial_type":"html-keyboard-response","trial_index":142,"time_elapsed":316716,"internal_node_id":"0.0-142.0","subject":"S1C1611","sona":"41562","block":6,"time":"2021-09-15T19:16:28.062Z","response":"1st","certainty":"high","char":"A","transposition":-2,"order":["swapped","shifted"],"probe_pitches":[4,9,11,8,3,5,10,13,6,9,11,7,5,3,6,10],"shifted_pitches":[4,9,11,8,3,5,10,12,6,9,11,7,5,3,6,10],"swapped_pitches":[4,9,11,8,3,5,10,6,13,9,11,7,5,3,6,10],"shift_direction":-1,"question_num":121,"has_decoy":false},{"rt":1731.8999998569489,"stimulus":"[A] option 1, [L] option 2, [G] neither","key_press":71,"name":"choice","trial_type":"html-keyboard-response","trial_index":153,"time_elapsed":341252,"internal_node_id":"0.0-153.0","subject":"S1C1611","sona":"41562","block":6,"time":"2021-09-15T19:16:28.062Z","response":"neither","certainty":"high","char":"G","transposition":0,"order":["shifted","swapped"],"probe_pitches":[3,2,4,10,8,14,13,12,10,3,2,6,3,13,10,9],"shifted_pitches":[3,2,4,10,8,14,13,12,11,3,2,6,3,13,10,9],"swapped_pitches":[3,2,4,10,8,14,13,10,12,3,2,6,3,13,10,9],"shift_direction":1,"question_num":131,"has_decoy":false},{"rt":2594.5,"stimulus":"[A] option 1, [L] option 2, [G] neither","key_press":65,"name":"choice","trial_type":"html-keyboard-response","trial_index":164,"time_elapsed":366693,"internal_node_id":"0.0-164.0","subject":"S1C1611","sona":"41562","block":6,"time":"2021-09-15T19:16:28.062Z","response":"1st","certainty":"high","char":"A","transposition":-1,"order":["shifted","swapped"],"probe_pitches":[4,7,2,-3,4,9,7,-3,4,9,2,0,9,7,9,7],"shifted_pitches":[4,7,2,-3,4,9,7,-2,4,9,2,0,9,7,9,7],"swapped_pitches":[4,7,2,-3,4,9,7,4,-3,9,2,0,9,7,9,7],"shift_direction":1,"question_num":141,"has_decoy":false},{"rt":3342.5,"stimulus":"[A] option 1, [L] option 2, [G] neither","key_press":71,"name":"choice","trial_type":"html-keyboard-response","trial_index":175,"time_elapsed":392968,"internal_node_id":"0.0-175.0","subject":"S1C1611","sona":"41562","block":6,"time":"2021-09-15T19:16:28.062Z","response":"neither","certainty":"high","char":"G","transposition":-3,"order":["shifted","swapped"],"probe_pitches":[9,4,7,2,-1,-3,7,2,-1,-3,-1,9,7,4,2,4],"shifted_pitches":[9,4,7,2,-1,-3,7,2,0,-3,-1,9,7,4,2,4],"swapped_pitches":[9,4,7,2,-1,-3,7,-1,2,-3,-1,9,7,4,2,4],"shift_direction":1,"question_num":151,"has_decoy":false},{"rt":1073.7000000476837,"stimulus":"[A] option 1, [L] option 2, [G] neither","key_press":76,"name":"choice","trial_type":"html-keyboard-response","trial_index":186,"time_elapsed":418419,"internal_node_id":"0.0-186.0","subject":"S1C1611","sona":"41562","block":6,"time":"2021-09-15T19:16:28.062Z","response":"2nd","certainty":"high","char":"L","transposition":1,"order":["swapped","shifted"],"probe_pitches":[4,9,10,11,4,13,5,12,9,13,2,3,4,7,10,11],"shifted_pitches":[4,9,10,11,4,13,5,12,8,13,2,3,4,7,10,11],"swapped_pitches":[4,9,10,11,4,13,5,9,12,13,2,3,4,7,10,11],"shift_direction":-1,"question_num":161,"has_decoy":false},{"rt":1238,"stimulus":"[A] option 1, [L] option 2, [G] neither","key_press":65,"name":"choice","trial_type":"html-keyboard-response","trial_index":197,"time_elapsed":443853,"internal_node_id":"0.0-197.0","subject":"S1C1611","sona":"41562","block":6,"time":"2021-09-15T19:16:28.062Z","response":"1st","certainty":"high","char":"A","transposition":-1,"order":["shifted","swapped"],"probe_pitches":[3,5,10,12,4,6,3,8,13,9,13,6,4,10,5,3],"shifted_pitches":[3,5,10,12,4,6,3,7,13,9,13,6,4,10,5,3],"swapped_pitches":[3,5,10,12,4,6,3,13,8,9,13,6,4,10,5,3],"shift_direction":-1,"question_num":171,"has_decoy":false},{"rt":8389.700000047684,"stimulus":"[A] option 1, [L] option 2, [G] neither","key_press":71,"name":"choice","trial_type":"html-keyboard-response","trial_index":208,"time_elapsed":502135,"internal_node_id":"0.0-208.0","subject":"S1C1611","sona":"41562","block":6,"time":"2021-09-15T19:16:28.062Z","response":"neither","certainty":"high","char":"G","transposition":-2,"order":["swapped","shifted"],"probe_pitches":[-3,2,-3,-1,4,9,-1,7,2,4,7,-3,4,-3,-1,2],"shifted_pitches":[-3,2,-3,-1,4,9,-1,7,1,4,7,-3,4,-3,-1,2],"swapped_pitches":[-3,2,-3,-1,4,9,-1,2,7,4,7,-3,4,-3,-1,2],"shift_direction":-1,"question_num":181,"has_decoy":false},{"rt":1553.5999999046326,"stimulus":"[A] option 1, [L] option 2, [G] neither","key_press":76,"name":"choice","trial_type":"html-keyboard-response","trial_index":219,"time_elapsed":541839,"internal_node_id":"0.0-219.0","subject":"S1C1611","sona":"41562","block":6,"time":"2021-09-15T19:16:28.062Z","response":"2nd","certainty":"high","char":"L","transposition":-3,"order":["swapped","shifted"],"probe_pitches":[1,6,1,6,-3,6,-3,-1,6,4,-3,1,4,1,-1,4],"shifted_pitches":[1,6,1,6,-3,6,-3,-2,6,4,-3,1,4,1,-1,4],"swapped_pitches":[1,6,1,6,-3,6,-3,6,-1,4,-3,1,4,1,-1,4],"shift_direction":-1,"question_num":191,"has_decoy":false}]