[{"rt":5216,"stimulus":"[A] option 1, [L] option 2, [G] neither","key_press":65,"name":"choice","trial_type":"html-keyboard-response","trial_index":10,"time_elapsed":29817,"internal_node_id":"0.0-10.0","subject":"S1C1611","sona":"41562","block":2,"time":"2021-09-15T18:00:45.538Z","response":"1st","certainty":"high","char":"A","transposition":-2,"order":["swapped","shifted"],"probe_pitches":[1,5,11,12,6,11,1,11,2,8,9,3,12,5,4,7],"shifted_pitches":[1,5,11,12,6,11,1,10,2,8,9,3,12,5,4,7],"swapped_pitches":[1,5,11,12,6,11,1,2,11,8,9,3,12,5,4,7],"shift_direction":-1,"question_num":1,"has_decoy":false},{"rt":1982.6000001430511,"stimulus":"[A] option 1, [L] option 2, [G] neither","key_press":65,"name":"choice","trial_type":"html-keyboard-response","trial_index":21,"time_elapsed":55242,"internal_node_id":"0.0-21.0","subject":"S1C1611","sona":"41562","block":2,"time":"2021-09-15T18:00:45.538Z","response":"1st","certainty":"high","char":"A","transposition":-3,"order":["swapped","shifted"],"probe_pitches":[0,1,2,7,0,2,7,11,4,9,0,2,0,3,1,9],"shifted_pitches":[0,1,2,7,0,2,7,11,5,9,0,2,0,3,1,9],"swapped_pitches":[0,1,2,7,0,2,7,4,11,9,0,2,0,3,1,9],"shift_direction":1,"question_num":11,"has_decoy":false},{"rt":2675,"stimulus":"[A] option 1, [L] option 2, [G] neither","key_press":65,"name":"choice","trial_type":"html-keyboard-response","trial_index":32,"time_elapsed":80179,"internal_node_id":"0.0-32.0","subject":"S1C1611","sona":"41562","block":2,"time":"2021-09-15T18:00:45.538Z","response":"1st","certainty":"high","char":"A","transposition":1,"order":["swapped","shifted"],"probe_pitches":[6,9,11,5,12,9,2,0,6,5,2,4,0,9,5,1],"shifted_pitches":[6,9,11,5,12,9,2,0,7,5,2,4,0,9,5,1],"swapped_pitches":[6,9,11,5,12,9,2,6,0,5,2,4,0,9,5,1],"shift_direction":1,"question_num":21,"has_decoy":false},{"rt":642.0999999046326,"stimulus":"[A] option 1, [L] option 2, [G] neither","key_press":76,"name":"choice","trial_type":"html-keyboard-response","trial_index":43,"time_elapsed":103665,"internal_node_id":"0.0-43.0","subject":"S1C1611","sona":"41562","block":2,"time":"2021-09-15T18:00:45.538Z","response":"2nd","certainty":"high","char":"L","transposition":-3,"order":["shifted","swapped"],"probe_pitches":[15,12,10,15,7,3,12,15,5,7,15,7,10,12,15,12],"shifted_pitches":[15,12,10,15,7,3,12,15,4,7,15,7,10,12,15,12],"swapped_pitches":[15,12,10,15,7,3,12,5,15,7,15,7,10,12,15,12],"shift_direction":-1,"question_num":31,"has_decoy":false},{"rt":1698.5999999046326,"stimulus":"[A] option 1, [L] option 2, [G] neither","key_press":76,"name":"choice","trial_type":"html-keyboard-response","trial_index":54,"time_elapsed":128642,"internal_node_id":"0.0-54.0","subject":"S1C1611","sona":"41562","block":2,"time":"2021-09-15T18:00:45.538Z","response":"2nd","certainty":"high","char":"L","transposition":1,"order":["swapped","shifted"],"probe_pitches":[13,8,3,8,15,13,3,11,8,15,13,15,8,6,3,15],"shifted_pitches":[13,8,3,8,15,13,3,11,7,15,13,15,8,6,3,15],"swapped_pitches":[13,8,3,8,15,13,3,8,11,15,13,15,8,6,3,15],"shift_direction":-1,"question_num":41,"has_decoy":false},{"rt":784.1000001430511,"stimulus":"[A] option 1, [L] option 2, [G] neither","key_press":76,"name":"choice","trial_type":"html-keyboard-response","trial_index":65,"time_elapsed":152031,"internal_node_id":"0.0-65.0","subject":"S1C1611","sona":"41562","block":2,"time":"2021-09-15T18:00:45.538Z","response":"2nd","certainty":"high","char":"L","transposition":-1,"order":["shifted","swapped"],"probe_pitches":[8,12,6,2,0,10,2,0,3,9,0,8,6,4,12,3],"shifted_pitches":[8,12,6,2,0,10,2,-1,3,9,0,8,6,4,12,3],"swapped_pitches":[8,12,6,2,0,10,2,3,0,9,0,8,6,4,12,3],"shift_direction":-1,"question_num":51,"has_decoy":false},{"rt":517.5,"stimulus":"[A] option 1, [L] option 2, [G] neither","key_press":65,"name":"choice","trial_type":"html-keyboard-response","trial_index":76,"time_elapsed":175689,"internal_node_id":"0.0-76.0","subject":"S1C1611","sona":"41562","block":2,"time":"2021-09-15T18:00:45.538Z","response":"1st","certainty":"high","char":"A","transposition":-1,"order":["shifted","swapped"],"probe_pitches":[5,3,7,1,8,11,10,3,0,5,12,0,12,0,12,0],"shifted_pitches":[5,3,7,1,8,11,10,2,0,5,12,0,12,0,12,0],"swapped_pitches":[5,3,7,1,8,11,10,0,3,5,12,0,12,0,12,0],"shift_direction":-1,"question_num":61,"has_decoy":false},{"rt":828.0999999046326,"stimulus":"[A] option 1, [L] option 2, [G] neither","key_press":65,"name":"choice","trial_type":"html-keyboard-response","trial_index":87,"time_elapsed":198524,"internal_node_id":"0.0-87.0","subject":"S1C1611","sona":"41562","block":2,"time":"2021-09-15T18:00:45.538Z","response":"1st","certainty":"high","char":"A","transposition":3,"order":["shifted","swapped"],"probe_pitches":[9,6,0,7,0,7,1,10,9,5,10,2,10,1,7,0],"shifted_pitches":[9,6,0,7,0,7,1,10,8,5,10,2,10,1,7,0],"swapped_pitches":[9,6,0,7,0,7,1,9,10,5,10,2,10,1,7,0],"shift_direction":-1,"question_num":71,"has_decoy":false},{"rt":709.5,"stimulus":"[A] option 1, [L] option 2, [G] neither","key_press":76,"name":"choice","trial_type":"html-keyboard-response","trial_index":98,"time_elapsed":221909,"internal_node_id":"0.0-98.0","subject":"S1C1611","sona":"41562","block":2,"time":"2021-09-15T18:00:45.538Z","response":"2nd","certainty":"high","char":"L","transposition":-1,"order":["shifted","swapped"],"probe_pitches":[13,8,3,10,5,3,5,10,15,13,15,10,5,10,15,3],"shifted_pitches":[13,8,3,10,5,3,5,9,15,13,15,10,5,10,15,3],"swapped_pitches":[13,8,3,10,5,3,5,15,10,13,15,10,5,10,15,3],"shift_direction":-1,"question_num":81,"has_decoy":false},{"rt":1224.1000001430511,"stimulus":"[A] option 1, [L] option 2, [G] neither","key_press":76,"name":"choice","trial_type":"html-keyboard-response","trial_index":109,"time_elapsed":245863,"internal_node_id":"0.0-109.0","subject":"S1C1611","sona":"41562","block":2,"time":"2021-09-15T18:00:45.538Z","response":"2nd","certainty":"high","char":"L","transposition":3,"order":["shifted","swapped"],"probe_pitches":[3,5,12,15,12,10,12,15,10,3,7,3,5,12,3,7],"shifted_pitches":[3,5,12,15,12,10,12,16,10,3,7,3,5,12,3,7],"swapped_pitches":[3,5,12,15,12,10,12,10,15,3,7,3,5,12,3,7],"shift_direction":1,"question_num":91,"has_decoy":false},{"rt":612.3000001907349,"stimulus":"[A] option 1, [L] option 2, [G] neither","key_press":65,"name":"choice","trial_type":"html-keyboard-response","trial_index":120,"time_elapsed":269114,"internal_node_id":"0.0-120.0","subject":"S1C1611","sona":"41562","block":2,"time":"2021-09-15T18:00:45.538Z","response":"1st","certainty":"high","char":"A","transposition":0,"order":["swapped","shifted"],"probe_pitches":[12,8,2,6,1,0,7,4,2,6,12,7,6,12,11,12],"shifted_pitches":[12,8,2,6,1,0,7,4,3,6,12,7,6,12,11,12],"swapped_pitches":[12,8,2,6,1,0,7,2,4,6,12,7,6,12,11,12],"shift_direction":1,"question_num":101,"has_decoy":false},{"rt":2896.0999999046326,"stimulus":"[A] option 1, [L] option 2, [G] neither","key_press":71,"name":"choice","trial_type":"html-keyboard-response","trial_index":131,"time_elapsed":295127,"internal_node_id":"0.0-131.0","subject":"S1C1611","sona":"41562","block":2,"time":"2021-09-15T18:00:45.538Z","response":"neither","certainty":"high","char":"G","transposition":-1,"order":["swapped","shifted"],"probe_pitches":[12,15,10,8,5,15,12,5,3,8,5,10,5,12,3,8],"shifted_pitches":[12,15,10,8,5,15,12,6,3,8,5,10,5,12,3,8],"swapped_pitches":[12,15,10,8,5,15,12,3,5,8,5,10,5,12,3,8],"shift_direction":1,"question_num":111,"has_decoy":false},{"rt":1029.7000000476837,"stimulus":"[A] option 1, [L] option 2, [G] neither","key_press":76,"name":"choice","trial_type":"html-keyboard-response","trial_index":142,"time_elapsed":318953,"internal_node_id":"0.0-142.0","subject":"S1C1611","sona":"41562","block":2,"time":"2021-09-15T18:00:45.538Z","response":"2nd","certainty":"high","char":"L","transposition":-3,"order":["shifted","swapped"],"probe_pitches":[12,6,8,12,5,1,8,5,10,8,9,1,9,6,3,12],"shifted_pitches":[12,6,8,12,5,1,8,4,10,8,9,1,9,6,3,12],"swapped_pitches":[12,6,8,12,5,1,8,10,5,8,9,1,9,6,3,12],"shift_direction":-1,"question_num":121,"has_decoy":false},{"rt":442.80000019073486,"stimulus":"[A] option 1, [L] option 2, [G] neither","key_press":76,"name":"choice","trial_type":"html-keyboard-response","trial_index":153,"time_elapsed":341909,"internal_node_id":"0.0-153.0","subject":"S1C1611","sona":"41562","block":2,"time":"2021-09-15T18:00:45.538Z","response":"2nd","certainty":"high","char":"L","transposition":-2,"order":["swapped","shifted"],"probe_pitches":[11,8,2,1,4,2,0,5,11,12,10,1,9,3,5,12],"shifted_pitches":[11,8,2,1,4,2,0,6,11,12,10,1,9,3,5,12],"swapped_pitches":[11,8,2,1,4,2,0,11,5,12,10,1,9,3,5,12],"shift_direction":1,"question_num":131,"has_decoy":false},{"rt":826.3999998569489,"stimulus":"[A] option 1, [L] option 2, [G] neither","key_press":76,"name":"choice","trial_type":"html-keyboard-response","trial_index":164,"time_elapsed":365299,"internal_node_id":"0.0-164.0","subject":"S1C1611","sona":"41562","block":2,"time":"2021-09-15T18:00:45.538Z","response":"2nd","certainty":"high","char":"L","transposition":2,"order":["swapped","shifted"],"probe_pitches":[3,8,15,13,8,15,6,3,11,15,8,6,3,13,8,13],"shifted_pitches":[3,8,15,13,8,15,6,3,12,15,8,6,3,13,8,13],"swapped_pitches":[3,8,15,13,8,15,6,11,3,15,8,6,3,13,8,13],"shift_direction":1,"question_num":141,"has_decoy":false},{"rt":1261.4000000953674,"stimulus":"[A] option 1, [L] option 2, [G] neither","key_press":76,"name":"choice","trial_type":"html-keyboard-response","trial_index":175,"time_elapsed":389104,"internal_node_id":"0.0-175.0","subject":"S1C1611","sona":"41562","block":2,"time":"2021-09-15T18:00:45.538Z","response":"2nd","certainty":"high","char":"L","transposition":-3,"order":["swapped","shifted"],"probe_pitches":[3,6,10,3,6,8,13,15,3,10,13,15,13,6,15,13],"shifted_pitches":[3,6,10,3,6,8,13,14,3,10,13,15,13,6,15,13],"swapped_pitches":[3,6,10,3,6,8,13,3,15,10,13,15,13,6,15,13],"shift_direction":-1,"question_num":151,"has_decoy":false},{"rt":3625.9000000953674,"stimulus":"[A] option 1, [L] option 2, [G] neither","key_press":76,"name":"choice","trial_type":"html-keyboard-response","trial_index":186,"time_elapsed":415336,"internal_node_id":"0.0-186.0","subject":"S1C1611","sona":"41562","block":2,"time":"2021-09-15T18:00:45.538Z","response":"2nd","certainty":"high","char":"L","transposition":-2,"order":["shifted","swapped"],"probe_pitches":[10,5,10,3,5,15,10,8,5,10,3,10,15,10,13,3],"shifted_pitches":[10,5,10,3,5,15,10,8,6,10,3,10,15,10,13,3],"swapped_pitches":[10,5,10,3,5,15,10,5,8,10,3,10,15,10,13,3],"shift_direction":1,"question_num":161,"has_decoy":false},{"rt":5887,"stimulus":"[A] option 1, [L] option 2, [G] neither","key_press":76,"name":"choice","trial_type":"html-keyboard-response","trial_index":197,"time_elapsed":444304,"internal_node_id":"0.0-197.0","subject":"S1C1611","sona":"41562","block":2,"time":"2021-09-15T18:00:45.538Z","response":"2nd","certainty":"high","char":"L","transposition":2,"order":["shifted","swapped"],"probe_pitches":[6,0,7,2,10,7,3,10,8,12,6,12,5,4,2,3],"shifted_pitches":[6,0,7,2,10,7,3,10,9,12,6,12,5,4,2,3],"swapped_pitches":[6,0,7,2,10,7,3,8,10,12,6,12,5,4,2,3],"shift_direction":1,"question_num":171,"has_decoy":false},{"rt":843.2000000476837,"stimulus":"[A] option 1, [L] option 2, [G] neither","key_press":65,"name":"choice","trial_type":"html-keyboard-response","trial_index":208,"time_elapsed":467710,"internal_node_id":"0.0-208.0","subject":"S1C1611","sona":"41562","block":2,"time":"2021-09-15T18:00:45.538Z","response":"1st","certainty":"high","char":"A","transposition":-2,"order":["shifted","swapped"],"probe_pitches":[3,6,10,6,10,13,8,13,15,6,15,13,15,8,15,10],"shifted_pitches":[3,6,10,6,10,13,8,14,15,6,15,13,15,8,15,10],"swapped_pitches":[3,6,10,6,10,13,8,15,13,6,15,13,15,8,15,10],"shift_direction":1,"question_num":181,"has_decoy":false},{"rt":1517.1999998092651,"stimulus":"[A] option 1, [L] option 2, [G] neither","key_press":65,"name":"choice","trial_type":"html-keyboard-response","trial_index":219,"time_elapsed":492570,"internal_node_id":"0.0-219.0","subject":"S1C1611","sona":"41562","block":2,"time":"2021-09-15T18:00:45.538Z","response":"1st","certainty":"high","char":"A","transposition":0,"order":["swapped","shifted"],"probe_pitches":[12,10,3,8,15,8,10,5,12,8,5,10,3,15,10,3],"shifted_pitches":[12,10,3,8,15,8,10,5,11,8,5,10,3,15,10,3],"swapped_pitches":[12,10,3,8,15,8,10,12,5,8,5,10,3,15,10,3],"shift_direction":-1,"question_num":191,"has_decoy":false}]