,RT,RT_chromatic,RT_diatonic,RT_diatonic_shifted,RT_diatonic_swapped,RT_diatonic_neither,RT_chromatic_shifted,RT_chromatic_swapped,RT_chromatic_neither,diatonic_trials,chromatic_trials,diatonic_chose_shifted,diatonic_chose_swapped,diatonic_chose_neither,diatonic_trials (NN),chromatic_chose_shifted,chromatic_chose_swapped,chromatic_chose_neither,chromatic_trials (NN),melody_length,subject,RT_diatonic_sh-sw,RT_chromatic_sh-sw,RT_swapped_c-d,RT_shifted_c-d,rate_diatonic_shifted,rate_diatonic_shifted (NN),rate_diatonic_swapped,rate_diatonic_swapped (NN),rate_diatonic_neither,rate_chromatic_shifted,rate_chromatic_shifted (NN),rate_chromatic_swapped,rate_chromatic_swapped (NN),rate_chromatic_neither,diatonic_sh-sw,diatonic_sh-sw (NN),chromatic_sh-sw,chromatic_sh-sw (NN)
0,1075.0300000031789,1106.5000000059604,1043.5600000003974,1074.9868421052631,981.5523809535163,1151.5,1065.692592598774,1060.8406250067055,3669.399999976158,60.0,60.0,38.0,21.0,1.0,59.0,27.0,32.0,1.0,59.0,8.0,S1C0800,93.43446115174686,4.851967592068377,79.28824405318926,-9.294249506489223,0.6333333333333333,0.6440677966101694,0.35,0.3559322033898305,0.016666666666666666,0.45,0.4576271186440678,0.5333333333333333,0.5423728813559322,0.016666666666666666,0.2833333333333333,0.28813559322033894,-0.08333333333333331,-0.0847457627118644
120,1841.4766666730245,1699.785000002384,1983.1683333436647,1930.7125000059605,2347.3727272640576,1500.7714286191124,1374.315789498781,1701.5588235434363,1956.1916666428249,60.0,60.0,24.0,22.0,14.0,46.0,19.0,17.0,24.0,36.0,8.0,S1C0804,-416.66022725809717,-327.24303404465536,-645.8139037206213,-556.3967105071795,0.4,0.5217391304347826,0.36666666666666664,0.4782608695652174,0.23333333333333334,0.31666666666666665,0.5277777777777778,0.2833333333333333,0.4722222222222222,0.4,0.03333333333333338,0.04347826086956519,0.033333333333333326,0.05555555555555558
240,1573.2033333351214,1971.0500000059606,1175.3566666642826,1044.7093023172645,1443.6375000178814,2500.6999999284744,1461.124999995033,1569.3935484001713,6908.9600000143055,60.0,60.0,43.0,16.0,1.0,59.0,24.0,31.0,5.0,55.0,8.0,S1C0806,-398.9281977006169,-108.26854840513829,125.75604838228992,416.41569767776855,0.7166666666666667,0.7288135593220338,0.26666666666666666,0.2711864406779661,0.016666666666666666,0.4,0.43636363636363634,0.5166666666666667,0.5636363636363636,0.08333333333333333,0.45,0.45762711864406774,-0.1166666666666667,-0.12727272727272726
360,13683.217500003178,18734.696666671833,8631.738333334526,4342.688888887565,3286.7249999990067,11266.138461540906,5214.7666666607065,4363.06666666766,24772.295238103186,60.0,60.0,9.0,12.0,39.0,21.0,6.0,12.0,42.0,18.0,8.0,S1C0808,1055.963888888558,851.6999999930467,1076.341666668653,872.0777777731419,0.15,0.42857142857142855,0.2,0.5714285714285714,0.65,0.1,0.3333333333333333,0.2,0.6666666666666666,0.7,-0.05000000000000002,-0.14285714285714285,-0.1,-0.3333333333333333
480,1532.553333332638,1684.6599999986588,1380.446666666617,905.8093749987893,1698.5058823552201,2269.6636363633656,1384.6633333310485,1797.8095238088142,2420.6333333336643,60.0,60.0,32.0,17.0,11.0,49.0,30.0,21.0,9.0,51.0,8.0,S1C0809,-792.6965073564309,-413.1461904777657,99.30364145359408,478.85395833225925,0.5333333333333333,0.6530612244897959,0.2833333333333333,0.3469387755102041,0.18333333333333332,0.5,0.5882352941176471,0.35,0.4117647058823529,0.15,0.25,0.3061224489795918,0.15000000000000002,0.17647058823529416
600,1992.8916666696468,2619.605000005166,1366.178333334128,1123.9581395332204,2068.035714302744,1562.6666666269302,1936.8380952392306,3229.0696969754767,1657.233333349228,60.0,60.0,43.0,14.0,3.0,57.0,21.0,33.0,6.0,54.0,8.0,S1C0811,-944.0775747695236,-1292.2316017362461,1161.0339826727327,812.8799557060102,0.7166666666666667,0.7543859649122807,0.23333333333333334,0.24561403508771928,0.05,0.35,0.3888888888888889,0.55,0.6111111111111112,0.1,0.48333333333333334,0.5087719298245614,-0.20000000000000007,-0.22222222222222227
720,1840.2491666659712,1829.0683333337306,1851.4299999982118,1915.55,1671.6645161278786,2328.133333325386,1859.2555555568802,1680.0131578931682,2243.869230774733,60.0,60.0,20.0,31.0,9.0,51.0,9.0,38.0,13.0,47.0,8.0,S1C0812,243.8854838721213,179.24239766371193,8.348641765289585,-56.2944444431198,0.3333333333333333,0.39215686274509803,0.5166666666666667,0.6078431372549019,0.15,0.15,0.19148936170212766,0.6333333333333333,0.8085106382978723,0.21666666666666667,-0.1833333333333334,-0.21568627450980388,-0.4833333333333333,-0.6170212765957446
840,1981.379999999997,1730.2650000000992,2232.4949999998944,2339.696153846211,1650.416666666201,2423.2999999998983,903.4315789475253,1762.9904761906005,2481.3950000000186,60.0,60.0,26.0,12.0,22.0,38.0,19.0,21.0,20.0,40.0,8.0,S1C0813,689.2794871800099,-859.5588972430752,112.5738095243994,-1436.2645748986856,0.43333333333333335,0.6842105263157895,0.2,0.3157894736842105,0.36666666666666664,0.31666666666666665,0.475,0.35,0.525,0.3333333333333333,0.23333333333333334,0.368421052631579,-0.033333333333333326,-0.050000000000000044
960,1502.0408333222072,1650.6999999841055,1353.3816666603088,1296.2068965517242,991.9428571462631,1748.57058821005,1228.1615384358627,1097.1576923040243,2597.6095237845466,60.0,60.0,29.0,14.0,17.0,43.0,13.0,26.0,21.0,39.0,8.0,S1C0814,304.26403940546106,131.00384613183837,105.21483515776117,-68.04535811586152,0.48333333333333334,0.6744186046511628,0.23333333333333334,0.32558139534883723,0.2833333333333333,0.21666666666666667,0.3333333333333333,0.43333333333333335,0.6666666666666666,0.35,0.25,0.34883720930232553,-0.21666666666666667,-0.3333333333333333
1080,1575.514166666443,1648.6049999989568,1502.4233333339293,1327.000000000596,1287.8200000007948,1882.655000000447,1969.2882352927152,1219.2647058805999,1719.649999999656,60.0,60.0,25.0,15.0,20.0,40.0,17.0,17.0,26.0,34.0,8.0,S1C0817,39.17999999980111,750.0235294121153,-68.55529412019496,642.2882352921192,0.4166666666666667,0.625,0.25,0.375,0.3333333333333333,0.2833333333333333,0.5,0.2833333333333333,0.5,0.43333333333333335,0.16666666666666669,0.25,0.0,0.0
1200,1254.6133333333612,874.4316666666418,1634.7950000000808,1426.2137931034868,1426.9500000001196,5590.966666666791,1015.5187500000466,818.3302325580789,1029.4000000003725,60.0,60.0,29.0,28.0,3.0,57.0,16.0,43.0,1.0,59.0,8.0,S1C0819,-0.7362068966328934,197.18851744196763,-608.6197674420407,-410.6950431034402,0.48333333333333334,0.5087719298245614,0.4666666666666667,0.49122807017543857,0.05,0.26666666666666666,0.2711864406779661,0.7166666666666667,0.7288135593220338,0.016666666666666666,0.016666666666666663,0.01754385964912286,-0.45,-0.45762711864406774
1320,2828.837499999379,2422.704999999454,3234.9699999993045,1626.8882352955202,1472.3062499985099,5292.007407405862,1746.0066666672626,2031.346428571003,3664.3823529394235,60.0,60.0,17.0,16.0,27.0,33.0,15.0,28.0,17.0,43.0,8.0,S1C0820,154.5819852970103,-285.3397619037403,559.040178572493,119.11843137174242,0.2833333333333333,0.5151515151515151,0.26666666666666666,0.48484848484848486,0.45,0.25,0.3488372093023256,0.4666666666666667,0.6511627906976745,0.2833333333333333,0.016666666666666663,0.030303030303030276,-0.21666666666666667,-0.3023255813953489
1440,1009.3808333331098,1099.3600000003973,919.4016666658223,927.0184210511414,908.157142857001,866.1000000089407,974.3956521736538,1133.4500000009107,2746.2999999970198,60.0,60.0,38.0,21.0,1.0,59.0,23.0,36.0,1.0,59.0,8.0,S1C0823,18.861278194140482,-159.05434782725683,225.2928571439097,47.3772311225124,0.6333333333333333,0.6440677966101694,0.35,0.3559322033898305,0.016666666666666666,0.38333333333333336,0.3898305084745763,0.6,0.6101694915254238,0.016666666666666666,0.2833333333333333,0.28813559322033894,-0.21666666666666662,-0.22033898305084748
1560,10060.542499999205,17507.44500000179,2613.6399999966225,2598.6038461510952,1806.2999999986755,5783.514285700662,1735.390000000596,1505.6629629664951,75006.61538461539,60.0,60.0,26.0,27.0,7.0,53.0,20.0,27.0,13.0,47.0,8.0,S1C0824,792.3038461524197,229.72703703410093,-300.6370370321804,-863.2138461504992,0.43333333333333335,0.49056603773584906,0.45,0.5094339622641509,0.11666666666666667,0.3333333333333333,0.425531914893617,0.45,0.574468085106383,0.21666666666666667,-0.016666666666666663,-0.018867924528301883,-0.1166666666666667,-0.148936170212766
1680,1121.553333333383,966.3266666650773,1276.780000001689,806.4315789483095,1252.8777777800958,1684.0347826105096,1035.159999997914,706.9583333333334,1269.3374999966472,60.0,60.0,19.0,18.0,23.0,37.0,20.0,24.0,16.0,44.0,8.0,S1C0826,-446.4461988317863,328.20166666458056,-545.9194444467624,228.72842104960444,0.31666666666666665,0.5135135135135135,0.3,0.4864864864864865,0.38333333333333336,0.3333333333333333,0.45454545454545453,0.4,0.5454545454545454,0.26666666666666666,0.016666666666666663,0.027027027027026973,-0.06666666666666671,-0.09090909090909088
1800,2121.9283333351214,1713.375,2530.481666670243,1481.12083333234,1790.2200000047683,4258.509523817471,1057.9863636331124,1489.995454544371,2921.6812500059605,60.0,60.0,24.0,15.0,21.0,39.0,22.0,22.0,16.0,44.0,8.0,S1C0827,-309.0991666724283,-432.00909091125845,-300.2245454603974,-423.13446969922757,0.4,0.6153846153846154,0.25,0.38461538461538464,0.35,0.36666666666666664,0.5,0.36666666666666664,0.5,0.26666666666666666,0.15000000000000002,0.23076923076923078,0.0,0.0
1920,1759.3233333388964,1937.09833334287,1581.5483333349227,1032.6545454155314,3186.6600001017255,1656.2000002861023,2045.8718750178814,1519.5920000076294,4256.066666603088,60.0,60.0,44.0,15.0,1.0,59.0,32.0,25.0,3.0,57.0,8.0,S1C0828,-2154.005454686194,526.279875010252,-1667.068000094096,1013.21732960235,0.7333333333333333,0.7457627118644068,0.25,0.2542372881355932,0.016666666666666666,0.5333333333333333,0.5614035087719298,0.4166666666666667,0.43859649122807015,0.05,0.4833333333333333,0.4915254237288136,0.11666666666666664,0.12280701754385964
2040,1438.548333334302,1494.4633333352706,1382.6333333333334,1003.6175000000745,1003.6999999992549,2898.641666666915,1020.1937500014901,1177.3095238130718,2113.9652173920817,60.0,60.0,40.0,8.0,12.0,48.0,16.0,21.0,23.0,37.0,8.0,S1C0830,-0.0824999991804134,-157.11577381158168,173.60952381381685,16.576250001415588,0.6666666666666666,0.8333333333333334,0.13333333333333333,0.16666666666666666,0.2,0.26666666666666666,0.43243243243243246,0.35,0.5675675675675675,0.38333333333333336,0.5333333333333333,0.6666666666666667,-0.08333333333333331,-0.1351351351351351
2160,1975.2174999999504,2033.6350000000868,1916.7999999998137,1657.4785714283407,2197.792307692365,3364.519999999553,2120.195833333613,1567.2416666663873,2793.3000000004345,60.0,60.0,42.0,13.0,5.0,55.0,24.0,24.0,12.0,48.0,8.0,S1C0831,-540.3137362640241,552.9541666672255,-630.5506410259775,462.71726190527215,0.7,0.7636363636363637,0.21666666666666667,0.23636363636363636,0.08333333333333333,0.4,0.5,0.4,0.5,0.2,0.4833333333333333,0.5272727272727273,0.0,0.0
2280,1650.65499999548,1915.091666661203,1386.2183333297571,1303.0399999967642,1418.2833333301048,3527.899999976158,2683.7095238055504,1429.0944444371594,2366.733333339294,60.0,60.0,35.0,24.0,1.0,59.0,21.0,36.0,3.0,57.0,8.0,S1C0835,-115.24333333334062,1254.615079368391,10.811111107054558,1380.6695238087862,0.5833333333333334,0.5932203389830508,0.4,0.4067796610169492,0.016666666666666666,0.35,0.3684210526315789,0.6,0.631578947368421,0.05,0.18333333333333335,0.18644067796610164,-0.25,-0.2631578947368421
2400,2144.774166666468,2084.1783333400886,2205.3699999928476,2130.4033333222073,2046.5840000009537,3449.099999976158,2213.7851851957817,2027.7137931092032,1618.699999988079,60.0,60.0,30.0,25.0,5.0,55.0,27.0,29.0,4.0,56.0,8.0,S1C0836,83.81933332125368,186.0713920865785,-18.870206891750513,83.3818518735743,0.5,0.5454545454545454,0.4166666666666667,0.45454545454545453,0.08333333333333333,0.45,0.48214285714285715,0.48333333333333334,0.5178571428571429,0.06666666666666667,0.08333333333333331,0.09090909090909088,-0.033333333333333326,-0.035714285714285754
2520,1423.5325000007947,1557.2499999990066,1289.8150000025828,1966.119999998808,1099.870833337307,2466.949999988079,3454.7833333412805,1280.7980392142838,2461.8666666547456,60.0,60.0,10.0,48.0,2.0,58.0,6.0,51.0,3.0,57.0,8.0,S1C0838,866.249166661501,2173.9852941269965,180.9272058769768,1488.6633333424725,0.16666666666666666,0.1724137931034483,0.8,0.8275862068965517,0.03333333333333333,0.1,0.10526315789473684,0.85,0.8947368421052632,0.05,-0.6333333333333334,-0.6551724137931034,-0.75,-0.7894736842105263
2640,3828.4358333333084,3151.5966666676104,4505.2749999990065,3589.6095238093817,4064.9419354820443,8615.1875,3380.6541666680328,2313.0499999998856,4782.080000002682,60.0,60.0,21.0,31.0,8.0,52.0,24.0,26.0,10.0,50.0,8.0,S1C0839,-475.3324116726626,1067.6041666681472,-1751.8919354821587,-208.95535714134894,0.35,0.40384615384615385,0.5166666666666667,0.5961538461538461,0.13333333333333333,0.4,0.48,0.43333333333333335,0.52,0.16666666666666666,-0.16666666666666674,-0.1923076923076923,-0.033333333333333326,-0.040000000000000036
2760,7989.090000000161,10917.161666667338,5061.018333332986,2973.9086956517854,6267.941666666418,9615.29999999702,13611.11200000137,10294.990000000347,1180.439999999106,60.0,60.0,23.0,36.0,1.0,59.0,25.0,30.0,5.0,55.0,12.0,S1C1202,-3294.032971014633,3316.1220000010235,4027.048333333929,10637.203304349585,0.38333333333333336,0.3898305084745763,0.6,0.6101694915254238,0.016666666666666666,0.4166666666666667,0.45454545454545453,0.5,0.5454545454545454,0.08333333333333333,-0.21666666666666662,-0.22033898305084748,-0.08333333333333331,-0.09090909090909088
2880,1509.2074999849,1527.0433333396911,1491.371666630109,1001.4586206469043,1590.8333332538605,2176.315789473684,1432.4192307912385,1609.4758620755426,1540.9799999237061,60.0,60.0,29.0,12.0,19.0,41.0,26.0,29.0,5.0,55.0,12.0,S1C1204,-589.3747126069562,-177.0566312843041,18.642528821682163,430.9606101443343,0.48333333333333334,0.7073170731707317,0.2,0.2926829268292683,0.31666666666666665,0.43333333333333335,0.4727272727272727,0.48333333333333334,0.5272727272727272,0.08333333333333333,0.2833333333333333,0.4146341463414634,-0.04999999999999999,-0.05454545454545451
3000,3139.5150000000217,3632.973333333363,2646.0566666666805,2591.3310344827296,2797.605555555602,2558.3000000000643,4117.250000000031,3233.452941176509,3037.8615384615528,60.0,60.0,29.0,18.0,13.0,47.0,30.0,17.0,13.0,47.0,12.0,S1C1205,-206.27452107287263,883.7970588235221,435.8473856209066,1525.9189655173013,0.48333333333333334,0.6170212765957447,0.3,0.3829787234042553,0.21666666666666667,0.5,0.6382978723404256,0.2833333333333333,0.3617021276595745,0.21666666666666667,0.18333333333333335,0.23404255319148937,0.21666666666666667,0.2765957446808511
3120,1489.6566666702429,1956.333333337307,1022.9800000031789,928.6857142888364,996.3900000035762,1551.2625000029802,1255.7636363587596,2559.425000011921,1808.9300000011922,60.0,60.0,42.0,10.0,8.0,52.0,22.0,28.0,10.0,50.0,12.0,S1C1206,-67.70428571473985,-1303.6613636531613,1563.0350000083447,327.07792206992326,0.7,0.8076923076923077,0.16666666666666666,0.19230769230769232,0.13333333333333333,0.36666666666666664,0.44,0.4666666666666667,0.56,0.16666666666666666,0.5333333333333333,0.6153846153846154,-0.10000000000000003,-0.12000000000000005
3240,101216.58083333341,199323.23000000007,3109.931666666766,3584.890909090638,2329.1875,3134.8439024392424,4599.771428570683,2865.219999999553,248184.77708333358,60.0,60.0,11.0,8.0,41.0,19.0,7.0,5.0,48.0,12.0,12.0,S1C1207,1255.7034090906382,1734.5514285711306,536.0324999995528,1014.8805194800452,0.18333333333333332,0.5789473684210527,0.13333333333333333,0.42105263157894735,0.6833333333333333,0.11666666666666667,0.5833333333333334,0.08333333333333333,0.4166666666666667,0.8,0.04999999999999999,0.1578947368421053,0.03333333333333334,0.16666666666666669
3360,2079.1200000001427,1938.660000000087,2219.5800000001987,1811.4714285716414,1903.1375000001863,24098.0,1125.176000000015,2627.3645161291765,1685.4750000000931,60.0,60.0,35.0,24.0,1.0,59.0,25.0,31.0,4.0,56.0,12.0,S1C1209,-91.66607142854491,-1502.1885161291616,724.2270161289903,-686.2954285716264,0.5833333333333334,0.5932203389830508,0.4,0.4067796610169492,0.016666666666666666,0.4166666666666667,0.44642857142857145,0.5166666666666667,0.5535714285714286,0.06666666666666667,0.18333333333333335,0.18644067796610164,-0.10000000000000003,-0.10714285714285715
3480,5610.1991666666545,3507.875,7712.523333333308,10249.022727273405,2843.239999999603,18996.96249999944,4162.0374999996275,2884.3862068966546,3848.057142857994,60.0,60.0,22.0,30.0,8.0,52.0,24.0,29.0,7.0,53.0,12.0,S1C1210,7405.782727273801,1277.6512931029729,41.1462068970518,-6086.985227273777,0.36666666666666664,0.4230769230769231,0.5,0.5769230769230769,0.13333333333333333,0.4,0.4528301886792453,0.48333333333333334,0.5471698113207547,0.11666666666666667,-0.13333333333333336,-0.1538461538461538,-0.08333333333333331,-0.09433962264150941
3600,5626.392500000323,9606.860000000894,1645.9249999997517,1982.268571428316,1074.763157895521,1492.5999999965231,5767.368965517858,18658.88000000119,3270.9363636374474,60.0,60.0,35.0,19.0,6.0,54.0,29.0,20.0,11.0,49.0,12.0,S1C1211,907.5054135327948,-12891.511034483334,17584.11684210567,3785.1003940895416,0.5833333333333334,0.6481481481481481,0.31666666666666665,0.35185185185185186,0.1,0.48333333333333334,0.5918367346938775,0.3333333333333333,0.40816326530612246,0.18333333333333332,0.2666666666666667,0.2962962962962963,0.15000000000000002,0.18367346938775508
3720,1802.835833333386,1730.495000000143,1875.1766666666294,1736.4722222222222,1962.7909090907567,3408.100000000559,1519.1891891894409,1935.9238095237386,3482.6500000003725,60.0,60.0,36.0,22.0,2.0,58.0,37.0,21.0,2.0,58.0,12.0,S1C1212,-226.31868686853454,-416.7346203342977,-26.86709956701816,-217.2830330327813,0.6,0.6206896551724138,0.36666666666666664,0.3793103448275862,0.03333333333333333,0.6166666666666667,0.6379310344827587,0.35,0.3620689655172414,0.03333333333333333,0.23333333333333334,0.24137931034482762,0.2666666666666667,0.2758620689655173
3840,1589.2933333329856,1588.1349999996523,1590.451666666319,1580.8499999996275,1367.6000000089407,1603.4028571422612,1417.4142857108798,2311.9666666669978,1467.2386363636363,60.0,60.0,24.0,1.0,35.0,25.0,7.0,9.0,44.0,16.0,12.0,S1C1214,213.24999999068677,-894.552380956118,944.366666658057,-163.4357142887477,0.4,0.96,0.016666666666666666,0.04,0.5833333333333334,0.11666666666666667,0.4375,0.15,0.5625,0.7333333333333333,0.38333333333333336,0.9199999999999999,-0.033333333333333326,-0.125
3960,3246.379166666294,3372.464999999851,3120.2933333327373,2617.0517241371604,2402.5499999984168,4858.820000000795,2840.6347826084366,3286.2909090905027,4314.326666667064,60.0,60.0,29.0,16.0,15.0,45.0,23.0,22.0,15.0,45.0,12.0,S1C1216,214.5017241387436,-445.65612648206616,883.740909092086,223.58305847127622,0.48333333333333334,0.6444444444444445,0.26666666666666666,0.35555555555555557,0.25,0.38333333333333336,0.5111111111111111,0.36666666666666664,0.4888888888888889,0.25,0.21666666666666667,0.2888888888888889,0.01666666666666672,0.0222222222222222
4080,2727.5008333345254,3111.0250000014903,2343.976666667561,1795.4571428605489,3268.577777773142,2709.028571431126,2390.710344829436,2185.636363639073,7694.099999997351,60.0,60.0,35.0,18.0,7.0,53.0,29.0,22.0,9.0,51.0,12.0,S1C1217,-1473.120634912593,205.07398119036316,-1082.941414134069,595.2532019688872,0.5833333333333334,0.660377358490566,0.3,0.33962264150943394,0.11666666666666667,0.48333333333333334,0.5686274509803921,0.36666666666666664,0.43137254901960786,0.15,0.2833333333333334,0.32075471698113206,0.1166666666666667,0.13725490196078427
4200,823.1675000000745,809.4883333332837,836.8466666668653,629.356097561012,874.50769230838,2173.100000000248,664.5416666666666,733.425,2494.324999999255,60.0,60.0,41.0,13.0,6.0,54.0,36.0,20.0,4.0,56.0,12.0,S1C1219,-245.151594747368,-68.88333333333333,-141.08269230838005,35.18556910565462,0.6833333333333333,0.7592592592592593,0.21666666666666667,0.24074074074074073,0.1,0.6,0.6428571428571429,0.3333333333333333,0.35714285714285715,0.06666666666666667,0.4666666666666667,0.5185185185185186,0.26666666666666666,0.28571428571428575
4320,2067.56999999991,2183.8999999998446,1951.2399999999752,1861.9944444443618,1584.5263157894738,2324.021739130435,2196.889999999944,1757.8749999996508,2457.091666666558,60.0,60.0,18.0,19.0,23.0,37.0,20.0,16.0,24.0,36.0,12.0,S1C1221,277.468128654888,439.0150000002932,173.348684210177,334.8955555555822,0.3,0.4864864864864865,0.31666666666666665,0.5135135135135135,0.38333333333333336,0.3333333333333333,0.5555555555555556,0.26666666666666666,0.4444444444444444,0.4,-0.016666666666666663,-0.027027027027026973,0.06666666666666665,0.11111111111111116
4440,2144.7575000032784,2526.3850000008943,1763.1300000056624,1112.7777777844005,2498.1000000039735,2219.1625000052154,2177.5166666656733,2311.91250000149,3161.2166666686535,20.0,20.0,9.0,3.0,8.0,12.0,6.0,8.0,6.0,14.0,12.0,S1C1223,-1385.322222219573,-134.39583333581686,-186.18750000248338,1064.7388888812727,0.45,0.75,0.15,0.25,0.4,0.3,0.42857142857142855,0.4,0.5714285714285714,0.3,0.30000000000000004,0.5,-0.10000000000000003,-0.14285714285714285
4480,1618.3408333336313,1585.8600000003973,1650.8216666668654,1648.602439023736,1649.3562500011176,1688.9666666736205,1699.900000000822,1463.0551724135876,1712.9500000029802,60.0,60.0,41.0,16.0,3.0,57.0,29.0,29.0,2.0,58.0,12.0,S1C1225,-0.7538109773815904,236.84482758723448,-186.30107758753002,51.29756097708605,0.6833333333333333,0.7192982456140351,0.26666666666666666,0.2807017543859649,0.05,0.48333333333333334,0.5,0.48333333333333334,0.5,0.03333333333333333,0.4166666666666667,0.4385964912280702,0.0,0.0
4600,2120.2741666684547,2215.031666670243,2025.5166666666667,1730.315789470547,1903.8100000083446,8851.399999976158,1411.051851850969,2900.7500000074506,1979.5,60.0,60.0,38.0,20.0,2.0,58.0,27.0,32.0,1.0,59.0,12.0,S1C1226,-173.49421053779747,-1489.6981481564817,996.939999999106,-319.2639376195782,0.6333333333333333,0.6551724137931034,0.3333333333333333,0.3448275862068966,0.03333333333333333,0.45,0.4576271186440678,0.5333333333333333,0.5423728813559322,0.016666666666666666,0.3,0.31034482758620685,-0.08333333333333331,-0.0847457627118644
4720,2056.028333333383,2747.1116666659714,1364.9450000007948,1026.124390243757,1894.6200000007948,2851.575000010431,1560.5461538456952,3690.4076923086095,3537.7374999932945,60.0,60.0,41.0,15.0,4.0,56.0,26.0,26.0,8.0,52.0,12.0,S1C1228,-868.4956097570378,-2129.8615384629143,1795.7876923078147,534.4217636019382,0.6833333333333333,0.7321428571428571,0.25,0.26785714285714285,0.06666666666666667,0.43333333333333335,0.5,0.43333333333333335,0.5,0.13333333333333333,0.43333333333333335,0.46428571428571425,0.0,0.0
4840,2527.7299999993916,2419.6733333328116,2635.786666665971,2988.179999999702,2392.3519999989867,1738.59999999851,2525.7086956526923,2339.7586206883707,2404.512499999255,60.0,60.0,30.0,25.0,5.0,55.0,23.0,29.0,8.0,52.0,12.0,S1C1230,595.8280000007153,185.95007496432163,-52.593379310616,-462.47130434700966,0.5,0.5454545454545454,0.4166666666666667,0.45454545454545453,0.08333333333333333,0.38333333333333336,0.4423076923076923,0.48333333333333334,0.5576923076923077,0.13333333333333333,0.08333333333333331,0.09090909090909088,-0.09999999999999998,-0.11538461538461542
4960,1805.6183333307504,1415.1533333301545,2196.0833333313467,714.5521739047507,1889.95,4560.66470588656,1009.1700000047683,1374.7434782515402,1947.4529411722633,60.0,60.0,23.0,20.0,17.0,43.0,20.0,23.0,17.0,43.0,12.0,S1C1236,-1175.3978260952495,-365.57347824677186,-515.2065217484599,294.6178261000176,0.38333333333333336,0.5348837209302325,0.3333333333333333,0.46511627906976744,0.2833333333333333,0.3333333333333333,0.46511627906976744,0.38333333333333336,0.5348837209302325,0.2833333333333333,0.050000000000000044,0.06976744186046507,-0.050000000000000044,-0.06976744186046507
5080,10919.887499999752,11069.028333332639,10770.746666666866,2055.5960000002383,13561.090000000597,18369.76,2445.24166666468,5844.992307692766,15966.111428570748,60.0,60.0,25.0,10.0,25.0,35.0,12.0,13.0,35.0,25.0,12.0,S1C1238,-11505.494000000359,-3399.750641028086,-7716.097692307831,389.6456666644417,0.4166666666666667,0.7142857142857143,0.16666666666666666,0.2857142857142857,0.4166666666666667,0.2,0.48,0.21666666666666667,0.52,0.5833333333333334,0.25,0.4285714285714286,-0.016666666666666663,-0.040000000000000036
5200,3956.7999999996273,4004.943333332489,3908.656666666766,3035.035000000149,2050.8153846137798,12351.057142860123,2060.0310344814225,2352.748000000119,20289.499999997515,60.0,60.0,40.0,13.0,7.0,53.0,29.0,25.0,6.0,54.0,12.0,S1C1239,984.2196153863692,-292.7169655186967,301.9326153863394,-975.0039655187265,0.6666666666666666,0.7547169811320755,0.21666666666666667,0.24528301886792453,0.11666666666666667,0.48333333333333334,0.5370370370370371,0.4166666666666667,0.46296296296296297,0.1,0.44999999999999996,0.509433962264151,0.06666666666666665,0.07407407407407413
5320,4117.975000000372,3883.963333334774,4351.986666665971,3128.9230769253695,3039.927272727544,5194.555555553486,3432.490000002086,4012.0157894735275,4198.080952383223,60.0,60.0,13.0,11.0,36.0,24.0,20.0,19.0,21.0,39.0,12.0,S1C1251,88.99580419782569,-579.5257894714414,972.0885167459837,303.56692307671665,0.21666666666666667,0.5416666666666666,0.18333333333333332,0.4583333333333333,0.6,0.3333333333333333,0.5128205128205128,0.31666666666666665,0.48717948717948717,0.35,0.033333333333333354,0.08333333333333331,0.016666666666666663,0.025641025641025605
5440,2455.405833332986,2378.2133333345255,2532.5983333314457,1878.8555555553348,2884.029166664928,3556.677777770493,2080.949999999787,3055.443478262943,1572.3333333366447,60.0,60.0,27.0,24.0,9.0,51.0,28.0,23.0,9.0,51.0,16.0,S1C1600,-1005.1736111095934,-974.4934782631558,171.4143115980146,202.09444444445217,0.45,0.5294117647058824,0.4,0.47058823529411764,0.15,0.4666666666666667,0.5490196078431373,0.38333333333333336,0.45098039215686275,0.15,0.04999999999999999,0.05882352941176472,0.08333333333333331,0.09803921568627455
5560,2442.9900000095367,2617.213333340486,2268.7666666785876,1614.6477272998202,3213.6399999141695,4455.754545450211,2297.4500000278153,2729.2050000190734,2956.868749961257,60.0,60.0,44.0,5.0,11.0,49.0,24.0,20.0,16.0,44.0,16.0,S1C1601,-1598.9922726143493,-431.75499999125805,-484.4349998950961,682.8022727279952,0.7333333333333333,0.8979591836734694,0.08333333333333333,0.10204081632653061,0.18333333333333332,0.4,0.5454545454545454,0.3333333333333333,0.45454545454545453,0.26666666666666666,0.6499999999999999,0.7959183673469388,0.06666666666666671,0.09090909090909088
5680,3020.004999999764,2544.125,3495.884999999528,3585.0687499996275,3395.749999999427,3370.699999999255,1983.499999999867,3016.7900000002237,3302.89999999851,60.0,60.0,32.0,26.0,2.0,58.0,28.0,30.0,2.0,58.0,16.0,S1C1602,189.31875000020045,-1033.2900000003567,-378.9599999992033,-1601.5687499997605,0.5333333333333333,0.5517241379310345,0.43333333333333335,0.4482758620689655,0.03333333333333333,0.4666666666666667,0.4827586206896552,0.5,0.5172413793103449,0.03333333333333333,0.09999999999999998,0.10344827586206895,-0.033333333333333326,-0.03448275862068967
5800,3299.1924999995776,3576.138333333532,3022.2466666656237,2703.6823529399494,3194.4666666651055,4465.160000002385,3486.930769231457,3312.215384614009,4723.812500003725,60.0,60.0,34.0,21.0,5.0,55.0,26.0,26.0,8.0,52.0,16.0,S1C1605,-490.78431372515615,174.71538461744785,117.7487179489035,783.2484162915075,0.5666666666666667,0.6181818181818182,0.35,0.38181818181818183,0.08333333333333333,0.43333333333333335,0.5,0.43333333333333335,0.5,0.13333333333333333,0.21666666666666667,0.23636363636363633,0.0,0.0
5920,1990.0241666666543,2135.4616666666852,1844.5866666666232,1740.2611111109663,1660.416666666977,1927.4444444443927,2384.6437499998137,1895.266666666682,2100.9437500001222,60.0,60.0,18.0,6.0,36.0,24.0,16.0,12.0,32.0,28.0,16.0,S1C1608,79.84444444398923,489.3770833331316,234.849999999705,644.3826388888474,0.3,0.75,0.1,0.25,0.6,0.26666666666666666,0.5714285714285714,0.2,0.42857142857142855,0.5333333333333333,0.19999999999999998,0.5,0.06666666666666665,0.14285714285714285
6040,1466.540458338568,1532.9786666707757,1400.1022500063602,1117.608518520784,1311.8769999942742,1770.0841304512046,2138.6518181957813,1436.5205000096466,1369.7634482724143,60.0,60.0,27.0,10.0,23.0,37.0,11.0,20.0,29.0,31.0,16.0,S1C1609,-194.26848147349028,702.1313181861346,124.64350001537241,1021.0432996749973,0.45,0.7297297297297297,0.16666666666666666,0.2702702702702703,0.38333333333333336,0.18333333333333332,0.3548387096774194,0.3333333333333333,0.6451612903225806,0.48333333333333334,0.2833333333333333,0.45945945945945943,-0.15,-0.29032258064516125
6160,1963.5216666666868,2059.080000000028,1867.9633333333456,1489.7454545453868,1270.5,2066.5976190476545,1913.8764705882024,2100.0764705881697,2127.2153846155134,60.0,60.0,11.0,7.0,42.0,18.0,17.0,17.0,26.0,34.0,16.0,S1C1610,219.2454545453868,-186.1999999999673,829.5764705881697,424.13101604281565,0.18333333333333332,0.6111111111111112,0.11666666666666667,0.3888888888888889,0.7,0.2833333333333333,0.5,0.2833333333333333,0.5,0.43333333333333335,0.06666666666666665,0.22222222222222227,0.0,0.0
6280,2609.802499997616,2662.5149999976156,2557.089999997616,2449.019230750891,2104.416666676601,3924.4900000095367,1885.8384615549674,3086.1933333158495,4533.324999988079,60.0,60.0,26.0,24.0,10.0,50.0,26.0,30.0,4.0,56.0,16.0,S1C1611,344.60256407429006,-1200.3548717608821,981.7766666392486,-563.1807691959236,0.43333333333333335,0.52,0.4,0.48,0.16666666666666666,0.43333333333333335,0.4642857142857143,0.5,0.5357142857142857,0.06666666666666667,0.033333333333333326,0.040000000000000036,-0.06666666666666665,-0.0714285714285714
6400,4866.150833332538,6493.086666661501,3239.2150000035763,3168.079069772432,3326.786666671435,4111.849999964237,3832.3971428462437,10485.26250000298,3805.0,60.0,60.0,43.0,15.0,2.0,58.0,35.0,24.0,1.0,59.0,16.0,S1C1613,-158.70759689900297,-6652.8653571567365,7158.475833331546,664.3180730738118,0.7166666666666667,0.7413793103448276,0.25,0.25862068965517243,0.03333333333333333,0.5833333333333334,0.5932203389830508,0.4,0.4067796610169492,0.016666666666666666,0.4666666666666667,0.4827586206896552,0.18333333333333335,0.18644067796610164
6520,1518.3458333308497,1922.2533333321412,1114.4383333295584,933.6651162740797,809.8799999952316,1889.1083333343267,1672.2823529383716,1437.0923076959757,2274.1399999976156,60.0,60.0,43.0,5.0,12.0,48.0,17.0,13.0,30.0,30.0,16.0,S1C1614,123.78511627884802,235.19004524239585,627.2123077007441,738.6172366642919,0.7166666666666667,0.8958333333333334,0.08333333333333333,0.10416666666666667,0.2,0.2833333333333333,0.5666666666666667,0.21666666666666667,0.43333333333333335,0.5,0.6333333333333333,0.7916666666666667,0.06666666666666665,0.1333333333333333
6640,962.4441666665176,956.3383333325386,968.5500000004967,822.2914893614485,750.9500000029802,1829.055555558867,1119.355555554231,870.2347826089548,906.1315789457999,60.0,60.0,47.0,4.0,9.0,51.0,18.0,23.0,19.0,41.0,16.0,S1C1616,71.34148935846827,249.12077294527614,119.28478260597456,297.06406619278243,0.7833333333333333,0.9215686274509803,0.06666666666666667,0.0784313725490196,0.15,0.3,0.43902439024390244,0.38333333333333336,0.5609756097560976,0.31666666666666665,0.7166666666666667,0.8431372549019607,-0.08333333333333337,-0.12195121951219517
6760,1480.4608333333085,1551.4250000002482,1409.4966666663686,1159.0656250002794,1310.7888888873988,2388.55,1377.8545454557645,1759.4071428557593,1350.9300000026822,60.0,60.0,32.0,18.0,10.0,50.0,22.0,28.0,10.0,50.0,16.0,S1C1617,-151.7232638871194,-381.55259739999474,448.6182539683605,218.78892045548514,0.5333333333333333,0.64,0.3,0.36,0.16666666666666666,0.36666666666666664,0.44,0.4666666666666667,0.56,0.16666666666666666,0.23333333333333334,0.28,-0.10000000000000003,-0.12000000000000005
6880,3151.759999999404,3906.0,2397.519999998808,3320.979999998957,1073.1999999973923,1741.2999999995034,794.25,5694.266666666915,4077.739999999851,10.0,10.0,5.0,2.0,3.0,7.0,2.0,3.0,5.0,5.0,16.0,S1C1620,2247.7800000015645,-4900.016666666915,4621.066666669522,-2526.729999998957,0.5,0.7142857142857143,0.2,0.2857142857142857,0.3,0.2,0.4,0.3,0.6,0.5,0.3,0.4285714285714286,-0.09999999999999998,-0.19999999999999996
6900,6478.505833336711,3645.266666674614,9311.744999998808,3376.9047618990853,3504.6842105200417,21060.035000008345,3649.6320000219343,3658.0,3596.355555547608,60.0,60.0,21.0,19.0,20.0,40.0,25.0,26.0,9.0,51.0,16.0,S1C1622,-127.77944862095637,-8.367999978065654,153.3157894799583,272.72723812284903,0.35,0.525,0.31666666666666665,0.475,0.3333333333333333,0.4166666666666667,0.49019607843137253,0.43333333333333335,0.5098039215686274,0.15,0.033333333333333326,0.050000000000000044,-0.016666666666666663,-0.019607843137254888
7020,7233.1125,6161.268333333234,8304.956666666765,3304.86944444312,6130.660000002385,22715.392857144987,2852.683333337307,2955.1142857103123,12203.352380952665,60.0,60.0,36.0,10.0,14.0,46.0,18.0,21.0,21.0,39.0,16.0,S1C1623,-2825.7905555592647,-102.43095237300531,-3175.5457142920723,-452.18611110581287,0.6,0.782608695652174,0.16666666666666666,0.21739130434782608,0.23333333333333334,0.3,0.46153846153846156,0.35,0.5384615384615384,0.35,0.43333333333333335,0.5652173913043479,-0.04999999999999999,-0.07692307692307687
7140,1629.5341666666325,1831.1899999999907,1427.8783333332744,1269.1043478260121,2173.3571428571427,1725.7714285714153,1324.6619047619224,2207.6359999999404,1918.7571428571828,60.0,60.0,46.0,7.0,7.0,53.0,21.0,25.0,14.0,46.0,16.0,S1C1624,-904.2527950311305,-882.974095238018,34.27885714279773,55.55755693591027,0.7666666666666667,0.8679245283018868,0.11666666666666667,0.1320754716981132,0.11666666666666667,0.35,0.45652173913043476,0.4166666666666667,0.5434782608695652,0.23333333333333334,0.65,0.7358490566037736,-0.06666666666666671,-0.08695652173913043
7260,2802.718333331744,3203.460000004371,2401.9766666591167,2322.1115384606214,1618.7789473659113,3532.4599999745687,2476.709999990463,2973.0500000161783,4952.333333333333,60.0,60.0,26.0,19.0,15.0,45.0,20.0,28.0,12.0,48.0,16.0,S1C1628,703.3325910947101,-496.3400000257152,1354.271052650267,154.59846152984164,0.43333333333333335,0.5777777777777777,0.31666666666666665,0.4222222222222222,0.25,0.3333333333333333,0.4166666666666667,0.4666666666666667,0.5833333333333334,0.2,0.1166666666666667,0.1555555555555555,-0.13333333333333336,-0.16666666666666669
7380,16978.722499997417,16980.320000002783,16977.12499999205,2824.253333346049,12235.684999990463,29261.999999980926,15038.271428573698,11269.610526317045,24444.64500000477,60.0,60.0,15.0,20.0,25.0,35.0,21.0,19.0,20.0,40.0,16.0,S1C1629,-9411.431666644414,3768.6609022566536,-966.0744736734177,12214.01809522765,0.25,0.42857142857142855,0.3333333333333333,0.5714285714285714,0.4166666666666667,0.35,0.525,0.31666666666666665,0.475,0.3333333333333333,-0.08333333333333331,-0.14285714285714285,0.033333333333333326,0.050000000000000044
7500,1573.6758333295584,1696.9399999986092,1450.4116666605075,1193.906666660309,866.3999999761581,2428.1615384587876,1075.3076923122774,2645.018181817098,1631.7277777741353,60.0,60.0,45.0,2.0,13.0,47.0,13.0,11.0,36.0,24.0,16.0,S1C1632,327.5066666841508,-1569.7104895048208,1778.61818184094,-118.59897434803156,0.75,0.9574468085106383,0.03333333333333333,0.0425531914893617,0.21666666666666667,0.21666666666666667,0.5416666666666666,0.18333333333333332,0.4583333333333333,0.6,0.7166666666666667,0.9148936170212767,0.033333333333333354,0.08333333333333331
7620,1419.452500000596,1643.676666667064,1195.2283333341281,635.8878787918525,2193.019999998808,1694.0705882310867,1415.26956521169,1748.7000000079472,1803.400000002384,60.0,60.0,33.0,10.0,17.0,43.0,23.0,12.0,25.0,35.0,16.0,S1C1634,-1557.1321212069556,-333.43043479625726,-444.3199999908609,779.3816864198375,0.55,0.7674418604651163,0.16666666666666666,0.23255813953488372,0.2833333333333333,0.38333333333333336,0.6571428571428571,0.2,0.34285714285714286,0.4166666666666667,0.3833333333333334,0.5348837209302326,0.18333333333333335,0.3142857142857143
7740,6013.445833334326,6098.465000001589,5928.426666667064,4273.291304347308,6892.141176472692,7012.675,6082.216666671965,5904.510714284012,6507.264285717692,60.0,60.0,23.0,17.0,20.0,40.0,18.0,28.0,14.0,46.0,16.0,S1C1635,-2618.8498721253836,177.7059523879534,-987.6304621886802,1808.9253623246568,0.38333333333333336,0.575,0.2833333333333333,0.425,0.3333333333333333,0.3,0.391304347826087,0.4666666666666667,0.6086956521739131,0.23333333333333334,0.10000000000000003,0.14999999999999997,-0.16666666666666669,-0.2173913043478261
7860,1722.7566666682562,1842.183333337307,1603.3299999992053,1196.2444444364971,2097.9888888729943,1584.5642857182593,1740.677777753936,1207.8999999880791,2019.168292696883,60.0,60.0,9.0,9.0,42.0,18.0,9.0,10.0,41.0,19.0,16.0,S1C1638,-901.7444444364971,532.7777777658569,-890.0888888849151,544.4333333174388,0.15,0.5,0.15,0.5,0.7,0.15,0.47368421052631576,0.16666666666666666,0.5263157894736842,0.6833333333333333,0.0,0.0,-0.016666666666666663,-0.05263157894736842
7980,1088.295833333085,1142.0549999994537,1034.5366666667164,746.9060000000894,2105.0666666664183,3024.125,881.6999999999448,1306.8782608683991,1465.919999999553,60.0,60.0,50.0,6.0,4.0,56.0,27.0,23.0,10.0,50.0,16.0,S1C1654,-1358.1606666663288,-425.17826086845434,-798.1884057980192,134.79399999985537,0.8333333333333334,0.8928571428571429,0.1,0.10714285714285714,0.06666666666666667,0.45,0.54,0.38333333333333336,0.46,0.16666666666666666,0.7333333333333334,0.7857142857142858,0.06666666666666665,0.08000000000000002
8100,2128.3741666666465,2132.4716666666404,2124.2766666666525,1287.7470588235267,1795.3111111110904,6419.699999999953,1702.4879999999143,1963.4333333333643,2796.7300000000046,60.0,60.0,34.0,18.0,8.0,52.0,25.0,15.0,20.0,40.0,16.0,S1C1655,-507.56405228756375,-260.94533333345,168.12222222227388,414.74094117638765,0.5666666666666667,0.6538461538461539,0.3,0.34615384615384615,0.13333333333333333,0.4166666666666667,0.625,0.25,0.375,0.3333333333333333,0.26666666666666666,0.3076923076923077,0.16666666666666669,0.25
8220,2556.5502916661694,3159.6487499987047,1953.4518333336339,2234.6375757576193,1618.1650000014545,1561.5687499957858,3825.5882142849564,2536.528870966616,3830.0599999784026,60.0,60.0,33.0,23.0,4.0,56.0,28.0,31.0,1.0,59.0,16.0,S1C1657,616.4725757561648,1289.0593433183403,918.3638709651616,1590.950638527337,0.55,0.5892857142857143,0.38333333333333336,0.4107142857142857,0.06666666666666667,0.4666666666666667,0.4745762711864407,0.5166666666666667,0.5254237288135594,0.016666666666666666,0.16666666666666669,0.1785714285714286,-0.050000000000000044,-0.050847457627118675
8340,2590.7100000013907,2739.2800000026823,2442.1400000000995,1816.8244897954319,4770.45000000298,5488.885714288269,1930.3363636420531,1510.5416666716337,3990.8807692298524,60.0,60.0,49.0,4.0,7.0,53.0,22.0,12.0,26.0,34.0,16.0,S1C1660,-2953.6255102075484,419.7946969704194,-3259.9083333313465,113.51187384662126,0.8166666666666667,0.9245283018867925,0.06666666666666667,0.07547169811320754,0.11666666666666667,0.36666666666666664,0.6470588235294118,0.2,0.35294117647058826,0.43333333333333335,0.75,0.8490566037735849,0.16666666666666663,0.29411764705882354
8460,3363.4600000003975,3834.413333333035,2892.5066666677594,3555.589743591272,1547.1684210527885,2743.10000000149,5807.855999997854,1679.2586206906828,6028.31666666766,60.0,60.0,39.0,19.0,2.0,58.0,25.0,29.0,6.0,54.0,16.0,S1C1663,2008.4213225384835,4128.597379307172,132.09019963789433,2252.266256406582,0.65,0.6724137931034483,0.31666666666666665,0.3275862068965517,0.03333333333333333,0.4166666666666667,0.46296296296296297,0.48333333333333334,0.5370370370370371,0.1,0.33333333333333337,0.3448275862068966,-0.06666666666666665,-0.07407407407407413
8580,2169.4733333326876,2594.5600000028808,1744.3866666624942,1795.3166666641123,1512.1687499918044,2532.5999999940395,2797.1555555584255,2504.7827586243893,1877.9249999970198,60.0,60.0,42.0,16.0,2.0,58.0,27.0,29.0,4.0,56.0,16.0,S1C1669,283.14791667230793,292.37279693403616,992.614008632585,1001.8388888943132,0.7,0.7241379310344828,0.26666666666666666,0.27586206896551724,0.03333333333333333,0.45,0.48214285714285715,0.48333333333333334,0.5178571428571429,0.06666666666666667,0.4333333333333333,0.4482758620689655,-0.033333333333333326,-0.035714285714285754
8700,2868.0624999996276,2901.4933333329855,2834.631666666269,2046.9138888886405,3558.705555554893,5388.71666666617,3088.809090907601,2419.37777777844,3710.236363635822,60.0,60.0,36.0,18.0,6.0,54.0,22.0,27.0,11.0,49.0,16.0,S1C1670,-1511.7916666662527,669.431313129161,-1139.3277777764533,1041.8952020189604,0.6,0.6666666666666666,0.3,0.3333333333333333,0.1,0.36666666666666664,0.4489795918367347,0.45,0.5510204081632653,0.18333333333333332,0.3,0.3333333333333333,-0.08333333333333337,-0.10204081632653056
8820,5310.9041666651765,5452.656666666269,5169.151666664084,4735.426086951857,3916.3650000035764,7229.823529404753,5150.072222219573,5852.992857139026,5041.021428580795,60.0,60.0,23.0,20.0,17.0,43.0,18.0,28.0,14.0,46.0,16.0,S1C1673,819.0610869482803,-702.9206349194528,1936.6278571354492,414.6461352677161,0.38333333333333336,0.5348837209302325,0.3333333333333333,0.46511627906976744,0.2833333333333333,0.3,0.391304347826087,0.4666666666666667,0.6086956521739131,0.23333333333333334,0.050000000000000044,0.06976744186046507,-0.16666666666666669,-0.2173913043478261
8940,2368.684166667362,3491.0,1246.3683333347242,1135.1722222240987,884.7999999970198,2928.2999999970198,2242.891666666915,2144.3724137935146,13349.114285711732,60.0,60.0,54.0,2.0,4.0,56.0,24.0,29.0,7.0,53.0,16.0,S1C1674,250.37222222707896,98.51925287340055,1259.5724137964949,1107.7194444428164,0.9,0.9642857142857143,0.03333333333333333,0.03571428571428571,0.06666666666666667,0.4,0.4528301886792453,0.48333333333333334,0.5471698113207547,0.11666666666666667,0.8666666666666667,0.9285714285714286,-0.08333333333333331,-0.09433962264150941
9060,2037.1233333331843,2073.4566666662695,2000.7900000000993,2068.3157894752526,1684.1761904727846,2269.0850000023843,1957.0999999984547,2091.266666667329,2261.526666667064,60.0,60.0,19.0,21.0,20.0,40.0,27.0,18.0,15.0,45.0,16.0,S1C1675,384.139599002468,-134.1666666688743,407.0904761945444,-111.21578947679791,0.31666666666666665,0.475,0.35,0.525,0.3333333333333333,0.45,0.6,0.3,0.4,0.25,-0.033333333333333326,-0.050000000000000044,0.15000000000000002,0.19999999999999996
9180,10402.28666666448,11428.71999999086,9375.853333338102,11952.755000013112,8075.138461534793,8093.307407410057,12011.599999982118,5591.650000001703,14123.388461530209,60.0,60.0,20.0,13.0,27.0,33.0,20.0,14.0,26.0,34.0,16.0,S1C1676,3877.616538478319,6419.949999980415,-2483.4884615330902,58.844999969005585,0.3333333333333333,0.6060606060606061,0.21666666666666667,0.3939393939393939,0.45,0.3333333333333333,0.5882352941176471,0.23333333333333334,0.4117647058823529,0.43333333333333335,0.11666666666666664,0.21212121212121215,0.09999999999999998,0.17647058823529416
9300,2729.016666666791,2770.263333332787,2687.770000000795,1878.1933333327372,2029.2999999991484,3128.63684210691,1789.689999999106,2119.49166666468,3233.815789473684,60.0,60.0,15.0,7.0,38.0,22.0,10.0,12.0,38.0,22.0,16.0,S1C1677,-151.10666666641123,-329.801666665574,90.19166666553156,-88.50333333363119,0.25,0.6818181818181818,0.11666666666666667,0.3181818181818182,0.6333333333333333,0.16666666666666666,0.45454545454545453,0.2,0.5454545454545454,0.6333333333333333,0.13333333333333333,0.3636363636363636,-0.033333333333333354,-0.09090909090909088
