[{"rt":1048.7000000178814,"stimulus":"[A] option 1, [L] option 2, [G] neither","key_press":65,"name":"choice","trial_type":"html-keyboard-response","trial_index":10,"time_elapsed":26604,"internal_node_id":"0.0-10.0","subject":"S1C1674","sona":"39559","block":5,"time":"2021-09-27T23:55:02.088Z","response":"1st","certainty":"high","char":"A","transposition":-1,"order":["swapped","shifted"],"probe_pitches":[2,4,9,1,2,3,0,11,12,6,12,3,9,4,11,9],"shifted_pitches":[2,4,9,1,2,3,0,10,12,6,12,3,9,4,11,9],"swapped_pitches":[2,4,9,1,2,3,0,12,11,6,12,3,9,4,11,9],"shift_direction":-1,"question_num":1,"has_decoy":false},{"rt":302.2000000178814,"stimulus":"[A] option 1, [L] option 2, [G] neither","key_press":65,"name":"choice","trial_type":"html-keyboard-response","trial_index":21,"time_elapsed":49147,"internal_node_id":"0.0-21.0","subject":"S1C1674","sona":"39559","block":5,"time":"2021-09-27T23:55:02.088Z","response":"1st","certainty":"high","char":"A","transposition":-2,"order":["shifted","swapped"],"probe_pitches":[0,2,0,7,2,5,2,5,0,12,5,12,0,12,5,9],"shifted_pitches":[0,2,0,7,2,5,2,5,-1,12,5,12,0,12,5,9],"swapped_pitches":[0,2,0,7,2,5,2,0,5,12,5,12,0,12,5,9],"shift_direction":-1,"question_num":11,"has_decoy":false},{"rt":1669.2999999821186,"stimulus":"[A] option 1, [L] option 2, [G] neither","key_press":71,"name":"choice","trial_type":"html-keyboard-response","trial_index":32,"time_elapsed":72977,"internal_node_id":"0.0-32.0","subject":"S1C1674","sona":"39559","block":5,"time":"2021-09-27T23:55:02.088Z","response":"neither","certainty":"high","char":"G","transposition":-1,"order":["shifted","swapped"],"probe_pitches":[11,5,0,1,8,2,6,8,11,6,8,7,5,4,7,4],"shifted_pitches":[11,5,0,1,8,2,6,9,11,6,8,7,5,4,7,4],"swapped_pitches":[11,5,0,1,8,2,6,11,8,6,8,7,5,4,7,4],"shift_direction":1,"question_num":21,"has_decoy":false},{"rt":507,"stimulus":"[A] option 1, [L] option 2, [G] neither","key_press":76,"name":"choice","trial_type":"html-keyboard-response","trial_index":43,"time_elapsed":95792,"internal_node_id":"0.0-43.0","subject":"S1C1674","sona":"39559","block":5,"time":"2021-09-27T23:55:02.088Z","response":"2nd","certainty":"high","char":"L","transposition":0,"order":["swapped","shifted"],"probe_pitches":[12,7,1,8,1,3,9,5,1,9,10,5,11,9,1,0],"shifted_pitches":[12,7,1,8,1,3,9,4,1,9,10,5,11,9,1,0],"swapped_pitches":[12,7,1,8,1,3,9,1,5,9,10,5,11,9,1,0],"shift_direction":-1,"question_num":31,"has_decoy":false},{"rt":575.5999999940395,"stimulus":"[A] option 1, [L] option 2, [G] neither","key_press":76,"name":"choice","trial_type":"html-keyboard-response","trial_index":54,"time_elapsed":118697,"internal_node_id":"0.0-54.0","subject":"S1C1674","sona":"39559","block":5,"time":"2021-09-27T23:55:02.088Z","response":"2nd","certainty":"high","char":"L","transposition":-2,"order":["swapped","shifted"],"probe_pitches":[0,5,7,5,12,10,7,12,2,7,5,10,7,10,7,10],"shifted_pitches":[0,5,7,5,12,10,7,13,2,7,5,10,7,10,7,10],"swapped_pitches":[0,5,7,5,12,10,7,2,12,7,5,10,7,10,7,10],"shift_direction":1,"question_num":41,"has_decoy":false},{"rt":1559.4000000059605,"stimulus":"[A] option 1, [L] option 2, [G] neither","key_press":65,"name":"choice","trial_type":"html-keyboard-response","trial_index":65,"time_elapsed":142662,"internal_node_id":"0.0-65.0","subject":"S1C1674","sona":"39559","block":5,"time":"2021-09-27T23:55:02.088Z","response":"1st","certainty":"high","char":"A","transposition":3,"order":["swapped","shifted"],"probe_pitches":[12,8,12,11,7,3,8,1,3,0,4,3,12,7,12,4],"shifted_pitches":[12,8,12,11,7,3,8,1,2,0,4,3,12,7,12,4],"swapped_pitches":[12,8,12,11,7,3,8,3,1,0,4,3,12,7,12,4],"shift_direction":-1,"question_num":51,"has_decoy":false},{"rt":3015.4000000059605,"stimulus":"[A] option 1, [L] option 2, [G] neither","key_press":71,"name":"choice","trial_type":"html-keyboard-response","trial_index":76,"time_elapsed":168528,"internal_node_id":"0.0-76.0","subject":"S1C1674","sona":"39559","block":5,"time":"2021-09-27T23:55:02.088Z","response":"neither","certainty":"high","char":"G","transposition":1,"order":["shifted","swapped"],"probe_pitches":[6,4,2,0,1,3,0,10,12,0,8,7,6,4,3,4],"shifted_pitches":[6,4,2,0,1,3,0,11,12,0,8,7,6,4,3,4],"swapped_pitches":[6,4,2,0,1,3,0,12,10,0,8,7,6,4,3,4],"shift_direction":1,"question_num":61,"has_decoy":false},{"rt":410.5,"stimulus":"[A] option 1, [L] option 2, [G] neither","key_press":65,"name":"choice","trial_type":"html-keyboard-response","trial_index":87,"time_elapsed":191282,"internal_node_id":"0.0-87.0","subject":"S1C1674","sona":"39559","block":5,"time":"2021-09-27T23:55:02.088Z","response":"1st","certainty":"high","char":"A","transposition":1,"order":["shifted","swapped"],"probe_pitches":[7,5,0,3,0,5,12,10,5,0,3,0,7,10,3,12],"shifted_pitches":[7,5,0,3,0,5,12,10,6,0,3,0,7,10,3,12],"swapped_pitches":[7,5,0,3,0,5,12,5,10,0,3,0,7,10,3,12],"shift_direction":1,"question_num":71,"has_decoy":false},{"rt":4411.4000000059605,"stimulus":"[A] option 1, [L] option 2, [G] neither","key_press":76,"name":"choice","trial_type":"html-keyboard-response","trial_index":98,"time_elapsed":218018,"internal_node_id":"0.0-98.0","subject":"S1C1674","sona":"39559","block":5,"time":"2021-09-27T23:55:02.088Z","response":"2nd","certainty":"high","char":"L","transposition":-2,"order":["shifted","swapped"],"probe_pitches":[3,4,9,6,0,4,5,3,6,4,9,1,10,5,1,11],"shifted_pitches":[3,4,9,6,0,4,5,3,7,4,9,1,10,5,1,11],"swapped_pitches":[3,4,9,6,0,4,5,6,3,4,9,1,10,5,1,11],"shift_direction":1,"question_num":81,"has_decoy":false},{"rt":318.7999999821186,"stimulus":"[A] option 1, [L] option 2, [G] neither","key_press":65,"name":"choice","trial_type":"html-keyboard-response","trial_index":109,"time_elapsed":240703,"internal_node_id":"0.0-109.0","subject":"S1C1674","sona":"39559","block":5,"time":"2021-09-27T23:55:02.088Z","response":"1st","certainty":"high","char":"A","transposition":-3,"order":["shifted","swapped"],"probe_pitches":[0,5,12,10,12,5,12,10,8,0,3,8,0,3,0,5],"shifted_pitches":[0,5,12,10,12,5,12,9,8,0,3,8,0,3,0,5],"swapped_pitches":[0,5,12,10,12,5,12,8,10,0,3,8,0,3,0,5],"shift_direction":-1,"question_num":91,"has_decoy":false},{"rt":1002.5,"stimulus":"[A] option 1, [L] option 2, [G] neither","key_press":76,"name":"choice","trial_type":"html-keyboard-response","trial_index":120,"time_elapsed":264170,"internal_node_id":"0.0-120.0","subject":"S1C1674","sona":"39559","block":5,"time":"2021-09-27T23:55:02.088Z","response":"2nd","certainty":"high","char":"L","transposition":-3,"order":["shifted","swapped"],"probe_pitches":[9,7,10,5,3,1,6,0,7,2,12,7,2,9,1,3],"shifted_pitches":[9,7,10,5,3,1,6,0,8,2,12,7,2,9,1,3],"swapped_pitches":[9,7,10,5,3,1,6,7,0,2,12,7,2,9,1,3],"shift_direction":1,"question_num":101,"has_decoy":false},{"rt":353.30000001192093,"stimulus":"[A] option 1, [L] option 2, [G] neither","key_press":65,"name":"choice","trial_type":"html-keyboard-response","trial_index":131,"time_elapsed":287163,"internal_node_id":"0.0-131.0","subject":"S1C1674","sona":"39559","block":5,"time":"2021-09-27T23:55:02.088Z","response":"1st","certainty":"high","char":"A","transposition":-3,"order":["shifted","swapped"],"probe_pitches":[10,12,10,5,2,0,10,12,0,2,7,0,10,5,0,10],"shifted_pitches":[10,12,10,5,2,0,10,12,-1,2,7,0,10,5,0,10],"swapped_pitches":[10,12,10,5,2,0,10,0,12,2,7,0,10,5,0,10],"shift_direction":-1,"question_num":111,"has_decoy":false},{"rt":1558.9000000059605,"stimulus":"[A] option 1, [L] option 2, [G] neither","key_press":71,"name":"choice","trial_type":"html-keyboard-response","trial_index":142,"time_elapsed":310976,"internal_node_id":"0.0-142.0","subject":"S1C1674","sona":"39559","block":5,"time":"2021-09-27T23:55:02.088Z","response":"neither","certainty":"high","char":"G","transposition":-2,"order":["shifted","swapped"],"probe_pitches":[9,7,10,3,7,12,1,12,7,10,1,5,8,5,1,11],"shifted_pitches":[9,7,10,3,7,12,1,12,6,10,1,5,8,5,1,11],"swapped_pitches":[9,7,10,3,7,12,1,7,12,10,1,5,8,5,1,11],"shift_direction":-1,"question_num":121,"has_decoy":false},{"rt":373.5,"stimulus":"[A] option 1, [L] option 2, [G] neither","key_press":65,"name":"choice","trial_type":"html-keyboard-response","trial_index":153,"time_elapsed":334222,"internal_node_id":"0.0-153.0","subject":"S1C1674","sona":"39559","block":5,"time":"2021-09-27T23:55:02.088Z","response":"1st","certainty":"high","char":"A","transposition":-3,"order":["swapped","shifted"],"probe_pitches":[12,8,6,5,6,5,2,6,4,5,12,5,6,4,10,7],"shifted_pitches":[12,8,6,5,6,5,2,6,3,5,12,5,6,4,10,7],"swapped_pitches":[12,8,6,5,6,5,2,4,6,5,12,5,6,4,10,7],"shift_direction":-1,"question_num":131,"has_decoy":false},{"rt":1706.5,"stimulus":"[A] option 1, [L] option 2, [G] neither","key_press":76,"name":"choice","trial_type":"html-keyboard-response","trial_index":164,"time_elapsed":358178,"internal_node_id":"0.0-164.0","subject":"S1C1674","sona":"39559","block":5,"time":"2021-09-27T23:55:02.088Z","response":"2nd","certainty":"high","char":"L","transposition":2,"order":["swapped","shifted"],"probe_pitches":[8,11,6,2,7,10,2,4,6,11,7,8,6,11,4,6],"shifted_pitches":[8,11,6,2,7,10,2,5,6,11,7,8,6,11,4,6],"swapped_pitches":[8,11,6,2,7,10,2,6,4,11,7,8,6,11,4,6],"shift_direction":1,"question_num":141,"has_decoy":false},{"rt":176.19999998807907,"stimulus":"[A] option 1, [L] option 2, [G] neither","key_press":76,"name":"choice","trial_type":"html-keyboard-response","trial_index":175,"time_elapsed":380700,"internal_node_id":"0.0-175.0","subject":"S1C1674","sona":"39559","block":5,"time":"2021-09-27T23:55:02.088Z","response":"2nd","certainty":"high","char":"L","transposition":-1,"order":["swapped","shifted"],"probe_pitches":[3,7,5,10,7,10,7,12,5,10,12,3,0,7,5,3],"shifted_pitches":[3,7,5,10,7,10,7,11,5,10,12,3,0,7,5,3],"swapped_pitches":[3,7,5,10,7,10,7,5,12,10,12,3,0,7,5,3],"shift_direction":-1,"question_num":151,"has_decoy":false},{"rt":434.90000000596046,"stimulus":"[A] option 1, [L] option 2, [G] neither","key_press":76,"name":"choice","trial_type":"html-keyboard-response","trial_index":186,"time_elapsed":403529,"internal_node_id":"0.0-186.0","subject":"S1C1674","sona":"39559","block":5,"time":"2021-09-27T23:55:02.088Z","response":"2nd","certainty":"high","char":"L","transposition":0,"order":["swapped","shifted"],"probe_pitches":[4,9,4,2,9,7,12,0,4,2,0,12,4,12,2,7],"shifted_pitches":[4,9,4,2,9,7,12,1,4,2,0,12,4,12,2,7],"swapped_pitches":[4,9,4,2,9,7,12,4,0,2,0,12,4,12,2,7],"shift_direction":1,"question_num":161,"has_decoy":false},{"rt":277.09999999403954,"stimulus":"[A] option 1, [L] option 2, [G] neither","key_press":76,"name":"choice","trial_type":"html-keyboard-response","trial_index":197,"time_elapsed":426677,"internal_node_id":"0.0-197.0","subject":"S1C1674","sona":"39559","block":5,"time":"2021-09-27T23:55:02.088Z","response":"2nd","certainty":"high","char":"L","transposition":-1,"order":["swapped","shifted"],"probe_pitches":[12,9,7,12,4,12,2,9,12,0,9,4,2,0,4,7],"shifted_pitches":[12,9,7,12,4,12,2,10,12,0,9,4,2,0,4,7],"swapped_pitches":[12,9,7,12,4,12,2,12,9,0,9,4,2,0,4,7],"shift_direction":1,"question_num":171,"has_decoy":false},{"rt":864.2000000178814,"stimulus":"[A] option 1, [L] option 2, [G] neither","key_press":65,"name":"choice","trial_type":"html-keyboard-response","trial_index":208,"time_elapsed":449818,"internal_node_id":"0.0-208.0","subject":"S1C1674","sona":"39559","block":5,"time":"2021-09-27T23:55:02.088Z","response":"1st","certainty":"high","char":"A","transposition":3,"order":["shifted","swapped"],"probe_pitches":[10,8,10,5,12,8,10,12,8,0,10,5,3,12,5,8],"shifted_pitches":[10,8,10,5,12,8,10,12,7,0,10,5,3,12,5,8],"swapped_pitches":[10,8,10,5,12,8,10,8,12,0,10,5,3,12,5,8],"shift_direction":-1,"question_num":181,"has_decoy":false},{"rt":269.19999998807907,"stimulus":"[A] option 1, [L] option 2, [G] neither","key_press":76,"name":"choice","trial_type":"html-keyboard-response","trial_index":219,"time_elapsed":472380,"internal_node_id":"0.0-219.0","subject":"S1C1674","sona":"39559","block":5,"time":"2021-09-27T23:55:02.088Z","response":"2nd","certainty":"high","char":"L","transposition":2,"order":["swapped","shifted"],"probe_pitches":[7,9,7,0,5,2,0,5,9,7,9,12,2,9,0,2],"shifted_pitches":[7,9,7,0,5,2,0,5,10,7,9,12,2,9,0,2],"swapped_pitches":[7,9,7,0,5,2,0,9,5,7,9,12,2,9,0,2],"shift_direction":1,"question_num":191,"has_decoy":false}]