[{"rt":1237.9000000059605,"stimulus":"[A] option 1, [L] option 2, [G] neither","key_press":65,"name":"choice","trial_type":"html-keyboard-response","trial_index":10,"time_elapsed":107628,"internal_node_id":"0.0-10.0","subject":"S1C1674","sona":"39559","block":3,"time":"2021-09-27T23:38:48.703Z","response":"1st","certainty":"high","char":"A","transposition":-2,"order":["shifted","swapped"],"probe_pitches":[3,8,5,1,4,11,5,0,11,2,8,5,8,6,8,4],"shifted_pitches":[3,8,5,1,4,11,5,0,10,2,8,5,8,6,8,4],"swapped_pitches":[3,8,5,1,4,11,5,11,0,2,8,5,8,6,8,4],"shift_direction":-1,"question_num":1,"has_decoy":false},{"rt":3441,"stimulus":"[A] option 1, [L] option 2, [G] neither","key_press":65,"name":"choice","trial_type":"html-keyboard-response","trial_index":21,"time_elapsed":133804,"internal_node_id":"0.0-21.0","subject":"S1C1674","sona":"39559","block":3,"time":"2021-09-27T23:38:48.703Z","response":"1st","certainty":"high","char":"A","transposition":-2,"order":["swapped","shifted"],"probe_pitches":[4,8,3,7,2,0,1,5,3,7,3,2,12,4,3,12],"shifted_pitches":[4,8,3,7,2,0,1,6,3,7,3,2,12,4,3,12],"swapped_pitches":[4,8,3,7,2,0,1,3,5,7,3,2,12,4,3,12],"shift_direction":1,"question_num":11,"has_decoy":false},{"rt":516.8999999761581,"stimulus":"[A] option 1, [L] option 2, [G] neither","key_press":65,"name":"choice","trial_type":"html-keyboard-response","trial_index":32,"time_elapsed":156783,"internal_node_id":"0.0-32.0","subject":"S1C1674","sona":"39559","block":3,"time":"2021-09-27T23:38:48.703Z","response":"1st","certainty":"high","char":"A","transposition":-2,"order":["shifted","swapped"],"probe_pitches":[5,10,3,10,13,3,10,8,15,3,15,10,3,13,10,3],"shifted_pitches":[5,10,3,10,13,3,10,8,14,3,15,10,3,13,10,3],"swapped_pitches":[5,10,3,10,13,3,10,15,8,3,15,10,3,13,10,3],"shift_direction":-1,"question_num":21,"has_decoy":false},{"rt":3212.5,"stimulus":"[A] option 1, [L] option 2, [G] neither","key_press":76,"name":"choice","trial_type":"html-keyboard-response","trial_index":43,"time_elapsed":182352,"internal_node_id":"0.0-43.0","subject":"S1C1674","sona":"39559","block":3,"time":"2021-09-27T23:38:48.703Z","response":"2nd","certainty":"high","char":"L","transposition":3,"order":["shifted","swapped"],"probe_pitches":[7,12,9,4,6,0,8,9,2,5,0,1,10,9,5,6],"shifted_pitches":[7,12,9,4,6,0,8,9,3,5,0,1,10,9,5,6],"swapped_pitches":[7,12,9,4,6,0,8,2,9,5,0,1,10,9,5,6],"shift_direction":1,"question_num":31,"has_decoy":false},{"rt":410.30000001192093,"stimulus":"[A] option 1, [L] option 2, [G] neither","key_press":76,"name":"choice","trial_type":"html-keyboard-response","trial_index":54,"time_elapsed":205160,"internal_node_id":"0.0-54.0","subject":"S1C1674","sona":"39559","block":3,"time":"2021-09-27T23:38:48.703Z","response":"2nd","certainty":"high","char":"L","transposition":-2,"order":["swapped","shifted"],"probe_pitches":[15,12,7,12,3,10,12,7,3,15,5,15,3,5,10,5],"shifted_pitches":[15,12,7,12,3,10,12,6,3,15,5,15,3,5,10,5],"swapped_pitches":[15,12,7,12,3,10,12,3,7,15,5,15,3,5,10,5],"shift_direction":-1,"question_num":41,"has_decoy":false},{"rt":445.5,"stimulus":"[A] option 1, [L] option 2, [G] neither","key_press":76,"name":"choice","trial_type":"html-keyboard-response","trial_index":65,"time_elapsed":227947,"internal_node_id":"0.0-65.0","subject":"S1C1674","sona":"39559","block":3,"time":"2021-09-27T23:38:48.703Z","response":"2nd","certainty":"high","char":"L","transposition":-3,"order":["swapped","shifted"],"probe_pitches":[15,13,6,8,11,13,6,3,13,6,3,8,11,3,11,13],"shifted_pitches":[15,13,6,8,11,13,6,3,14,6,3,8,11,3,11,13],"swapped_pitches":[15,13,6,8,11,13,6,13,3,6,3,8,11,3,11,13],"shift_direction":1,"question_num":51,"has_decoy":false},{"rt":160.7000000178814,"stimulus":"[A] option 1, [L] option 2, [G] neither","key_press":76,"name":"choice","trial_type":"html-keyboard-response","trial_index":76,"time_elapsed":250440,"internal_node_id":"0.0-76.0","subject":"S1C1674","sona":"39559","block":3,"time":"2021-09-27T23:38:48.703Z","response":"2nd","certainty":"high","char":"L","transposition":2,"order":["swapped","shifted"],"probe_pitches":[15,12,7,10,12,15,5,15,7,12,10,3,5,3,12,5],"shifted_pitches":[15,12,7,10,12,15,5,16,7,12,10,3,5,3,12,5],"swapped_pitches":[15,12,7,10,12,15,5,7,15,12,10,3,5,3,12,5],"shift_direction":1,"question_num":61,"has_decoy":false},{"rt":899.5999999940395,"stimulus":"[A] option 1, [L] option 2, [G] neither","key_press":76,"name":"choice","trial_type":"html-keyboard-response","trial_index":87,"time_elapsed":273978,"internal_node_id":"0.0-87.0","subject":"S1C1674","sona":"39559","block":3,"time":"2021-09-27T23:38:48.703Z","response":"2nd","certainty":"high","char":"L","transposition":-3,"order":["shifted","swapped"],"probe_pitches":[12,15,10,12,8,3,12,15,3,12,15,5,8,15,5,8],"shifted_pitches":[12,15,10,12,8,3,12,14,3,12,15,5,8,15,5,8],"swapped_pitches":[12,15,10,12,8,3,12,3,15,12,15,5,8,15,5,8],"shift_direction":-1,"question_num":71,"has_decoy":false},{"rt":567.9000000059605,"stimulus":"[A] option 1, [L] option 2, [G] neither","key_press":65,"name":"choice","trial_type":"html-keyboard-response","trial_index":98,"time_elapsed":297091,"internal_node_id":"0.0-98.0","subject":"S1C1674","sona":"39559","block":3,"time":"2021-09-27T23:38:48.703Z","response":"1st","certainty":"high","char":"A","transposition":1,"order":["shifted","swapped"],"probe_pitches":[15,10,15,8,5,8,10,15,13,5,3,5,3,10,15,5],"shifted_pitches":[15,10,15,8,5,8,10,14,13,5,3,5,3,10,15,5],"swapped_pitches":[15,10,15,8,5,8,10,13,15,5,3,5,3,10,15,5],"shift_direction":-1,"question_num":81,"has_decoy":false},{"rt":598.3000000119209,"stimulus":"[A] option 1, [L] option 2, [G] neither","key_press":65,"name":"choice","trial_type":"html-keyboard-response","trial_index":109,"time_elapsed":320561,"internal_node_id":"0.0-109.0","subject":"S1C1674","sona":"39559","block":3,"time":"2021-09-27T23:38:48.703Z","response":"1st","certainty":"high","char":"A","transposition":3,"order":["shifted","swapped"],"probe_pitches":[5,10,5,3,10,15,5,15,8,10,15,8,5,12,5,8],"shifted_pitches":[5,10,5,3,10,15,5,16,8,10,15,8,5,12,5,8],"swapped_pitches":[5,10,5,3,10,15,5,8,15,10,15,8,5,12,5,8],"shift_direction":1,"question_num":91,"has_decoy":false},{"rt":2344.800000011921,"stimulus":"[A] option 1, [L] option 2, [G] neither","key_press":65,"name":"choice","trial_type":"html-keyboard-response","trial_index":120,"time_elapsed":345959,"internal_node_id":"0.0-120.0","subject":"S1C1674","sona":"39559","block":3,"time":"2021-09-27T23:38:48.703Z","response":"1st","certainty":"high","char":"A","transposition":0,"order":["swapped","shifted"],"probe_pitches":[3,2,4,10,5,2,4,8,9,2,8,10,3,11,0,1],"shifted_pitches":[3,2,4,10,5,2,4,7,9,2,8,10,3,11,0,1],"swapped_pitches":[3,2,4,10,5,2,4,9,8,2,8,10,3,11,0,1],"shift_direction":-1,"question_num":101,"has_decoy":false},{"rt":2343.0999999940395,"stimulus":"[A] option 1, [L] option 2, [G] neither","key_press":76,"name":"choice","trial_type":"html-keyboard-response","trial_index":131,"time_elapsed":370997,"internal_node_id":"0.0-131.0","subject":"S1C1674","sona":"39559","block":3,"time":"2021-09-27T23:38:48.703Z","response":"2nd","certainty":"high","char":"L","transposition":1,"order":["shifted","swapped"],"probe_pitches":[12,7,3,9,2,10,12,2,7,6,5,1,0,2,6,1],"shifted_pitches":[12,7,3,9,2,10,12,2,8,6,5,1,0,2,6,1],"swapped_pitches":[12,7,3,9,2,10,12,7,2,6,5,1,0,2,6,1],"shift_direction":1,"question_num":111,"has_decoy":false},{"rt":75538.69999998808,"stimulus":"[A] option 1, [L] option 2, [G] neither","key_press":71,"name":"choice","trial_type":"html-keyboard-response","trial_index":142,"time_elapsed":471999,"internal_node_id":"0.0-142.0","subject":"S1C1674","sona":"39559","block":3,"time":"2021-09-27T23:38:48.703Z","response":"neither","certainty":"high","char":"G","transposition":-1,"order":["swapped","shifted"],"probe_pitches":[3,9,4,7,11,7,8,4,9,2,12,10,3,6,10,6],"shifted_pitches":[3,9,4,7,11,7,8,5,9,2,12,10,3,6,10,6],"swapped_pitches":[3,9,4,7,11,7,8,9,4,2,12,10,3,6,10,6],"shift_direction":1,"question_num":121,"has_decoy":false},{"rt":797.5,"stimulus":"[A] option 1, [L] option 2, [G] neither","key_press":76,"name":"choice","trial_type":"html-keyboard-response","trial_index":153,"time_elapsed":495988,"internal_node_id":"0.0-153.0","subject":"S1C1674","sona":"39559","block":3,"time":"2021-09-27T23:38:48.703Z","response":"2nd","certainty":"high","char":"L","transposition":0,"order":["swapped","shifted"],"probe_pitches":[3,8,3,8,10,8,3,13,6,3,13,15,8,6,15,13],"shifted_pitches":[3,8,3,8,10,8,3,13,7,3,13,15,8,6,15,13],"swapped_pitches":[3,8,3,8,10,8,3,6,13,3,13,15,8,6,15,13],"shift_direction":1,"question_num":131,"has_decoy":false},{"rt":706.4000000059605,"stimulus":"[A] option 1, [L] option 2, [G] neither","key_press":65,"name":"choice","trial_type":"html-keyboard-response","trial_index":164,"time_elapsed":519352,"internal_node_id":"0.0-164.0","subject":"S1C1674","sona":"39559","block":3,"time":"2021-09-27T23:38:48.703Z","response":"1st","certainty":"high","char":"A","transposition":-1,"order":["shifted","swapped"],"probe_pitches":[10,6,10,3,8,15,10,3,15,13,15,10,8,15,6,10],"shifted_pitches":[10,6,10,3,8,15,10,3,14,13,15,10,8,15,6,10],"swapped_pitches":[10,6,10,3,8,15,10,15,3,13,15,10,8,15,6,10],"shift_direction":-1,"question_num":141,"has_decoy":false},{"rt":594.6999999880791,"stimulus":"[A] option 1, [L] option 2, [G] neither","key_press":76,"name":"choice","trial_type":"html-keyboard-response","trial_index":175,"time_elapsed":542151,"internal_node_id":"0.0-175.0","subject":"S1C1674","sona":"39559","block":3,"time":"2021-09-27T23:38:48.703Z","response":"2nd","certainty":"high","char":"L","transposition":-3,"order":["shifted","swapped"],"probe_pitches":[11,6,11,4,8,1,8,10,7,11,6,7,2,1,6,7],"shifted_pitches":[11,6,11,4,8,1,8,9,7,11,6,7,2,1,6,7],"swapped_pitches":[11,6,11,4,8,1,8,7,10,11,6,7,2,1,6,7],"shift_direction":-1,"question_num":151,"has_decoy":false},{"rt":925.5999999940395,"stimulus":"[A] option 1, [L] option 2, [G] neither","key_press":71,"name":"choice","trial_type":"html-keyboard-response","trial_index":186,"time_elapsed":565437,"internal_node_id":"0.0-186.0","subject":"S1C1674","sona":"39559","block":3,"time":"2021-09-27T23:38:48.703Z","response":"neither","certainty":"high","char":"G","transposition":-3,"order":["shifted","swapped"],"probe_pitches":[3,8,4,1,6,4,10,4,1,12,7,8,5,8,3,1],"shifted_pitches":[3,8,4,1,6,4,10,4,2,12,7,8,5,8,3,1],"swapped_pitches":[3,8,4,1,6,4,10,1,4,12,7,8,5,8,3,1],"shift_direction":1,"question_num":161,"has_decoy":false},{"rt":540.8000000119209,"stimulus":"[A] option 1, [L] option 2, [G] neither","key_press":76,"name":"choice","trial_type":"html-keyboard-response","trial_index":197,"time_elapsed":588870,"internal_node_id":"0.0-197.0","subject":"S1C1674","sona":"39559","block":3,"time":"2021-09-27T23:38:48.703Z","response":"2nd","certainty":"high","char":"L","transposition":-1,"order":["swapped","shifted"],"probe_pitches":[11,6,11,3,8,13,6,13,15,11,13,3,13,8,11,13],"shifted_pitches":[11,6,11,3,8,13,6,13,16,11,13,3,13,8,11,13],"swapped_pitches":[11,6,11,3,8,13,6,15,13,11,13,3,13,8,11,13],"shift_direction":1,"question_num":171,"has_decoy":false},{"rt":1424.7999999821186,"stimulus":"[A] option 1, [L] option 2, [G] neither","key_press":76,"name":"choice","trial_type":"html-keyboard-response","trial_index":208,"time_elapsed":612926,"internal_node_id":"0.0-208.0","subject":"S1C1674","sona":"39559","block":3,"time":"2021-09-27T23:38:48.703Z","response":"2nd","certainty":"high","char":"L","transposition":2,"order":["swapped","shifted"],"probe_pitches":[3,1,5,2,5,12,9,2,12,5,8,4,10,8,4,12],"shifted_pitches":[3,1,5,2,5,12,9,2,11,5,8,4,10,8,4,12],"swapped_pitches":[3,1,5,2,5,12,9,12,2,5,8,4,10,8,4,12],"shift_direction":-1,"question_num":181,"has_decoy":false},{"rt":1277.4000000059605,"stimulus":"[A] option 1, [L] option 2, [G] neither","key_press":76,"name":"choice","trial_type":"html-keyboard-response","trial_index":219,"time_elapsed":636981,"internal_node_id":"0.0-219.0","subject":"S1C1674","sona":"39559","block":3,"time":"2021-09-27T23:38:48.703Z","response":"2nd","certainty":"high","char":"L","transposition":-1,"order":["swapped","shifted"],"probe_pitches":[12,7,10,3,1,7,2,5,1,10,3,7,1,8,6,3],"shifted_pitches":[12,7,10,3,1,7,2,4,1,10,3,7,1,8,6,3],"swapped_pitches":[12,7,10,3,1,7,2,1,5,10,3,7,1,8,6,3],"shift_direction":-1,"question_num":191,"has_decoy":false}]