[{"rt":1857.7999999821186,"stimulus":"[A] option 1, [L] option 2, [G] neither","key_press":76,"name":"choice","trial_type":"html-keyboard-response","trial_index":10,"time_elapsed":33083,"internal_node_id":"0.0-10.0","subject":"S1C1674","sona":"39559","block":4,"time":"2021-09-27T23:47:06.198Z","response":"2nd","certainty":"high","char":"L","transposition":-3,"order":["swapped","shifted"],"probe_pitches":[2,4,2,4,7,9,-1,9,2,-1,7,4,11,7,9,11],"shifted_pitches":[2,4,2,4,7,9,-1,9,3,-1,7,4,11,7,9,11],"swapped_pitches":[2,4,2,4,7,9,-1,2,9,-1,7,4,11,7,9,11],"shift_direction":1,"question_num":1,"has_decoy":false},{"rt":5602.5,"stimulus":"[A] option 1, [L] option 2, [G] neither","key_press":65,"name":"choice","trial_type":"html-keyboard-response","trial_index":21,"time_elapsed":61152,"internal_node_id":"0.0-21.0","subject":"S1C1674","sona":"39559","block":4,"time":"2021-09-27T23:47:06.198Z","response":"1st","certainty":"high","char":"A","transposition":2,"order":["swapped","shifted"],"probe_pitches":[1,-1,4,10,9,4,10,2,4,-1,4,7,9,3,2,-1],"shifted_pitches":[1,-1,4,10,9,4,10,2,5,-1,4,7,9,3,2,-1],"swapped_pitches":[1,-1,4,10,9,4,10,4,2,-1,4,7,9,3,2,-1],"shift_direction":1,"question_num":11,"has_decoy":false},{"rt":1536.9000000059605,"stimulus":"[A] option 1, [L] option 2, [G] neither","key_press":76,"name":"choice","trial_type":"html-keyboard-response","trial_index":32,"time_elapsed":84738,"internal_node_id":"0.0-32.0","subject":"S1C1674","sona":"39559","block":4,"time":"2021-09-27T23:47:06.198Z","response":"2nd","certainty":"high","char":"L","transposition":0,"order":["shifted","swapped"],"probe_pitches":[-2,-1,3,2,0,4,-2,0,9,2,-2,4,3,-1,9,3],"shifted_pitches":[-2,-1,3,2,0,4,-2,1,9,2,-2,4,3,-1,9,3],"swapped_pitches":[-2,-1,3,2,0,4,-2,9,0,2,-2,4,3,-1,9,3],"shift_direction":1,"question_num":21,"has_decoy":false},{"rt":338.90000000596046,"stimulus":"[A] option 1, [L] option 2, [G] neither","key_press":65,"name":"choice","trial_type":"html-keyboard-response","trial_index":43,"time_elapsed":107770,"internal_node_id":"0.0-43.0","subject":"S1C1674","sona":"39559","block":4,"time":"2021-09-27T23:47:06.198Z","response":"1st","certainty":"high","char":"A","transposition":1,"order":["shifted","swapped"],"probe_pitches":[6,4,-1,1,4,9,4,6,1,-1,4,9,11,6,11,4],"shifted_pitches":[6,4,-1,1,4,9,4,7,1,-1,4,9,11,6,11,4],"swapped_pitches":[6,4,-1,1,4,9,4,1,6,-1,4,9,11,6,11,4],"shift_direction":1,"question_num":31,"has_decoy":false},{"rt":1804.2000000178814,"stimulus":"[A] option 1, [L] option 2, [G] neither","key_press":65,"name":"choice","trial_type":"html-keyboard-response","trial_index":54,"time_elapsed":131863,"internal_node_id":"0.0-54.0","subject":"S1C1674","sona":"39559","block":4,"time":"2021-09-27T23:47:06.198Z","response":"1st","certainty":"high","char":"A","transposition":-2,"order":["swapped","shifted"],"probe_pitches":[2,-2,0,-1,8,6,-2,-1,4,2,4,10,-1,2,0,10],"shifted_pitches":[2,-2,0,-1,8,6,-2,-1,3,2,4,10,-1,2,0,10],"swapped_pitches":[2,-2,0,-1,8,6,-2,4,-1,2,4,10,-1,2,0,10],"shift_direction":-1,"question_num":41,"has_decoy":false},{"rt":395.69999998807907,"stimulus":"[A] option 1, [L] option 2, [G] neither","key_press":65,"name":"choice","trial_type":"html-keyboard-response","trial_index":65,"time_elapsed":154853,"internal_node_id":"0.0-65.0","subject":"S1C1674","sona":"39559","block":4,"time":"2021-09-27T23:47:06.198Z","response":"1st","certainty":"high","char":"A","transposition":-1,"order":["shifted","swapped"],"probe_pitches":[5,3,2,10,7,10,0,1,5,-2,7,10,8,7,3,10],"shifted_pitches":[5,3,2,10,7,10,0,1,6,-2,7,10,8,7,3,10],"swapped_pitches":[5,3,2,10,7,10,0,5,1,-2,7,10,8,7,3,10],"shift_direction":1,"question_num":51,"has_decoy":false},{"rt":478.5,"stimulus":"[A] option 1, [L] option 2, [G] neither","key_press":65,"name":"choice","trial_type":"html-keyboard-response","trial_index":76,"time_elapsed":177703,"internal_node_id":"0.0-76.0","subject":"S1C1674","sona":"39559","block":4,"time":"2021-09-27T23:47:06.198Z","response":"1st","certainty":"high","char":"A","transposition":3,"order":["shifted","swapped"],"probe_pitches":[5,4,5,3,1,2,4,7,0,-2,7,1,7,3,2,-1],"shifted_pitches":[5,4,5,3,1,2,4,8,0,-2,7,1,7,3,2,-1],"swapped_pitches":[5,4,5,3,1,2,4,0,7,-2,7,1,7,3,2,-1],"shift_direction":1,"question_num":61,"has_decoy":false},{"rt":2908.2999999821186,"stimulus":"[A] option 1, [L] option 2, [G] neither","key_press":65,"name":"choice","trial_type":"html-keyboard-response","trial_index":87,"time_elapsed":202997,"internal_node_id":"0.0-87.0","subject":"S1C1674","sona":"39559","block":4,"time":"2021-09-27T23:47:06.198Z","response":"1st","certainty":"high","char":"A","transposition":-3,"order":["shifted","swapped"],"probe_pitches":[11,9,4,1,4,1,11,4,-1,9,11,9,6,4,6,1],"shifted_pitches":[11,9,4,1,4,1,11,4,-2,9,11,9,6,4,6,1],"swapped_pitches":[11,9,4,1,4,1,11,-1,4,9,11,9,6,4,6,1],"shift_direction":-1,"question_num":71,"has_decoy":false},{"rt":1092.699999988079,"stimulus":"[A] option 1, [L] option 2, [G] neither","key_press":76,"name":"choice","trial_type":"html-keyboard-response","trial_index":98,"time_elapsed":226567,"internal_node_id":"0.0-98.0","subject":"S1C1674","sona":"39559","block":4,"time":"2021-09-27T23:47:06.198Z","response":"2nd","certainty":"high","char":"L","transposition":-3,"order":["shifted","swapped"],"probe_pitches":[8,2,-1,0,2,-2,2,-2,3,5,8,9,3,9,8,0],"shifted_pitches":[8,2,-1,0,2,-2,2,-2,4,5,8,9,3,9,8,0],"swapped_pitches":[8,2,-1,0,2,-2,2,3,-2,5,8,9,3,9,8,0],"shift_direction":1,"question_num":81,"has_decoy":false},{"rt":346.90000000596046,"stimulus":"[A] option 1, [L] option 2, [G] neither","key_press":65,"name":"choice","trial_type":"html-keyboard-response","trial_index":109,"time_elapsed":249282,"internal_node_id":"0.0-109.0","subject":"S1C1674","sona":"39559","block":4,"time":"2021-09-27T23:47:06.198Z","response":"1st","certainty":"high","char":"A","transposition":-2,"order":["shifted","swapped"],"probe_pitches":[6,4,6,9,6,-1,2,4,11,-1,4,11,6,2,4,9],"shifted_pitches":[6,4,6,9,6,-1,2,5,11,-1,4,11,6,2,4,9],"swapped_pitches":[6,4,6,9,6,-1,2,11,4,-1,4,11,6,2,4,9],"shift_direction":1,"question_num":91,"has_decoy":false},{"rt":688.8000000119209,"stimulus":"[A] option 1, [L] option 2, [G] neither","key_press":65,"name":"choice","trial_type":"html-keyboard-response","trial_index":120,"time_elapsed":272301,"internal_node_id":"0.0-120.0","subject":"S1C1674","sona":"39559","block":4,"time":"2021-09-27T23:47:06.198Z","response":"1st","certainty":"high","char":"A","transposition":-1,"order":["shifted","swapped"],"probe_pitches":[-1,3,8,11,3,11,3,1,6,-1,8,3,8,1,8,11],"shifted_pitches":[-1,3,8,11,3,11,3,1,5,-1,8,3,8,1,8,11],"swapped_pitches":[-1,3,8,11,3,11,3,6,1,-1,8,3,8,1,8,11],"shift_direction":-1,"question_num":101,"has_decoy":false},{"rt":1989.4000000059605,"stimulus":"[A] option 1, [L] option 2, [G] neither","key_press":71,"name":"choice","trial_type":"html-keyboard-response","trial_index":131,"time_elapsed":296630,"internal_node_id":"0.0-131.0","subject":"S1C1674","sona":"39559","block":4,"time":"2021-09-27T23:47:06.198Z","response":"neither","certainty":"high","char":"G","transposition":-1,"order":["swapped","shifted"],"probe_pitches":[1,-1,6,8,11,1,4,11,8,6,4,-1,8,6,-1,1],"shifted_pitches":[1,-1,6,8,11,1,4,11,9,6,4,-1,8,6,-1,1],"swapped_pitches":[1,-1,6,8,11,1,4,8,11,6,4,-1,8,6,-1,1],"shift_direction":1,"question_num":111,"has_decoy":false},{"rt":480.59999999403954,"stimulus":"[A] option 1, [L] option 2, [G] neither","key_press":76,"name":"choice","trial_type":"html-keyboard-response","trial_index":142,"time_elapsed":319408,"internal_node_id":"0.0-142.0","subject":"S1C1674","sona":"39559","block":4,"time":"2021-09-27T23:47:06.198Z","response":"2nd","certainty":"high","char":"L","transposition":0,"order":["swapped","shifted"],"probe_pitches":[3,-1,3,11,3,6,8,-1,1,8,3,-1,6,-1,8,3],"shifted_pitches":[3,-1,3,11,3,6,8,-2,1,8,3,-1,6,-1,8,3],"swapped_pitches":[3,-1,3,11,3,6,8,1,-1,8,3,-1,6,-1,8,3],"shift_direction":-1,"question_num":121,"has_decoy":false},{"rt":10390.09999999404,"stimulus":"[A] option 1, [L] option 2, [G] neither","key_press":65,"name":"choice","trial_type":"html-keyboard-response","trial_index":153,"time_elapsed":351818,"internal_node_id":"0.0-153.0","subject":"S1C1674","sona":"39559","block":4,"time":"2021-09-27T23:47:06.198Z","response":"1st","certainty":"high","char":"A","transposition":3,"order":["shifted","swapped"],"probe_pitches":[9,6,9,6,9,6,9,4,6,11,6,9,2,9,2,11],"shifted_pitches":[9,6,9,6,9,6,9,3,6,11,6,9,2,9,2,11],"swapped_pitches":[9,6,9,6,9,6,9,6,4,11,6,9,2,9,2,11],"shift_direction":-1,"question_num":131,"has_decoy":false},{"rt":360.69999998807907,"stimulus":"[A] option 1, [L] option 2, [G] neither","key_press":76,"name":"choice","trial_type":"html-keyboard-response","trial_index":164,"time_elapsed":374615,"internal_node_id":"0.0-164.0","subject":"S1C1674","sona":"39559","block":4,"time":"2021-09-27T23:47:06.198Z","response":"2nd","certainty":"high","char":"L","transposition":-2,"order":["swapped","shifted"],"probe_pitches":[9,4,7,2,9,4,-1,4,7,-1,2,9,2,-1,7,9],"shifted_pitches":[9,4,7,2,9,4,-1,4,6,-1,2,9,2,-1,7,9],"swapped_pitches":[9,4,7,2,9,4,-1,7,4,-1,2,9,2,-1,7,9],"shift_direction":-1,"question_num":141,"has_decoy":false},{"rt":2611,"stimulus":"[A] option 1, [L] option 2, [G] neither","key_press":65,"name":"choice","trial_type":"html-keyboard-response","trial_index":175,"time_elapsed":399680,"internal_node_id":"0.0-175.0","subject":"S1C1674","sona":"39559","block":4,"time":"2021-09-27T23:47:06.198Z","response":"1st","certainty":"high","char":"A","transposition":1,"order":["swapped","shifted"],"probe_pitches":[6,3,-2,-1,3,-1,9,3,-2,9,7,0,3,10,5,8],"shifted_pitches":[6,3,-2,-1,3,-1,9,2,-2,9,7,0,3,10,5,8],"swapped_pitches":[6,3,-2,-1,3,-1,9,-2,3,9,7,0,3,10,5,8],"shift_direction":-1,"question_num":151,"has_decoy":false},{"rt":304.7000000178814,"stimulus":"[A] option 1, [L] option 2, [G] neither","key_press":76,"name":"choice","trial_type":"html-keyboard-response","trial_index":186,"time_elapsed":422354,"internal_node_id":"0.0-186.0","subject":"S1C1674","sona":"39559","block":4,"time":"2021-09-27T23:47:06.198Z","response":"2nd","certainty":"high","char":"L","transposition":-1,"order":["shifted","swapped"],"probe_pitches":[6,3,6,3,1,-1,2,4,8,0,9,0,3,1,2,8],"shifted_pitches":[6,3,6,3,1,-1,2,4,7,0,9,0,3,1,2,8],"swapped_pitches":[6,3,6,3,1,-1,2,8,4,0,9,0,3,1,2,8],"shift_direction":-1,"question_num":161,"has_decoy":false},{"rt":1683.800000011921,"stimulus":"[A] option 1, [L] option 2, [G] neither","key_press":76,"name":"choice","trial_type":"html-keyboard-response","trial_index":197,"time_elapsed":446330,"internal_node_id":"0.0-197.0","subject":"S1C1674","sona":"39559","block":4,"time":"2021-09-27T23:47:06.198Z","response":"2nd","certainty":"high","char":"L","transposition":-3,"order":["swapped","shifted"],"probe_pitches":[2,8,3,6,-1,2,4,1,-1,10,5,-2,10,5,7,-2],"shifted_pitches":[2,8,3,6,-1,2,4,0,-1,10,5,-2,10,5,7,-2],"swapped_pitches":[2,8,3,6,-1,2,4,-1,1,10,5,-2,10,5,7,-2],"shift_direction":-1,"question_num":171,"has_decoy":false},{"rt":349.10000002384186,"stimulus":"[A] option 1, [L] option 2, [G] neither","key_press":76,"name":"choice","trial_type":"html-keyboard-response","trial_index":208,"time_elapsed":469038,"internal_node_id":"0.0-208.0","subject":"S1C1674","sona":"39559","block":4,"time":"2021-09-27T23:47:06.198Z","response":"2nd","certainty":"high","char":"L","transposition":2,"order":["swapped","shifted"],"probe_pitches":[-1,1,4,-1,1,8,6,8,1,6,11,1,8,1,6,-1],"shifted_pitches":[-1,1,4,-1,1,8,6,9,1,6,11,1,8,1,6,-1],"swapped_pitches":[-1,1,4,-1,1,8,6,1,8,6,11,1,8,1,6,-1],"shift_direction":1,"question_num":181,"has_decoy":false},{"rt":1979.5999999940395,"stimulus":"[A] option 1, [L] option 2, [G] neither","key_press":65,"name":"choice","trial_type":"html-keyboard-response","trial_index":219,"time_elapsed":494022,"internal_node_id":"0.0-219.0","subject":"S1C1674","sona":"39559","block":4,"time":"2021-09-27T23:47:06.198Z","response":"1st","certainty":"high","char":"A","transposition":-2,"order":["swapped","shifted"],"probe_pitches":[4,-2,2,-2,5,8,4,10,7,5,10,2,7,6,-1,6],"shifted_pitches":[4,-2,2,-2,5,8,4,9,7,5,10,2,7,6,-1,6],"swapped_pitches":[4,-2,2,-2,5,8,4,7,10,5,10,2,7,6,-1,6],"shift_direction":-1,"question_num":191,"has_decoy":false}]