[{"rt":369.60000002384186,"stimulus":"[A] option 1, [L] option 2, [G] neither","key_press":65,"name":"choice","trial_type":"html-keyboard-response","trial_index":10,"time_elapsed":24535,"internal_node_id":"0.0-10.0","subject":"S1C1674","sona":"39559","block":6,"time":"2021-09-28T00:03:08.021Z","response":"1st","certainty":"high","char":"A","transposition":3,"order":["swapped","shifted"],"probe_pitches":[2,0,4,2,0,8,9,6,11,0,7,0,11,7,3,1],"shifted_pitches":[2,0,4,2,0,8,9,5,11,0,7,0,11,7,3,1],"swapped_pitches":[2,0,4,2,0,8,9,11,6,0,7,0,11,7,3,1],"shift_direction":-1,"question_num":1,"has_decoy":false},{"rt":243.80000001192093,"stimulus":"[A] option 1, [L] option 2, [G] neither","key_press":76,"name":"choice","trial_type":"html-keyboard-response","trial_index":21,"time_elapsed":47150,"internal_node_id":"0.0-21.0","subject":"S1C1674","sona":"39559","block":6,"time":"2021-09-28T00:03:08.021Z","response":"2nd","certainty":"high","char":"L","transposition":2,"order":["swapped","shifted"],"probe_pitches":[7,3,5,12,10,3,10,3,12,7,12,3,5,10,12,5],"shifted_pitches":[7,3,5,12,10,3,10,3,11,7,12,3,5,10,12,5],"swapped_pitches":[7,3,5,12,10,3,10,12,3,7,12,3,5,10,12,5],"shift_direction":-1,"question_num":11,"has_decoy":false},{"rt":2807,"stimulus":"[A] option 1, [L] option 2, [G] neither","key_press":65,"name":"choice","trial_type":"html-keyboard-response","trial_index":32,"time_elapsed":72326,"internal_node_id":"0.0-32.0","subject":"S1C1674","sona":"39559","block":6,"time":"2021-09-28T00:03:08.021Z","response":"1st","certainty":"high","char":"A","transposition":-1,"order":["shifted","swapped"],"probe_pitches":[2,4,11,4,10,7,11,3,10,7,3,5,4,6,2,-1],"shifted_pitches":[2,4,11,4,10,7,11,3,9,7,3,5,4,6,2,-1],"swapped_pitches":[2,4,11,4,10,7,11,10,3,7,3,5,4,6,2,-1],"shift_direction":-1,"question_num":21,"has_decoy":false},{"rt":1286,"stimulus":"[A] option 1, [L] option 2, [G] neither","key_press":76,"name":"choice","trial_type":"html-keyboard-response","trial_index":43,"time_elapsed":95966,"internal_node_id":"0.0-43.0","subject":"S1C1674","sona":"39559","block":6,"time":"2021-09-28T00:03:08.021Z","response":"2nd","certainty":"high","char":"L","transposition":-2,"order":["swapped","shifted"],"probe_pitches":[13,15,10,8,6,13,3,10,6,8,15,6,3,6,8,10],"shifted_pitches":[13,15,10,8,6,13,3,10,7,8,15,6,3,6,8,10],"swapped_pitches":[13,15,10,8,6,13,3,6,10,8,15,6,3,6,8,10],"shift_direction":1,"question_num":31,"has_decoy":false},{"rt":321.80000001192093,"stimulus":"[A] option 1, [L] option 2, [G] neither","key_press":65,"name":"choice","trial_type":"html-keyboard-response","trial_index":54,"time_elapsed":119055,"internal_node_id":"0.0-54.0","subject":"S1C1674","sona":"39559","block":6,"time":"2021-09-28T00:03:08.021Z","response":"1st","certainty":"high","char":"A","transposition":-2,"order":["shifted","swapped"],"probe_pitches":[3,8,13,8,11,15,6,15,13,8,15,13,11,15,8,15],"shifted_pitches":[3,8,13,8,11,15,6,15,14,8,15,13,11,15,8,15],"swapped_pitches":[3,8,13,8,11,15,6,13,15,8,15,13,11,15,8,15],"shift_direction":1,"question_num":41,"has_decoy":false},{"rt":2813.9000000059605,"stimulus":"[A] option 1, [L] option 2, [G] neither","key_press":76,"name":"choice","trial_type":"html-keyboard-response","trial_index":65,"time_elapsed":144186,"internal_node_id":"0.0-65.0","subject":"S1C1674","sona":"39559","block":6,"time":"2021-09-28T00:03:08.021Z","response":"2nd","certainty":"high","char":"L","transposition":-1,"order":["shifted","swapped"],"probe_pitches":[6,2,1,0,-1,5,6,7,3,6,2,-1,1,11,3,0],"shifted_pitches":[6,2,1,0,-1,5,6,8,3,6,2,-1,1,11,3,0],"swapped_pitches":[6,2,1,0,-1,5,6,3,7,6,2,-1,1,11,3,0],"shift_direction":1,"question_num":51,"has_decoy":false},{"rt":687.8000000119209,"stimulus":"[A] option 1, [L] option 2, [G] neither","key_press":76,"name":"choice","trial_type":"html-keyboard-response","trial_index":76,"time_elapsed":166944,"internal_node_id":"0.0-76.0","subject":"S1C1674","sona":"39559","block":6,"time":"2021-09-28T00:03:08.021Z","response":"2nd","certainty":"high","char":"L","transposition":-3,"order":["swapped","shifted"],"probe_pitches":[11,15,8,11,15,6,3,8,6,13,11,8,6,11,8,6],"shifted_pitches":[11,15,8,11,15,6,3,7,6,13,11,8,6,11,8,6],"swapped_pitches":[11,15,8,11,15,6,3,6,8,13,11,8,6,11,8,6],"shift_direction":-1,"question_num":61,"has_decoy":false},{"rt":1155.2000000178814,"stimulus":"[A] option 1, [L] option 2, [G] neither","key_press":76,"name":"choice","trial_type":"html-keyboard-response","trial_index":87,"time_elapsed":190361,"internal_node_id":"0.0-87.0","subject":"S1C1674","sona":"39559","block":6,"time":"2021-09-28T00:03:08.021Z","response":"2nd","certainty":"high","char":"L","transposition":-1,"order":["swapped","shifted"],"probe_pitches":[8,12,10,8,3,8,15,8,12,15,10,3,5,15,5,12],"shifted_pitches":[8,12,10,8,3,8,15,8,13,15,10,3,5,15,5,12],"swapped_pitches":[8,12,10,8,3,8,15,12,8,15,10,3,5,15,5,12],"shift_direction":1,"question_num":71,"has_decoy":false},{"rt":328.09999999403954,"stimulus":"[A] option 1, [L] option 2, [G] neither","key_press":65,"name":"choice","trial_type":"html-keyboard-response","trial_index":98,"time_elapsed":213042,"internal_node_id":"0.0-98.0","subject":"S1C1674","sona":"39559","block":6,"time":"2021-09-28T00:03:08.021Z","response":"1st","certainty":"high","char":"A","transposition":1,"order":["shifted","swapped"],"probe_pitches":[5,0,2,1,5,2,4,11,-1,3,11,3,2,6,3,9],"shifted_pitches":[5,0,2,1,5,2,4,11,-2,3,11,3,2,6,3,9],"swapped_pitches":[5,0,2,1,5,2,4,-1,11,3,11,3,2,6,3,9],"shift_direction":-1,"question_num":81,"has_decoy":false},{"rt":2175.199999988079,"stimulus":"[A] option 1, [L] option 2, [G] neither","key_press":71,"name":"choice","trial_type":"html-keyboard-response","trial_index":109,"time_elapsed":237502,"internal_node_id":"0.0-109.0","subject":"S1C1674","sona":"39559","block":6,"time":"2021-09-28T00:03:08.021Z","response":"neither","certainty":"high","char":"G","transposition":-1,"order":["shifted","swapped"],"probe_pitches":[8,13,8,3,8,15,10,5,13,8,5,13,5,10,3,5],"shifted_pitches":[8,13,8,3,8,15,10,6,13,8,5,13,5,10,3,5],"swapped_pitches":[8,13,8,3,8,15,10,13,5,8,5,13,5,10,3,5],"shift_direction":1,"question_num":91,"has_decoy":false},{"rt":4318.399999976158,"stimulus":"[A] option 1, [L] option 2, [G] neither","key_press":65,"name":"choice","trial_type":"html-keyboard-response","trial_index":120,"time_elapsed":263874,"internal_node_id":"0.0-120.0","subject":"S1C1674","sona":"39559","block":6,"time":"2021-09-28T00:03:08.021Z","response":"1st","certainty":"high","char":"A","transposition":2,"order":["shifted","swapped"],"probe_pitches":[11,6,10,9,0,8,11,3,6,11,9,1,4,9,2,5],"shifted_pitches":[11,6,10,9,0,8,11,3,7,11,9,1,4,9,2,5],"swapped_pitches":[11,6,10,9,0,8,11,6,3,11,9,1,4,9,2,5],"shift_direction":1,"question_num":101,"has_decoy":false},{"rt":1358.1000000238419,"stimulus":"[A] option 1, [L] option 2, [G] neither","key_press":76,"name":"choice","trial_type":"html-keyboard-response","trial_index":131,"time_elapsed":287512,"internal_node_id":"0.0-131.0","subject":"S1C1674","sona":"39559","block":6,"time":"2021-09-28T00:03:08.021Z","response":"2nd","certainty":"high","char":"L","transposition":-3,"order":["swapped","shifted"],"probe_pitches":[3,0,5,11,8,11,5,7,0,3,1,8,7,5,9,10],"shifted_pitches":[3,0,5,11,8,11,5,6,0,3,1,8,7,5,9,10],"swapped_pitches":[3,0,5,11,8,11,5,0,7,3,1,8,7,5,9,10],"shift_direction":-1,"question_num":111,"has_decoy":false},{"rt":731.4000000059605,"stimulus":"[A] option 1, [L] option 2, [G] neither","key_press":76,"name":"choice","trial_type":"html-keyboard-response","trial_index":142,"time_elapsed":311010,"internal_node_id":"0.0-142.0","subject":"S1C1674","sona":"39559","block":6,"time":"2021-09-28T00:03:08.021Z","response":"2nd","certainty":"high","char":"L","transposition":0,"order":["swapped","shifted"],"probe_pitches":[10,11,4,7,6,9,8,11,2,4,7,2,6,11,8,11],"shifted_pitches":[10,11,4,7,6,9,8,11,3,4,7,2,6,11,8,11],"swapped_pitches":[10,11,4,7,6,9,8,2,11,4,7,2,6,11,8,11],"shift_direction":1,"question_num":121,"has_decoy":false},{"rt":6866.300000011921,"stimulus":"[A] option 1, [L] option 2, [G] neither","key_press":71,"name":"choice","trial_type":"html-keyboard-response","trial_index":153,"time_elapsed":341454,"internal_node_id":"0.0-153.0","subject":"S1C1674","sona":"39559","block":6,"time":"2021-09-28T00:03:08.021Z","response":"neither","certainty":"high","char":"G","transposition":-2,"order":["swapped","shifted"],"probe_pitches":[4,8,11,9,5,11,10,1,3,8,9,6,8,4,5,7],"shifted_pitches":[4,8,11,9,5,11,10,2,3,8,9,6,8,4,5,7],"swapped_pitches":[4,8,11,9,5,11,10,3,1,8,9,6,8,4,5,7],"shift_direction":1,"question_num":131,"has_decoy":false},{"rt":357.40000000596046,"stimulus":"[A] option 1, [L] option 2, [G] neither","key_press":65,"name":"choice","trial_type":"html-keyboard-response","trial_index":164,"time_elapsed":364091,"internal_node_id":"0.0-164.0","subject":"S1C1674","sona":"39559","block":6,"time":"2021-09-28T00:03:08.021Z","response":"1st","certainty":"high","char":"A","transposition":-3,"order":["shifted","swapped"],"probe_pitches":[3,6,10,13,15,8,3,6,15,13,10,13,8,15,10,8],"shifted_pitches":[3,6,10,13,15,8,3,6,16,13,10,13,8,15,10,8],"swapped_pitches":[3,6,10,13,15,8,3,15,6,13,10,13,8,15,10,8],"shift_direction":1,"question_num":141,"has_decoy":false},{"rt":438.90000000596046,"stimulus":"[A] option 1, [L] option 2, [G] neither","key_press":65,"name":"choice","trial_type":"html-keyboard-response","trial_index":175,"time_elapsed":386897,"internal_node_id":"0.0-175.0","subject":"S1C1674","sona":"39559","block":6,"time":"2021-09-28T00:03:08.021Z","response":"1st","certainty":"high","char":"A","transposition":0,"order":["shifted","swapped"],"probe_pitches":[12,7,12,10,7,15,5,10,12,3,7,5,3,5,12,5],"shifted_pitches":[12,7,12,10,7,15,5,9,12,3,7,5,3,5,12,5],"swapped_pitches":[12,7,12,10,7,15,5,12,10,3,7,5,3,5,12,5],"shift_direction":-1,"question_num":151,"has_decoy":false},{"rt":3625.199999988079,"stimulus":"[A] option 1, [L] option 2, [G] neither","key_press":65,"name":"choice","trial_type":"html-keyboard-response","trial_index":186,"time_elapsed":412903,"internal_node_id":"0.0-186.0","subject":"S1C1674","sona":"39559","block":6,"time":"2021-09-28T00:03:08.021Z","response":"1st","certainty":"high","char":"A","transposition":-2,"order":["swapped","shifted"],"probe_pitches":[0,5,0,4,0,6,5,9,2,4,-1,9,10,0,-1,3],"shifted_pitches":[0,5,0,4,0,6,5,9,1,4,-1,9,10,0,-1,3],"swapped_pitches":[0,5,0,4,0,6,5,2,9,4,-1,9,10,0,-1,3],"shift_direction":-1,"question_num":161,"has_decoy":false},{"rt":344.69999998807907,"stimulus":"[A] option 1, [L] option 2, [G] neither","key_press":65,"name":"choice","trial_type":"html-keyboard-response","trial_index":197,"time_elapsed":435543,"internal_node_id":"0.0-197.0","subject":"S1C1674","sona":"39559","block":6,"time":"2021-09-28T00:03:08.021Z","response":"1st","certainty":"high","char":"A","transposition":3,"order":["shifted","swapped"],"probe_pitches":[5,3,8,10,3,10,5,15,8,3,15,10,15,5,15,13],"shifted_pitches":[5,3,8,10,3,10,5,14,8,3,15,10,15,5,15,13],"swapped_pitches":[5,3,8,10,3,10,5,8,15,3,15,10,15,5,15,13],"shift_direction":-1,"question_num":171,"has_decoy":false},{"rt":331,"stimulus":"[A] option 1, [L] option 2, [G] neither","key_press":76,"name":"choice","trial_type":"html-keyboard-response","trial_index":208,"time_elapsed":458173,"internal_node_id":"0.0-208.0","subject":"S1C1674","sona":"39559","block":6,"time":"2021-09-28T00:03:08.021Z","response":"2nd","certainty":"high","char":"L","transposition":1,"order":["swapped","shifted"],"probe_pitches":[8,3,10,3,10,12,3,8,15,12,10,15,5,8,12,3],"shifted_pitches":[8,3,10,3,10,12,3,7,15,12,10,15,5,8,12,3],"swapped_pitches":[8,3,10,3,10,12,3,15,8,12,10,15,5,8,12,3],"shift_direction":-1,"question_num":181,"has_decoy":false},{"rt":424.90000000596046,"stimulus":"[A] option 1, [L] option 2, [G] neither","key_press":65,"name":"choice","trial_type":"html-keyboard-response","trial_index":219,"time_elapsed":480863,"internal_node_id":"0.0-219.0","subject":"S1C1674","sona":"39559","block":6,"time":"2021-09-28T00:03:08.021Z","response":"1st","certainty":"high","char":"A","transposition":-3,"order":["shifted","swapped"],"probe_pitches":[0,3,-1,1,5,11,7,3,6,8,1,-1,9,6,9,2],"shifted_pitches":[0,3,-1,1,5,11,7,4,6,8,1,-1,9,6,9,2],"swapped_pitches":[0,3,-1,1,5,11,7,6,3,8,1,-1,9,6,9,2],"shift_direction":1,"question_num":191,"has_decoy":false}]