[{"rt":905.0999999940395,"stimulus":"[A] option 1, [L] option 2, [G] neither","key_press":65,"name":"choice","trial_type":"html-keyboard-response","trial_index":10,"time_elapsed":36939,"internal_node_id":"0.0-10.0","subject":"S1C1674","sona":"39559","block":2,"time":"2021-09-27T23:28:08.016Z","response":"1st","certainty":"high","char":"A","transposition":-2,"order":["shifted","swapped"],"probe_pitches":[6,9,4,11,9,4,6,11,4,6,9,2,4,2,4,-1],"shifted_pitches":[6,9,4,11,9,4,6,12,4,6,9,2,4,2,4,-1],"swapped_pitches":[6,9,4,11,9,4,6,4,11,6,9,2,4,2,4,-1],"shift_direction":1,"question_num":1,"has_decoy":false},{"rt":494.69999998807907,"stimulus":"[A] option 1, [L] option 2, [G] neither","key_press":65,"name":"choice","trial_type":"html-keyboard-response","trial_index":21,"time_elapsed":60677,"internal_node_id":"0.0-21.0","subject":"S1C1674","sona":"39559","block":2,"time":"2021-09-27T23:28:08.016Z","response":"1st","certainty":"high","char":"A","transposition":-1,"order":["shifted","swapped"],"probe_pitches":[2,-1,2,7,4,-1,2,4,-1,7,11,2,11,9,11,2],"shifted_pitches":[2,-1,2,7,4,-1,2,4,-2,7,11,2,11,9,11,2],"swapped_pitches":[2,-1,2,7,4,-1,2,-1,4,7,11,2,11,9,11,2],"shift_direction":-1,"question_num":11,"has_decoy":false},{"rt":1866.1000000238419,"stimulus":"[A] option 1, [L] option 2, [G] neither","key_press":76,"name":"choice","trial_type":"html-keyboard-response","trial_index":32,"time_elapsed":84874,"internal_node_id":"0.0-32.0","subject":"S1C1674","sona":"39559","block":2,"time":"2021-09-27T23:28:08.016Z","response":"2nd","certainty":"high","char":"L","transposition":-1,"order":["swapped","shifted"],"probe_pitches":[10,13,11,12,5,9,13,7,6,2,12,2,4,2,9,14],"shifted_pitches":[10,13,11,12,5,9,13,8,6,2,12,2,4,2,9,14],"swapped_pitches":[10,13,11,12,5,9,13,6,7,2,12,2,4,2,9,14],"shift_direction":1,"question_num":21,"has_decoy":false},{"rt":615.5999999940395,"stimulus":"[A] option 1, [L] option 2, [G] neither","key_press":76,"name":"choice","trial_type":"html-keyboard-response","trial_index":43,"time_elapsed":128614,"internal_node_id":"0.0-43.0","subject":"S1C1674","sona":"39559","block":2,"time":"2021-09-27T23:28:08.016Z","response":"2nd","certainty":"high","char":"L","transposition":-2,"order":["swapped","shifted"],"probe_pitches":[11,13,7,5,14,7,2,11,8,14,2,6,2,4,10,11],"shifted_pitches":[11,13,7,5,14,7,2,12,8,14,2,6,2,4,10,11],"swapped_pitches":[11,13,7,5,14,7,2,8,11,14,2,6,2,4,10,11],"shift_direction":1,"question_num":31,"has_decoy":false},{"rt":5532.9000000059605,"stimulus":"[A] option 1, [L] option 2, [G] neither","key_press":65,"name":"choice","trial_type":"html-keyboard-response","trial_index":54,"time_elapsed":156598,"internal_node_id":"0.0-54.0","subject":"S1C1674","sona":"39559","block":2,"time":"2021-09-27T23:28:08.016Z","response":"1st","certainty":"high","char":"A","transposition":0,"order":["shifted","swapped"],"probe_pitches":[6,11,9,3,7,13,11,14,6,9,10,14,3,7,9,6],"shifted_pitches":[6,11,9,3,7,13,11,14,5,9,10,14,3,7,9,6],"swapped_pitches":[6,11,9,3,7,13,11,6,14,9,10,14,3,7,9,6],"shift_direction":-1,"question_num":41,"has_decoy":false},{"rt":3869.5999999940395,"stimulus":"[A] option 1, [L] option 2, [G] neither","key_press":71,"name":"choice","trial_type":"html-keyboard-response","trial_index":65,"time_elapsed":185240,"internal_node_id":"0.0-65.0","subject":"S1C1674","sona":"39559","block":2,"time":"2021-09-27T23:28:08.016Z","response":"neither","certainty":"high","char":"G","transposition":-1,"order":["swapped","shifted"],"probe_pitches":[11,10,4,11,12,5,3,9,8,4,2,4,6,13,5,2],"shifted_pitches":[11,10,4,11,12,5,3,9,7,4,2,4,6,13,5,2],"swapped_pitches":[11,10,4,11,12,5,3,8,9,4,2,4,6,13,5,2],"shift_direction":-1,"question_num":51,"has_decoy":false},{"rt":767.5999999940395,"stimulus":"[A] option 1, [L] option 2, [G] neither","key_press":76,"name":"choice","trial_type":"html-keyboard-response","trial_index":76,"time_elapsed":209170,"internal_node_id":"0.0-76.0","subject":"S1C1674","sona":"39559","block":2,"time":"2021-09-27T23:28:08.016Z","response":"2nd","certainty":"high","char":"L","transposition":-3,"order":["shifted","swapped"],"probe_pitches":[12,7,8,5,2,4,14,3,12,9,4,9,2,12,5,14],"shifted_pitches":[12,7,8,5,2,4,14,3,11,9,4,9,2,12,5,14],"swapped_pitches":[12,7,8,5,2,4,14,12,3,9,4,9,2,12,5,14],"shift_direction":-1,"question_num":61,"has_decoy":false},{"rt":3975,"stimulus":"[A] option 1, [L] option 2, [G] neither","key_press":65,"name":"choice","trial_type":"html-keyboard-response","trial_index":87,"time_elapsed":235592,"internal_node_id":"0.0-87.0","subject":"S1C1674","sona":"39559","block":2,"time":"2021-09-27T23:28:08.016Z","response":"1st","certainty":"high","char":"A","transposition":1,"order":["swapped","shifted"],"probe_pitches":[2,4,7,2,8,4,14,5,12,4,13,9,4,8,2,3],"shifted_pitches":[2,4,7,2,8,4,14,6,12,4,13,9,4,8,2,3],"swapped_pitches":[2,4,7,2,8,4,14,12,5,4,13,9,4,8,2,3],"shift_direction":1,"question_num":71,"has_decoy":false},{"rt":1405.9000000059605,"stimulus":"[A] option 1, [L] option 2, [G] neither","key_press":65,"name":"choice","trial_type":"html-keyboard-response","trial_index":98,"time_elapsed":259241,"internal_node_id":"0.0-98.0","subject":"S1C1674","sona":"39559","block":2,"time":"2021-09-27T23:28:08.016Z","response":"1st","certainty":"high","char":"A","transposition":-3,"order":["shifted","swapped"],"probe_pitches":[6,8,3,-1,1,3,-1,3,6,1,8,-1,8,11,3,11],"shifted_pitches":[6,8,3,-1,1,3,-1,3,7,1,8,-1,8,11,3,11],"swapped_pitches":[6,8,3,-1,1,3,-1,6,3,1,8,-1,8,11,3,11],"shift_direction":1,"question_num":81,"has_decoy":false},{"rt":3962.2999999821186,"stimulus":"[A] option 1, [L] option 2, [G] neither","key_press":76,"name":"choice","trial_type":"html-keyboard-response","trial_index":109,"time_elapsed":285652,"internal_node_id":"0.0-109.0","subject":"S1C1674","sona":"39559","block":2,"time":"2021-09-27T23:28:08.016Z","response":"2nd","certainty":"high","char":"L","transposition":-3,"order":["shifted","swapped"],"probe_pitches":[12,11,14,8,6,8,11,12,3,10,14,10,14,8,9,6],"shifted_pitches":[12,11,14,8,6,8,11,13,3,10,14,10,14,8,9,6],"swapped_pitches":[12,11,14,8,6,8,11,3,12,10,14,10,14,8,9,6],"shift_direction":1,"question_num":91,"has_decoy":false},{"rt":473.2999999821186,"stimulus":"[A] option 1, [L] option 2, [G] neither","key_press":76,"name":"choice","trial_type":"html-keyboard-response","trial_index":120,"time_elapsed":309565,"internal_node_id":"0.0-120.0","subject":"S1C1674","sona":"39559","block":2,"time":"2021-09-27T23:28:08.016Z","response":"2nd","certainty":"high","char":"L","transposition":-2,"order":["swapped","shifted"],"probe_pitches":[7,2,4,2,4,7,4,2,-1,9,-1,11,-1,7,-1,11],"shifted_pitches":[7,2,4,2,4,7,4,3,-1,9,-1,11,-1,7,-1,11],"swapped_pitches":[7,2,4,2,4,7,4,-1,2,9,-1,11,-1,7,-1,11],"shift_direction":1,"question_num":101,"has_decoy":false},{"rt":492.5,"stimulus":"[A] option 1, [L] option 2, [G] neither","key_press":65,"name":"choice","trial_type":"html-keyboard-response","trial_index":131,"time_elapsed":333349,"internal_node_id":"0.0-131.0","subject":"S1C1674","sona":"39559","block":2,"time":"2021-09-27T23:28:08.016Z","response":"1st","certainty":"high","char":"A","transposition":3,"order":["swapped","shifted"],"probe_pitches":[7,11,7,2,7,6,2,8,10,4,10,12,2,4,10,5],"shifted_pitches":[7,11,7,2,7,6,2,8,9,4,10,12,2,4,10,5],"swapped_pitches":[7,11,7,2,7,6,2,10,8,4,10,12,2,4,10,5],"shift_direction":-1,"question_num":111,"has_decoy":false},{"rt":870,"stimulus":"[A] option 1, [L] option 2, [G] neither","key_press":65,"name":"choice","trial_type":"html-keyboard-response","trial_index":142,"time_elapsed":356595,"internal_node_id":"0.0-142.0","subject":"S1C1674","sona":"39559","block":2,"time":"2021-09-27T23:28:08.016Z","response":"1st","certainty":"high","char":"A","transposition":2,"order":["swapped","shifted"],"probe_pitches":[8,11,4,1,6,8,11,4,-1,11,6,11,6,4,11,1],"shifted_pitches":[8,11,4,1,6,8,11,4,-2,11,6,11,6,4,11,1],"swapped_pitches":[8,11,4,1,6,8,11,-1,4,11,6,11,6,4,11,1],"shift_direction":-1,"question_num":121,"has_decoy":false},{"rt":334.7999999821186,"stimulus":"[A] option 1, [L] option 2, [G] neither","key_press":76,"name":"choice","trial_type":"html-keyboard-response","trial_index":153,"time_elapsed":380689,"internal_node_id":"0.0-153.0","subject":"S1C1674","sona":"39559","block":2,"time":"2021-09-27T23:28:08.016Z","response":"2nd","certainty":"high","char":"L","transposition":-3,"order":["swapped","shifted"],"probe_pitches":[11,9,6,11,4,9,4,11,6,9,6,9,2,11,9,-1],"shifted_pitches":[11,9,6,11,4,9,4,10,6,9,6,9,2,11,9,-1],"swapped_pitches":[11,9,6,11,4,9,4,6,11,9,6,9,2,11,9,-1],"shift_direction":-1,"question_num":131,"has_decoy":false},{"rt":487.59999999403954,"stimulus":"[A] option 1, [L] option 2, [G] neither","key_press":65,"name":"choice","trial_type":"html-keyboard-response","trial_index":164,"time_elapsed":403523,"internal_node_id":"0.0-164.0","subject":"S1C1674","sona":"39559","block":2,"time":"2021-09-27T23:28:08.016Z","response":"1st","certainty":"high","char":"A","transposition":1,"order":["shifted","swapped"],"probe_pitches":[3,-1,3,6,1,-1,6,1,8,-1,8,6,8,-1,3,6],"shifted_pitches":[3,-1,3,6,1,-1,6,2,8,-1,8,6,8,-1,3,6],"swapped_pitches":[3,-1,3,6,1,-1,6,8,1,-1,8,6,8,-1,3,6],"shift_direction":1,"question_num":141,"has_decoy":false},{"rt":411,"stimulus":"[A] option 1, [L] option 2, [G] neither","key_press":76,"name":"choice","trial_type":"html-keyboard-response","trial_index":175,"time_elapsed":426470,"internal_node_id":"0.0-175.0","subject":"S1C1674","sona":"39559","block":2,"time":"2021-09-27T23:28:08.016Z","response":"2nd","certainty":"high","char":"L","transposition":0,"order":["swapped","shifted"],"probe_pitches":[6,8,1,-1,1,6,-1,4,8,1,6,1,11,1,4,-1],"shifted_pitches":[6,8,1,-1,1,6,-1,3,8,1,6,1,11,1,4,-1],"swapped_pitches":[6,8,1,-1,1,6,-1,8,4,1,6,1,11,1,4,-1],"shift_direction":-1,"question_num":151,"has_decoy":false},{"rt":651.7000000178814,"stimulus":"[A] option 1, [L] option 2, [G] neither","key_press":76,"name":"choice","trial_type":"html-keyboard-response","trial_index":186,"time_elapsed":449862,"internal_node_id":"0.0-186.0","subject":"S1C1674","sona":"39559","block":2,"time":"2021-09-27T23:28:08.016Z","response":"2nd","certainty":"high","char":"L","transposition":-1,"order":["swapped","shifted"],"probe_pitches":[4,9,11,9,6,1,9,4,11,6,11,9,4,1,4,6],"shifted_pitches":[4,9,11,9,6,1,9,4,12,6,11,9,4,1,4,6],"swapped_pitches":[4,9,11,9,6,1,9,11,4,6,11,9,4,1,4,6],"shift_direction":1,"question_num":161,"has_decoy":false},{"rt":3842.4000000059605,"stimulus":"[A] option 1, [L] option 2, [G] neither","key_press":76,"name":"choice","trial_type":"html-keyboard-response","trial_index":197,"time_elapsed":476396,"internal_node_id":"0.0-197.0","subject":"S1C1674","sona":"39559","block":2,"time":"2021-09-27T23:28:08.016Z","response":"2nd","certainty":"high","char":"L","transposition":2,"order":["shifted","swapped"],"probe_pitches":[5,3,7,5,2,8,12,11,5,6,5,6,5,9,7,6],"shifted_pitches":[5,3,7,5,2,8,12,10,5,6,5,6,5,9,7,6],"swapped_pitches":[5,3,7,5,2,8,12,5,11,6,5,6,5,9,7,6],"shift_direction":-1,"question_num":171,"has_decoy":false},{"rt":3270.2000000178814,"stimulus":"[A] option 1, [L] option 2, [G] neither","key_press":71,"name":"choice","trial_type":"html-keyboard-response","trial_index":208,"time_elapsed":502532,"internal_node_id":"0.0-208.0","subject":"S1C1674","sona":"39559","block":2,"time":"2021-09-27T23:28:08.016Z","response":"neither","certainty":"high","char":"G","transposition":3,"order":["shifted","swapped"],"probe_pitches":[9,4,1,-1,6,1,6,1,4,6,-1,11,9,11,6,11],"shifted_pitches":[9,4,1,-1,6,1,6,1,3,6,-1,11,9,11,6,11],"swapped_pitches":[9,4,1,-1,6,1,6,4,1,6,-1,11,9,11,6,11],"shift_direction":-1,"question_num":181,"has_decoy":false},{"rt":460.69999998807907,"stimulus":"[A] option 1, [L] option 2, [G] neither","key_press":76,"name":"choice","trial_type":"html-keyboard-response","trial_index":219,"time_elapsed":525700,"internal_node_id":"0.0-219.0","subject":"S1C1674","sona":"39559","block":2,"time":"2021-09-27T23:28:08.016Z","response":"2nd","certainty":"high","char":"L","transposition":-2,"order":["shifted","swapped"],"probe_pitches":[7,11,10,14,6,8,5,6,3,14,10,11,10,5,10,2],"shifted_pitches":[7,11,10,14,6,8,5,6,4,14,10,11,10,5,10,2],"swapped_pitches":[7,11,10,14,6,8,5,3,6,14,10,11,10,5,10,2],"shift_direction":1,"question_num":191,"has_decoy":false}]