[{"rt":5459.800000011921,"stimulus":"[A] option 1, [L] option 2, [G] neither","key_press":76,"name":"choice","trial_type":"html-keyboard-response","trial_index":15,"time_elapsed":94267,"internal_node_id":"0.0-15.0","response":"2nd","certainty":"high","char":"L","transposition":-2,"order":["swapped","shifted"],"probe_pitches":[-2,0,7,3,10,0,3,10,7,5,-2,3,0,5,0,7],"shifted_pitches":[-2,0,7,3,10,0,3,11,7,5,-2,3,0,5,0,7],"swapped_pitches":[-2,0,7,3,10,0,3,7,10,5,-2,3,0,5,0,7],"shift_direction":1,"question_num":1,"has_decoy":false,"subject":"S1C1674","sona":"39559","block":1,"time":"2021-09-27T23:19:13.901Z"},{"rt":4188,"stimulus":"[A] option 1, [L] option 2, [G] neither","key_press":76,"name":"choice","trial_type":"html-keyboard-response","trial_index":26,"time_elapsed":122184,"internal_node_id":"0.0-26.0","response":"2nd","certainty":"high","char":"L","transposition":1,"order":["swapped","shifted"],"probe_pitches":[3,8,10,8,10,0,10,-2,5,10,-2,5,0,8,10,8],"shifted_pitches":[3,8,10,8,10,0,10,-2,4,10,-2,5,0,8,10,8],"swapped_pitches":[3,8,10,8,10,0,10,5,-2,10,-2,5,0,8,10,8],"shift_direction":-1,"question_num":11,"has_decoy":false,"subject":"S1C1674","sona":"39559","block":1,"time":"2021-09-27T23:19:13.901Z"},{"rt":6945.100000023842,"stimulus":"[A] option 1, [L] option 2, [G] neither","key_press":76,"name":"choice","trial_type":"html-keyboard-response","trial_index":37,"time_elapsed":153761,"internal_node_id":"0.0-37.0","response":"2nd","certainty":"high","char":"L","transposition":-1,"order":["swapped","shifted"],"probe_pitches":[0,-2,0,5,3,0,-2,7,0,5,-2,10,-2,10,7,0],"shifted_pitches":[0,-2,0,5,3,0,-2,7,1,5,-2,10,-2,10,7,0],"swapped_pitches":[0,-2,0,5,3,0,-2,0,7,5,-2,10,-2,10,7,0],"shift_direction":1,"question_num":21,"has_decoy":false,"subject":"S1C1674","sona":"39559","block":1,"time":"2021-09-27T23:19:13.901Z"},{"rt":8710.800000011921,"stimulus":"[A] option 1, [L] option 2, [G] neither","key_press":65,"name":"choice","trial_type":"html-keyboard-response","trial_index":48,"time_elapsed":185499,"internal_node_id":"0.0-48.0","response":"1st","certainty":"high","char":"A","transposition":2,"order":["shifted","swapped"],"probe_pitches":[10,5,9,2,9,14,4,11,10,7,13,4,14,7,8,10],"shifted_pitches":[10,5,9,2,9,14,4,12,10,7,13,4,14,7,8,10],"swapped_pitches":[10,5,9,2,9,14,4,10,11,7,13,4,14,7,8,10],"shift_direction":1,"question_num":31,"has_decoy":false,"subject":"S1C1674","sona":"39559","block":1,"time":"2021-09-27T23:19:13.901Z"},{"rt":4230.399999976158,"stimulus":"[A] option 1, [L] option 2, [G] neither","key_press":76,"name":"choice","trial_type":"html-keyboard-response","trial_index":59,"time_elapsed":213002,"internal_node_id":"0.0-59.0","response":"2nd","certainty":"high","char":"L","transposition":-2,"order":["swapped","shifted"],"probe_pitches":[8,4,6,5,8,3,13,3,6,14,10,8,3,11,9,6],"shifted_pitches":[8,4,6,5,8,3,13,3,7,14,10,8,3,11,9,6],"swapped_pitches":[8,4,6,5,8,3,13,6,3,14,10,8,3,11,9,6],"shift_direction":1,"question_num":41,"has_decoy":false,"subject":"S1C1674","sona":"39559","block":1,"time":"2021-09-27T23:19:13.901Z"},{"rt":3635.7999999821186,"stimulus":"[A] option 1, [L] option 2, [G] neither","key_press":76,"name":"choice","trial_type":"html-keyboard-response","trial_index":70,"time_elapsed":239886,"internal_node_id":"0.0-70.0","response":"2nd","certainty":"high","char":"L","transposition":-3,"order":["swapped","shifted"],"probe_pitches":[13,9,14,9,7,6,12,4,9,13,11,4,13,12,4,10],"shifted_pitches":[13,9,14,9,7,6,12,4,8,13,11,4,13,12,4,10],"swapped_pitches":[13,9,14,9,7,6,12,9,4,13,11,4,13,12,4,10],"shift_direction":-1,"question_num":51,"has_decoy":false,"subject":"S1C1674","sona":"39559","block":1,"time":"2021-09-27T23:19:13.901Z"},{"rt":1935.800000011921,"stimulus":"[A] option 1, [L] option 2, [G] neither","key_press":65,"name":"choice","trial_type":"html-keyboard-response","trial_index":81,"time_elapsed":266081,"internal_node_id":"0.0-81.0","response":"1st","certainty":"high","char":"A","transposition":-1,"order":["shifted","swapped"],"probe_pitches":[5,4,11,4,8,13,7,5,11,8,2,5,13,8,2,9],"shifted_pitches":[5,4,11,4,8,13,7,6,11,8,2,5,13,8,2,9],"swapped_pitches":[5,4,11,4,8,13,7,11,5,8,2,5,13,8,2,9],"shift_direction":1,"question_num":61,"has_decoy":false,"subject":"S1C1674","sona":"39559","block":1,"time":"2021-09-27T23:19:13.901Z"},{"rt":4278.399999976158,"stimulus":"[A] option 1, [L] option 2, [G] neither","key_press":71,"name":"choice","trial_type":"html-keyboard-response","trial_index":92,"time_elapsed":299596,"internal_node_id":"0.0-92.0","response":"neither","certainty":"high","char":"G","transposition":3,"order":["shifted","swapped"],"probe_pitches":[6,1,8,1,6,10,3,6,8,1,3,1,8,1,3,8],"shifted_pitches":[6,1,8,1,6,10,3,5,8,1,3,1,8,1,3,8],"swapped_pitches":[6,1,8,1,6,10,3,8,6,1,3,1,8,1,3,8],"shift_direction":-1,"question_num":71,"has_decoy":false,"subject":"S1C1674","sona":"39559","block":1,"time":"2021-09-27T23:19:13.901Z"},{"rt":863.3000000119209,"stimulus":"[A] option 1, [L] option 2, [G] neither","key_press":65,"name":"choice","trial_type":"html-keyboard-response","trial_index":103,"time_elapsed":323690,"internal_node_id":"0.0-103.0","response":"1st","certainty":"high","char":"A","transposition":-3,"order":["shifted","swapped"],"probe_pitches":[6,3,10,8,10,6,8,1,6,-2,10,1,8,3,6,8],"shifted_pitches":[6,3,10,8,10,6,8,1,5,-2,10,1,8,3,6,8],"swapped_pitches":[6,3,10,8,10,6,8,6,1,-2,10,1,8,3,6,8],"shift_direction":-1,"question_num":81,"has_decoy":false,"subject":"S1C1674","sona":"39559","block":1,"time":"2021-09-27T23:19:13.901Z"},{"rt":464.60000002384186,"stimulus":"[A] option 1, [L] option 2, [G] neither","key_press":65,"name":"choice","trial_type":"html-keyboard-response","trial_index":114,"time_elapsed":348245,"internal_node_id":"0.0-114.0","response":"1st","certainty":"high","char":"A","transposition":-2,"order":["shifted","swapped"],"probe_pitches":[-2,1,5,8,10,8,-2,3,1,10,5,-2,10,5,10,5],"shifted_pitches":[-2,1,5,8,10,8,-2,3,2,10,5,-2,10,5,10,5],"swapped_pitches":[-2,1,5,8,10,8,-2,1,3,10,5,-2,10,5,10,5],"shift_direction":1,"question_num":91,"has_decoy":false,"subject":"S1C1674","sona":"39559","block":1,"time":"2021-09-27T23:19:13.901Z"},{"rt":2565.0999999940395,"stimulus":"[A] option 1, [L] option 2, [G] neither","key_press":65,"name":"choice","trial_type":"html-keyboard-response","trial_index":125,"time_elapsed":373235,"internal_node_id":"0.0-125.0","response":"1st","certainty":"high","char":"A","transposition":-3,"order":["shifted","swapped"],"probe_pitches":[0,2,5,2,7,2,7,2,5,-2,10,2,-2,2,-2,0],"shifted_pitches":[0,2,5,2,7,2,7,1,5,-2,10,2,-2,2,-2,0],"swapped_pitches":[0,2,5,2,7,2,7,5,2,-2,10,2,-2,2,-2,0],"shift_direction":-1,"question_num":101,"has_decoy":false,"subject":"S1C1674","sona":"39559","block":1,"time":"2021-09-27T23:19:13.901Z"},{"rt":611.5,"stimulus":"[A] option 1, [L] option 2, [G] neither","key_press":76,"name":"choice","trial_type":"html-keyboard-response","trial_index":136,"time_elapsed":396587,"internal_node_id":"0.0-136.0","response":"2nd","certainty":"high","char":"L","transposition":2,"order":["swapped","shifted"],"probe_pitches":[-2,2,7,10,5,-2,5,-2,10,5,-2,7,-2,7,0,2],"shifted_pitches":[-2,2,7,10,5,-2,5,-2,11,5,-2,7,-2,7,0,2],"swapped_pitches":[-2,2,7,10,5,-2,5,10,-2,5,-2,7,-2,7,0,2],"shift_direction":1,"question_num":111,"has_decoy":false,"subject":"S1C1674","sona":"39559","block":1,"time":"2021-09-27T23:19:13.901Z"},{"rt":2945.7999999821186,"stimulus":"[A] option 1, [L] option 2, [G] neither","key_press":76,"name":"choice","trial_type":"html-keyboard-response","trial_index":147,"time_elapsed":475995,"internal_node_id":"0.0-147.0","response":"2nd","certainty":"high","char":"L","transposition":3,"order":["shifted","swapped"],"probe_pitches":[7,8,3,11,8,2,7,5,8,12,6,12,11,2,12,10],"shifted_pitches":[7,8,3,11,8,2,7,5,9,12,6,12,11,2,12,10],"swapped_pitches":[7,8,3,11,8,2,7,8,5,12,6,12,11,2,12,10],"shift_direction":1,"question_num":121,"has_decoy":false,"subject":"S1C1674","sona":"39559","block":1,"time":"2021-09-27T23:19:13.901Z"},{"rt":2180.5,"stimulus":"[A] option 1, [L] option 2, [G] neither","key_press":65,"name":"choice","trial_type":"html-keyboard-response","trial_index":158,"time_elapsed":501976,"internal_node_id":"0.0-158.0","response":"1st","certainty":"high","char":"A","transposition":0,"order":["shifted","swapped"],"probe_pitches":[8,7,12,9,11,3,6,14,7,5,14,5,6,12,11,2],"shifted_pitches":[8,7,12,9,11,3,6,13,7,5,14,5,6,12,11,2],"swapped_pitches":[8,7,12,9,11,3,6,7,14,5,14,5,6,12,11,2],"shift_direction":-1,"question_num":131,"has_decoy":false,"subject":"S1C1674","sona":"39559","block":1,"time":"2021-09-27T23:19:13.901Z"},{"rt":2988.9000000059605,"stimulus":"[A] option 1, [L] option 2, [G] neither","key_press":76,"name":"choice","trial_type":"html-keyboard-response","trial_index":169,"time_elapsed":528783,"internal_node_id":"0.0-169.0","response":"2nd","certainty":"high","char":"L","transposition":-1,"order":["swapped","shifted"],"probe_pitches":[8,5,2,8,12,11,4,11,7,2,7,13,7,12,5,3],"shifted_pitches":[8,5,2,8,12,11,4,10,7,2,7,13,7,12,5,3],"swapped_pitches":[8,5,2,8,12,11,4,7,11,2,7,13,7,12,5,3],"shift_direction":-1,"question_num":141,"has_decoy":false,"subject":"S1C1674","sona":"39559","block":1,"time":"2021-09-27T23:19:13.901Z"},{"rt":2795.0999999940395,"stimulus":"[A] option 1, [L] option 2, [G] neither","key_press":76,"name":"choice","trial_type":"html-keyboard-response","trial_index":180,"time_elapsed":557388,"internal_node_id":"0.0-180.0","response":"2nd","certainty":"high","char":"L","transposition":-1,"order":["swapped","shifted"],"probe_pitches":[-2,1,5,-2,3,10,1,5,8,1,3,5,1,8,-2,1],"shifted_pitches":[-2,1,5,-2,3,10,1,6,8,1,3,5,1,8,-2,1],"swapped_pitches":[-2,1,5,-2,3,10,1,8,5,1,3,5,1,8,-2,1],"shift_direction":1,"question_num":151,"has_decoy":false,"subject":"S1C1674","sona":"39559","block":1,"time":"2021-09-27T23:19:13.901Z"},{"rt":2803,"stimulus":"[A] option 1, [L] option 2, [G] neither","key_press":65,"name":"choice","trial_type":"html-keyboard-response","trial_index":191,"time_elapsed":583353,"internal_node_id":"0.0-191.0","response":"1st","certainty":"high","char":"A","transposition":-3,"order":["swapped","shifted"],"probe_pitches":[2,8,12,5,6,14,12,2,5,8,9,8,3,10,11,6],"shifted_pitches":[2,8,12,5,6,14,12,2,4,8,9,8,3,10,11,6],"swapped_pitches":[2,8,12,5,6,14,12,5,2,8,9,8,3,10,11,6],"shift_direction":-1,"question_num":161,"has_decoy":false,"subject":"S1C1674","sona":"39559","block":1,"time":"2021-09-27T23:19:13.901Z"},{"rt":3453.0999999940395,"stimulus":"[A] option 1, [L] option 2, [G] neither","key_press":76,"name":"choice","trial_type":"html-keyboard-response","trial_index":202,"time_elapsed":610498,"internal_node_id":"0.0-202.0","response":"2nd","certainty":"high","char":"L","transposition":1,"order":["swapped","shifted"],"probe_pitches":[8,4,11,10,7,11,12,6,8,4,14,6,9,6,11,14],"shifted_pitches":[8,4,11,10,7,11,12,5,8,4,14,6,9,6,11,14],"swapped_pitches":[8,4,11,10,7,11,12,8,6,4,14,6,9,6,11,14],"shift_direction":-1,"question_num":171,"has_decoy":false,"subject":"S1C1674","sona":"39559","block":1,"time":"2021-09-27T23:19:13.901Z"},{"rt":865.5999999940395,"stimulus":"[A] option 1, [L] option 2, [G] neither","key_press":76,"name":"choice","trial_type":"html-keyboard-response","trial_index":213,"time_elapsed":634763,"internal_node_id":"0.0-213.0","response":"2nd","certainty":"high","char":"L","transposition":-2,"order":["shifted","swapped"],"probe_pitches":[8,14,12,14,5,14,6,5,10,12,9,8,5,9,4,8],"shifted_pitches":[8,14,12,14,5,14,6,5,11,12,9,8,5,9,4,8],"swapped_pitches":[8,14,12,14,5,14,6,10,5,12,9,8,5,9,4,8],"shift_direction":1,"question_num":181,"has_decoy":false,"subject":"S1C1674","sona":"39559","block":1,"time":"2021-09-27T23:19:13.901Z"},{"rt":628.5999999940395,"stimulus":"[A] option 1, [L] option 2, [G] neither","key_press":65,"name":"choice","trial_type":"html-keyboard-response","trial_index":224,"time_elapsed":658318,"internal_node_id":"0.0-224.0","response":"1st","certainty":"high","char":"A","transposition":0,"order":["shifted","swapped"],"probe_pitches":[8,10,3,8,5,8,5,-2,10,5,0,3,0,8,0,5],"shifted_pitches":[8,10,3,8,5,8,5,-3,10,5,0,3,0,8,0,5],"swapped_pitches":[8,10,3,8,5,8,5,10,-2,5,0,3,0,8,0,5],"shift_direction":-1,"question_num":191,"has_decoy":false,"subject":"S1C1674","sona":"39559","block":1,"time":"2021-09-27T23:19:13.901Z"}]