[{"rt":14200,"stimulus":"[A] option 1, [L] option 2, [G] neither","key_press":76,"name":"choice","trial_type":"html-keyboard-response","trial_index":15,"time_elapsed":105965,"internal_node_id":"0.0-15.0","response":"2nd","certainty":"high","char":"L","transposition":-1,"order":["swapped","shifted"],"probe_pitches":[5,7,2,0,9,2,12,7],"shifted_pitches":[5,7,2,-1,9,2,12,7],"swapped_pitches":[5,7,2,9,0,2,12,7],"shift_direction":-1,"question_num":1,"has_decoy":false,"subject":"S1C0837","sona":"41762","block":1,"time":"2021-09-18T19:58:23.932Z"},{"rt":1408.300000000745,"stimulus":"[A] option 1, [L] option 2, [G] neither","key_press":76,"name":"choice","trial_type":"html-keyboard-response","trial_index":26,"time_elapsed":131955,"internal_node_id":"0.0-26.0","response":"2nd","certainty":"high","char":"L","transposition":-2,"order":["shifted","swapped"],"probe_pitches":[4,-1,4,1,7,2,7,11],"shifted_pitches":[4,-1,4,1,6,2,7,11],"swapped_pitches":[4,-1,4,7,1,2,7,11],"shift_direction":-1,"question_num":11,"has_decoy":false,"subject":"S1C0837","sona":"41762","block":1,"time":"2021-09-18T19:58:23.932Z"},{"rt":8286.5,"stimulus":"[A] option 1, [L] option 2, [G] neither","key_press":65,"name":"choice","trial_type":"html-keyboard-response","trial_index":37,"time_elapsed":158281,"internal_node_id":"0.0-37.0","response":"1st","certainty":"high","char":"A","transposition":-2,"order":["swapped","shifted"],"probe_pitches":[0,5,3,8,0,10,8,3],"shifted_pitches":[0,5,3,9,0,10,8,3],"swapped_pitches":[0,5,3,0,8,10,8,3],"shift_direction":1,"question_num":21,"has_decoy":false,"subject":"S1C0837","sona":"41762","block":1,"time":"2021-09-18T19:58:23.932Z"},{"rt":2210.400000002235,"stimulus":"[A] option 1, [L] option 2, [G] neither","key_press":76,"name":"choice","trial_type":"html-keyboard-response","trial_index":48,"time_elapsed":185391,"internal_node_id":"0.0-48.0","response":"2nd","certainty":"high","char":"L","transposition":-1,"order":["swapped","shifted"],"probe_pitches":[10,9,11,4,8,9,0,9],"shifted_pitches":[10,9,11,5,8,9,0,9],"swapped_pitches":[10,9,11,8,4,9,0,9],"shift_direction":1,"question_num":31,"has_decoy":false,"subject":"S1C0837","sona":"41762","block":1,"time":"2021-09-18T19:58:23.932Z"},{"rt":4134.800000000745,"stimulus":"[A] option 1, [L] option 2, [G] neither","key_press":65,"name":"choice","trial_type":"html-keyboard-response","trial_index":59,"time_elapsed":206775,"internal_node_id":"0.0-59.0","response":"1st","certainty":"high","char":"A","transposition":-3,"order":["swapped","shifted"],"probe_pitches":[5,8,5,8,9,10,5,6],"shifted_pitches":[5,8,5,7,9,10,5,6],"swapped_pitches":[5,8,5,9,8,10,5,6],"shift_direction":-1,"question_num":41,"has_decoy":false,"subject":"S1C0837","sona":"41762","block":1,"time":"2021-09-18T19:58:23.932Z"},{"rt":4509.800000000745,"stimulus":"[A] option 1, [L] option 2, [G] neither","key_press":76,"name":"choice","trial_type":"html-keyboard-response","trial_index":70,"time_elapsed":227814,"internal_node_id":"0.0-70.0","response":"2nd","certainty":"high","char":"L","transposition":-3,"order":["swapped","shifted"],"probe_pitches":[0,2,0,5,2,0,9,7],"shifted_pitches":[0,2,0,5,3,0,9,7],"swapped_pitches":[0,2,0,2,5,0,9,7],"shift_direction":1,"question_num":51,"has_decoy":false,"subject":"S1C0837","sona":"41762","block":1,"time":"2021-09-18T19:58:23.932Z"},{"rt":1023.1000000014901,"stimulus":"[A] option 1, [L] option 2, [G] neither","key_press":76,"name":"choice","trial_type":"html-keyboard-response","trial_index":81,"time_elapsed":244935,"internal_node_id":"0.0-81.0","response":"2nd","certainty":"high","char":"L","transposition":1,"order":["shifted","swapped"],"probe_pitches":[1,5,7,8,0,10,11,-1],"shifted_pitches":[1,5,7,9,0,10,11,-1],"swapped_pitches":[1,5,7,0,8,10,11,-1],"shift_direction":1,"question_num":61,"has_decoy":false,"subject":"S1C0837","sona":"41762","block":1,"time":"2021-09-18T19:58:23.932Z"},{"rt":3659.699999999255,"stimulus":"[A] option 1, [L] option 2, [G] neither","key_press":65,"name":"choice","trial_type":"html-keyboard-response","trial_index":92,"time_elapsed":264298,"internal_node_id":"0.0-92.0","response":"1st","certainty":"high","char":"A","transposition":1,"order":["shifted","swapped"],"probe_pitches":[5,10,7,0,3,7,10,0],"shifted_pitches":[5,10,7,0,4,7,10,0],"swapped_pitches":[5,10,7,3,0,7,10,0],"shift_direction":1,"question_num":71,"has_decoy":false,"subject":"S1C0837","sona":"41762","block":1,"time":"2021-09-18T19:58:23.932Z"},{"rt":3428.89999999851,"stimulus":"[A] option 1, [L] option 2, [G] neither","key_press":65,"name":"choice","trial_type":"html-keyboard-response","trial_index":103,"time_elapsed":284216,"internal_node_id":"0.0-103.0","response":"1st","certainty":"high","char":"A","transposition":0,"order":["swapped","shifted"],"probe_pitches":[-1,1,0,7,5,3,6,9],"shifted_pitches":[-1,1,0,8,5,3,6,9],"swapped_pitches":[-1,1,0,5,7,3,6,9],"shift_direction":1,"question_num":81,"has_decoy":false,"subject":"S1C0837","sona":"41762","block":1,"time":"2021-09-18T19:58:23.932Z"},{"rt":1360.5,"stimulus":"[A] option 1, [L] option 2, [G] neither","key_press":65,"name":"choice","trial_type":"html-keyboard-response","trial_index":114,"time_elapsed":302059,"internal_node_id":"0.0-114.0","response":"1st","certainty":"high","char":"A","transposition":-1,"order":["shifted","swapped"],"probe_pitches":[4,9,12,7,0,9,2,0],"shifted_pitches":[4,9,12,6,0,9,2,0],"swapped_pitches":[4,9,12,0,7,9,2,0],"shift_direction":-1,"question_num":91,"has_decoy":false,"subject":"S1C0837","sona":"41762","block":1,"time":"2021-09-18T19:58:23.932Z"},{"rt":1336.800000000745,"stimulus":"[A] option 1, [L] option 2, [G] neither","key_press":65,"name":"choice","trial_type":"html-keyboard-response","trial_index":125,"time_elapsed":318803,"internal_node_id":"0.0-125.0","response":"1st","certainty":"high","char":"A","transposition":0,"order":["swapped","shifted"],"probe_pitches":[7,12,7,12,4,0,9,2],"shifted_pitches":[7,12,7,12,5,0,9,2],"swapped_pitches":[7,12,7,4,12,0,9,2],"shift_direction":1,"question_num":101,"has_decoy":false,"subject":"S1C0837","sona":"41762","block":1,"time":"2021-09-18T19:58:23.932Z"},{"rt":1953.800000000745,"stimulus":"[A] option 1, [L] option 2, [G] neither","key_press":76,"name":"choice","trial_type":"html-keyboard-response","trial_index":136,"time_elapsed":336181,"internal_node_id":"0.0-136.0","response":"2nd","certainty":"high","char":"L","transposition":3,"order":["shifted","swapped"],"probe_pitches":[0,6,7,4,-1,0,-1,5],"shifted_pitches":[0,6,7,4,-2,0,-1,5],"swapped_pitches":[0,6,7,-1,4,0,-1,5],"shift_direction":-1,"question_num":111,"has_decoy":false,"subject":"S1C0837","sona":"41762","block":1,"time":"2021-09-18T19:58:23.932Z"},{"rt":1669.6000000014901,"stimulus":"[A] option 1, [L] option 2, [G] neither","key_press":65,"name":"choice","trial_type":"html-keyboard-response","trial_index":147,"time_elapsed":353920,"internal_node_id":"0.0-147.0","response":"1st","certainty":"high","char":"A","transposition":-1,"order":["shifted","swapped"],"probe_pitches":[9,11,5,8,3,1,-1,7],"shifted_pitches":[9,11,5,8,4,1,-1,7],"swapped_pitches":[9,11,5,3,8,1,-1,7],"shift_direction":1,"question_num":121,"has_decoy":false,"subject":"S1C0837","sona":"41762","block":1,"time":"2021-09-18T19:58:23.932Z"},{"rt":1023,"stimulus":"[A] option 1, [L] option 2, [G] neither","key_press":76,"name":"choice","trial_type":"html-keyboard-response","trial_index":158,"time_elapsed":370452,"internal_node_id":"0.0-158.0","response":"2nd","certainty":"high","char":"L","transposition":-3,"order":["shifted","swapped"],"probe_pitches":[11,5,0,3,5,-1,3,9],"shifted_pitches":[11,5,0,2,5,-1,3,9],"swapped_pitches":[11,5,0,5,3,-1,3,9],"shift_direction":-1,"question_num":131,"has_decoy":false,"subject":"S1C0837","sona":"41762","block":1,"time":"2021-09-18T19:58:23.932Z"},{"rt":1368.2999999970198,"stimulus":"[A] option 1, [L] option 2, [G] neither","key_press":76,"name":"choice","trial_type":"html-keyboard-response","trial_index":169,"time_elapsed":387245,"internal_node_id":"0.0-169.0","response":"2nd","certainty":"high","char":"L","transposition":2,"order":["swapped","shifted"],"probe_pitches":[7,8,3,5,0,9,4,10],"shifted_pitches":[7,8,3,5,1,9,4,10],"swapped_pitches":[7,8,3,0,5,9,4,10],"shift_direction":1,"question_num":141,"has_decoy":false,"subject":"S1C0837","sona":"41762","block":1,"time":"2021-09-18T19:58:23.932Z"},{"rt":534,"stimulus":"[A] option 1, [L] option 2, [G] neither","key_press":76,"name":"choice","trial_type":"html-keyboard-response","trial_index":180,"time_elapsed":402975,"internal_node_id":"0.0-180.0","response":"2nd","certainty":"high","char":"L","transposition":-2,"order":["swapped","shifted"],"probe_pitches":[5,2,7,5,10,2,0,12],"shifted_pitches":[5,2,7,4,10,2,0,12],"swapped_pitches":[5,2,7,10,5,2,0,12],"shift_direction":-1,"question_num":151,"has_decoy":false,"subject":"S1C0837","sona":"41762","block":1,"time":"2021-09-18T19:58:23.932Z"},{"rt":1124.9000000022352,"stimulus":"[A] option 1, [L] option 2, [G] neither","key_press":65,"name":"choice","trial_type":"html-keyboard-response","trial_index":191,"time_elapsed":419290,"internal_node_id":"0.0-191.0","response":"1st","certainty":"high","char":"A","transposition":3,"order":["shifted","swapped"],"probe_pitches":[5,2,0,2,7,5,10,2],"shifted_pitches":[5,2,0,3,7,5,10,2],"swapped_pitches":[5,2,0,7,2,5,10,2],"shift_direction":1,"question_num":161,"has_decoy":false,"subject":"S1C0837","sona":"41762","block":1,"time":"2021-09-18T19:58:23.932Z"},{"rt":1076.9000000022352,"stimulus":"[A] option 1, [L] option 2, [G] neither","key_press":65,"name":"choice","trial_type":"html-keyboard-response","trial_index":202,"time_elapsed":435123,"internal_node_id":"0.0-202.0","response":"1st","certainty":"high","char":"A","transposition":-3,"order":["shifted","swapped"],"probe_pitches":[0,5,10,3,7,12,7,5],"shifted_pitches":[0,5,10,3,6,12,7,5],"swapped_pitches":[0,5,10,7,3,12,7,5],"shift_direction":-1,"question_num":171,"has_decoy":false,"subject":"S1C0837","sona":"41762","block":1,"time":"2021-09-18T19:58:23.932Z"},{"rt":1980.699999999255,"stimulus":"[A] option 1, [L] option 2, [G] neither","key_press":65,"name":"choice","trial_type":"html-keyboard-response","trial_index":213,"time_elapsed":453587,"internal_node_id":"0.0-213.0","response":"1st","certainty":"high","char":"A","transposition":2,"order":["shifted","swapped"],"probe_pitches":[10,5,10,8,3,0,8,0],"shifted_pitches":[10,5,10,8,2,0,8,0],"swapped_pitches":[10,5,10,3,8,0,8,0],"shift_direction":-1,"question_num":181,"has_decoy":false,"subject":"S1C0837","sona":"41762","block":1,"time":"2021-09-18T19:58:23.932Z"},{"rt":1426,"stimulus":"[A] option 1, [L] option 2, [G] neither","key_press":76,"name":"choice","trial_type":"html-keyboard-response","trial_index":224,"time_elapsed":470245,"internal_node_id":"0.0-224.0","response":"2nd","certainty":"high","char":"L","transposition":-2,"order":["swapped","shifted"],"probe_pitches":[9,6,2,10,4,1,0,11],"shifted_pitches":[9,6,2,10,3,1,0,11],"swapped_pitches":[9,6,2,4,10,1,0,11],"shift_direction":-1,"question_num":191,"has_decoy":false,"subject":"S1C0837","sona":"41762","block":1,"time":"2021-09-18T19:58:23.932Z"}]