[{"rt":9114.199999999255,"stimulus":"[A] option 1, [L] option 2, [G] neither","key_press":76,"name":"choice","trial_type":"html-keyboard-response","trial_index":10,"time_elapsed":45998,"internal_node_id":"0.0-10.0","subject":"S1C0837","sona":"41762","block":4,"time":"2021-09-18T20:19:29.672Z","response":"2nd","certainty":"high","char":"L","transposition":0,"order":["swapped","shifted"],"probe_pitches":[1,4,9,1,6,4,-1,11],"shifted_pitches":[1,4,9,0,6,4,-1,11],"swapped_pitches":[1,4,9,6,1,4,-1,11],"shift_direction":-1,"question_num":1,"has_decoy":false},{"rt":7889.699999999255,"stimulus":"[A] option 1, [L] option 2, [G] neither","key_press":65,"name":"choice","trial_type":"html-keyboard-response","trial_index":21,"time_elapsed":70065,"internal_node_id":"0.0-21.0","subject":"S1C0837","sona":"41762","block":4,"time":"2021-09-18T20:19:29.672Z","response":"1st","certainty":"high","char":"A","transposition":-3,"order":["shifted","swapped"],"probe_pitches":[-1,2,9,4,2,9,6,2],"shifted_pitches":[-1,2,9,3,2,9,6,2],"swapped_pitches":[-1,2,9,2,4,9,6,2],"shift_direction":-1,"question_num":11,"has_decoy":false},{"rt":5023.39999999851,"stimulus":"[A] option 1, [L] option 2, [G] neither","key_press":76,"name":"choice","trial_type":"html-keyboard-response","trial_index":32,"time_elapsed":92382,"internal_node_id":"0.0-32.0","subject":"S1C0837","sona":"41762","block":4,"time":"2021-09-18T20:19:29.672Z","response":"2nd","certainty":"high","char":"L","transposition":1,"order":["swapped","shifted"],"probe_pitches":[4,9,4,6,-1,9,11,1],"shifted_pitches":[4,9,4,6,0,9,11,1],"swapped_pitches":[4,9,4,-1,6,9,11,1],"shift_direction":1,"question_num":21,"has_decoy":false},{"rt":1637.199999999255,"stimulus":"[A] option 1, [L] option 2, [G] neither","key_press":65,"name":"choice","trial_type":"html-keyboard-response","trial_index":43,"time_elapsed":132401,"internal_node_id":"0.0-43.0","subject":"S1C0837","sona":"41762","block":4,"time":"2021-09-18T20:19:29.672Z","response":"1st","certainty":"high","char":"A","transposition":-3,"order":["shifted","swapped"],"probe_pitches":[5,4,9,5,14,9,5,8],"shifted_pitches":[5,4,9,6,14,9,5,8],"swapped_pitches":[5,4,9,14,5,9,5,8],"shift_direction":1,"question_num":31,"has_decoy":false},{"rt":5597.89999999851,"stimulus":"[A] option 1, [L] option 2, [G] neither","key_press":65,"name":"choice","trial_type":"html-keyboard-response","trial_index":54,"time_elapsed":153175,"internal_node_id":"0.0-54.0","subject":"S1C0837","sona":"41762","block":4,"time":"2021-09-18T20:19:29.672Z","response":"1st","certainty":"high","char":"A","transposition":-2,"order":["shifted","swapped"],"probe_pitches":[8,4,11,12,5,14,15,11],"shifted_pitches":[8,4,11,13,5,14,15,11],"swapped_pitches":[8,4,11,5,12,14,15,11],"shift_direction":1,"question_num":41,"has_decoy":false},{"rt":3039,"stimulus":"[A] option 1, [L] option 2, [G] neither","key_press":76,"name":"choice","trial_type":"html-keyboard-response","trial_index":65,"time_elapsed":176992,"internal_node_id":"0.0-65.0","subject":"S1C0837","sona":"41762","block":4,"time":"2021-09-18T20:19:29.672Z","response":"2nd","certainty":"high","char":"L","transposition":0,"order":["swapped","shifted"],"probe_pitches":[3,6,8,3,12,10,3,10],"shifted_pitches":[3,6,8,3,11,10,3,10],"swapped_pitches":[3,6,8,12,3,10,3,10],"shift_direction":-1,"question_num":51,"has_decoy":false},{"rt":871.1999999992549,"stimulus":"[A] option 1, [L] option 2, [G] neither","key_press":76,"name":"choice","trial_type":"html-keyboard-response","trial_index":76,"time_elapsed":223097,"internal_node_id":"0.0-76.0","subject":"S1C0837","sona":"41762","block":4,"time":"2021-09-18T20:19:29.672Z","response":"2nd","certainty":"high","char":"L","transposition":-1,"order":["swapped","shifted"],"probe_pitches":[15,13,8,11,3,13,12,15],"shifted_pitches":[15,13,8,10,3,13,12,15],"swapped_pitches":[15,13,8,3,11,13,12,15],"shift_direction":-1,"question_num":61,"has_decoy":false},{"rt":613.8999999985099,"stimulus":"[A] option 1, [L] option 2, [G] neither","key_press":65,"name":"choice","trial_type":"html-keyboard-response","trial_index":87,"time_elapsed":237730,"internal_node_id":"0.0-87.0","subject":"S1C0837","sona":"41762","block":4,"time":"2021-09-18T20:19:29.672Z","response":"1st","certainty":"high","char":"A","transposition":-2,"order":["shifted","swapped"],"probe_pitches":[1,4,-1,6,8,-1,6,1],"shifted_pitches":[1,4,-1,6,9,-1,6,1],"swapped_pitches":[1,4,-1,8,6,-1,6,1],"shift_direction":1,"question_num":71,"has_decoy":false},{"rt":1436.199999999255,"stimulus":"[A] option 1, [L] option 2, [G] neither","key_press":65,"name":"choice","trial_type":"html-keyboard-response","trial_index":98,"time_elapsed":254473,"internal_node_id":"0.0-98.0","subject":"S1C0837","sona":"41762","block":4,"time":"2021-09-18T20:19:29.672Z","response":"1st","certainty":"high","char":"A","transposition":-1,"order":["shifted","swapped"],"probe_pitches":[1,6,11,6,8,-1,4,11],"shifted_pitches":[1,6,11,7,8,-1,4,11],"swapped_pitches":[1,6,11,8,6,-1,4,11],"shift_direction":1,"question_num":81,"has_decoy":false},{"rt":1528.800000000745,"stimulus":"[A] option 1, [L] option 2, [G] neither","key_press":76,"name":"choice","trial_type":"html-keyboard-response","trial_index":109,"time_elapsed":270244,"internal_node_id":"0.0-109.0","subject":"S1C0837","sona":"41762","block":4,"time":"2021-09-18T20:19:29.672Z","response":"2nd","certainty":"high","char":"L","transposition":-2,"order":["shifted","swapped"],"probe_pitches":[11,13,10,7,9,5,4,3],"shifted_pitches":[11,13,10,7,8,5,4,3],"swapped_pitches":[11,13,10,9,7,5,4,3],"shift_direction":-1,"question_num":91,"has_decoy":false},{"rt":3132.39999999851,"stimulus":"[A] option 1, [L] option 2, [G] neither","key_press":65,"name":"choice","trial_type":"html-keyboard-response","trial_index":120,"time_elapsed":287983,"internal_node_id":"0.0-120.0","subject":"S1C0837","sona":"41762","block":4,"time":"2021-09-18T20:19:29.672Z","response":"1st","certainty":"high","char":"A","transposition":-1,"order":["swapped","shifted"],"probe_pitches":[4,6,4,11,8,3,14,3],"shifted_pitches":[4,6,4,11,7,3,14,3],"swapped_pitches":[4,6,4,8,11,3,14,3],"shift_direction":-1,"question_num":101,"has_decoy":false},{"rt":2354.60000000149,"stimulus":"[A] option 1, [L] option 2, [G] neither","key_press":76,"name":"choice","trial_type":"html-keyboard-response","trial_index":131,"time_elapsed":304801,"internal_node_id":"0.0-131.0","subject":"S1C0837","sona":"41762","block":4,"time":"2021-09-18T20:19:29.672Z","response":"2nd","certainty":"high","char":"L","transposition":1,"order":["shifted","swapped"],"probe_pitches":[4,6,7,15,6,13,9,7],"shifted_pitches":[4,6,7,14,6,13,9,7],"swapped_pitches":[4,6,7,6,15,13,9,7],"shift_direction":-1,"question_num":111,"has_decoy":false},{"rt":1280.0999999977648,"stimulus":"[A] option 1, [L] option 2, [G] neither","key_press":65,"name":"choice","trial_type":"html-keyboard-response","trial_index":142,"time_elapsed":320846,"internal_node_id":"0.0-142.0","subject":"S1C0837","sona":"41762","block":4,"time":"2021-09-18T20:19:29.672Z","response":"1st","certainty":"high","char":"A","transposition":3,"order":["swapped","shifted"],"probe_pitches":[11,9,2,4,7,2,11,2],"shifted_pitches":[11,9,2,4,6,2,11,2],"swapped_pitches":[11,9,2,7,4,2,11,2],"shift_direction":-1,"question_num":121,"has_decoy":false},{"rt":1785.300000000745,"stimulus":"[A] option 1, [L] option 2, [G] neither","key_press":65,"name":"choice","trial_type":"html-keyboard-response","trial_index":153,"time_elapsed":337401,"internal_node_id":"0.0-153.0","subject":"S1C0837","sona":"41762","block":4,"time":"2021-09-18T20:19:29.672Z","response":"1st","certainty":"high","char":"A","transposition":-3,"order":["shifted","swapped"],"probe_pitches":[6,11,6,8,1,3,6,8],"shifted_pitches":[6,11,6,8,0,3,6,8],"swapped_pitches":[6,11,6,1,8,3,6,8],"shift_direction":-1,"question_num":131,"has_decoy":false},{"rt":1009.1999999992549,"stimulus":"[A] option 1, [L] option 2, [G] neither","key_press":76,"name":"choice","trial_type":"html-keyboard-response","trial_index":164,"time_elapsed":352748,"internal_node_id":"0.0-164.0","subject":"S1C0837","sona":"41762","block":4,"time":"2021-09-18T20:19:29.672Z","response":"2nd","certainty":"high","char":"L","transposition":-1,"order":["swapped","shifted"],"probe_pitches":[-1,2,7,2,4,9,-1,11],"shifted_pitches":[-1,2,7,1,4,9,-1,11],"swapped_pitches":[-1,2,7,4,2,9,-1,11],"shift_direction":-1,"question_num":141,"has_decoy":false},{"rt":550.3000000007451,"stimulus":"[A] option 1, [L] option 2, [G] neither","key_press":76,"name":"choice","trial_type":"html-keyboard-response","trial_index":175,"time_elapsed":367418,"internal_node_id":"0.0-175.0","subject":"S1C0837","sona":"41762","block":4,"time":"2021-09-18T20:19:29.672Z","response":"2nd","certainty":"high","char":"L","transposition":3,"order":["swapped","shifted"],"probe_pitches":[4,8,7,5,8,15,4,12],"shifted_pitches":[4,8,7,5,9,15,4,12],"swapped_pitches":[4,8,7,8,5,15,4,12],"shift_direction":1,"question_num":151,"has_decoy":false},{"rt":747.8999999985099,"stimulus":"[A] option 1, [L] option 2, [G] neither","key_press":76,"name":"choice","trial_type":"html-keyboard-response","trial_index":186,"time_elapsed":382506,"internal_node_id":"0.0-186.0","subject":"S1C0837","sona":"41762","block":4,"time":"2021-09-18T20:19:29.672Z","response":"2nd","certainty":"high","char":"L","transposition":-3,"order":["shifted","swapped"],"probe_pitches":[13,15,13,10,4,14,15,8],"shifted_pitches":[13,15,13,10,5,14,15,8],"swapped_pitches":[13,15,13,4,10,14,15,8],"shift_direction":1,"question_num":161,"has_decoy":false},{"rt":1254.800000000745,"stimulus":"[A] option 1, [L] option 2, [G] neither","key_press":65,"name":"choice","trial_type":"html-keyboard-response","trial_index":197,"time_elapsed":398030,"internal_node_id":"0.0-197.0","subject":"S1C0837","sona":"41762","block":4,"time":"2021-09-18T20:19:29.672Z","response":"1st","certainty":"high","char":"A","transposition":2,"order":["shifted","swapped"],"probe_pitches":[6,4,9,6,2,-1,6,4],"shifted_pitches":[6,4,9,7,2,-1,6,4],"swapped_pitches":[6,4,9,2,6,-1,6,4],"shift_direction":1,"question_num":171,"has_decoy":false},{"rt":688.7000000029802,"stimulus":"[A] option 1, [L] option 2, [G] neither","key_press":76,"name":"choice","trial_type":"html-keyboard-response","trial_index":208,"time_elapsed":418702,"internal_node_id":"0.0-208.0","subject":"S1C0837","sona":"41762","block":4,"time":"2021-09-18T20:19:29.672Z","response":"2nd","certainty":"high","char":"L","transposition":2,"order":["swapped","shifted"],"probe_pitches":[6,11,6,11,15,10,8,6],"shifted_pitches":[6,11,6,12,15,10,8,6],"swapped_pitches":[6,11,6,15,11,10,8,6],"shift_direction":1,"question_num":181,"has_decoy":false},{"rt":357.5,"stimulus":"[A] option 1, [L] option 2, [G] neither","key_press":76,"name":"choice","trial_type":"html-keyboard-response","trial_index":219,"time_elapsed":433412,"internal_node_id":"0.0-219.0","subject":"S1C0837","sona":"41762","block":4,"time":"2021-09-18T20:19:29.672Z","response":"2nd","certainty":"high","char":"L","transposition":-2,"order":["swapped","shifted"],"probe_pitches":[3,1,6,3,1,8,-1,1],"shifted_pitches":[3,1,6,3,2,8,-1,1],"swapped_pitches":[3,1,6,1,3,8,-1,1],"shift_direction":1,"question_num":191,"has_decoy":false}]