[{"rt":327.8999999985099,"stimulus":"[A] option 1, [L] option 2, [G] neither","key_press":76,"name":"choice","trial_type":"html-keyboard-response","trial_index":10,"time_elapsed":20898,"internal_node_id":"0.0-10.0","subject":"S1C0837","sona":"41762","block":3,"time":"2021-09-18T20:12:10.939Z","response":"2nd","certainty":"high","char":"L","transposition":-2,"order":["swapped","shifted"],"probe_pitches":[5,9,7,8,0,7,-3,5],"shifted_pitches":[5,9,7,8,-1,7,-3,5],"swapped_pitches":[5,9,7,0,8,7,-3,5],"shift_direction":-1,"question_num":1,"has_decoy":false},{"rt":1931.1000000014901,"stimulus":"[A] option 1, [L] option 2, [G] neither","key_press":65,"name":"choice","trial_type":"html-keyboard-response","trial_index":21,"time_elapsed":36934,"internal_node_id":"0.0-21.0","subject":"S1C0837","sona":"41762","block":3,"time":"2021-09-18T20:12:10.939Z","response":"1st","certainty":"high","char":"A","transposition":-2,"order":["shifted","swapped"],"probe_pitches":[4,9,2,6,-1,9,6,-3],"shifted_pitches":[4,9,2,6,0,9,6,-3],"swapped_pitches":[4,9,2,-1,6,9,6,-3],"shift_direction":1,"question_num":11,"has_decoy":false},{"rt":1446.8999999985099,"stimulus":"[A] option 1, [L] option 2, [G] neither","key_press":76,"name":"choice","trial_type":"html-keyboard-response","trial_index":32,"time_elapsed":53297,"internal_node_id":"0.0-32.0","subject":"S1C0837","sona":"41762","block":3,"time":"2021-09-18T20:12:10.939Z","response":"2nd","certainty":"high","char":"L","transposition":1,"order":["shifted","swapped"],"probe_pitches":[-2,-1,5,8,9,5,8,0],"shifted_pitches":[-2,-1,5,7,9,5,8,0],"swapped_pitches":[-2,-1,5,9,8,5,8,0],"shift_direction":-1,"question_num":21,"has_decoy":false},{"rt":335.69999999925494,"stimulus":"[A] option 1, [L] option 2, [G] neither","key_press":76,"name":"choice","trial_type":"html-keyboard-response","trial_index":43,"time_elapsed":69526,"internal_node_id":"0.0-43.0","subject":"S1C0837","sona":"41762","block":3,"time":"2021-09-18T20:12:10.939Z","response":"2nd","certainty":"high","char":"L","transposition":-1,"order":["swapped","shifted"],"probe_pitches":[2,4,-1,7,4,-3,4,7],"shifted_pitches":[2,4,-1,8,4,-3,4,7],"swapped_pitches":[2,4,-1,4,7,-3,4,7],"shift_direction":1,"question_num":31,"has_decoy":false},{"rt":506.1000000014901,"stimulus":"[A] option 1, [L] option 2, [G] neither","key_press":76,"name":"choice","trial_type":"html-keyboard-response","trial_index":54,"time_elapsed":84610,"internal_node_id":"0.0-54.0","subject":"S1C0837","sona":"41762","block":3,"time":"2021-09-18T20:12:10.939Z","response":"2nd","certainty":"high","char":"L","transposition":-1,"order":["shifted","swapped"],"probe_pitches":[7,3,8,5,-1,9,5,3],"shifted_pitches":[7,3,8,6,-1,9,5,3],"swapped_pitches":[7,3,8,-1,5,9,5,3],"shift_direction":1,"question_num":41,"has_decoy":false},{"rt":689.8000000007451,"stimulus":"[A] option 1, [L] option 2, [G] neither","key_press":65,"name":"choice","trial_type":"html-keyboard-response","trial_index":65,"time_elapsed":100333,"internal_node_id":"0.0-65.0","subject":"S1C0837","sona":"41762","block":3,"time":"2021-09-18T20:12:10.939Z","response":"1st","certainty":"high","char":"A","transposition":-1,"order":["shifted","swapped"],"probe_pitches":[2,5,8,4,2,9,-2,-3],"shifted_pitches":[2,5,8,4,3,9,-2,-3],"swapped_pitches":[2,5,8,2,4,9,-2,-3],"shift_direction":1,"question_num":51,"has_decoy":false},{"rt":4830.5,"stimulus":"[A] option 1, [L] option 2, [G] neither","key_press":65,"name":"choice","trial_type":"html-keyboard-response","trial_index":76,"time_elapsed":119706,"internal_node_id":"0.0-76.0","subject":"S1C0837","sona":"41762","block":3,"time":"2021-09-18T20:12:10.939Z","response":"1st","certainty":"high","char":"A","transposition":-1,"order":["swapped","shifted"],"probe_pitches":[5,0,7,2,9,0,9,2],"shifted_pitches":[5,0,7,2,8,0,9,2],"swapped_pitches":[5,0,7,9,2,0,9,2],"shift_direction":-1,"question_num":61,"has_decoy":false},{"rt":1085.2999999970198,"stimulus":"[A] option 1, [L] option 2, [G] neither","key_press":76,"name":"choice","trial_type":"html-keyboard-response","trial_index":87,"time_elapsed":135287,"internal_node_id":"0.0-87.0","subject":"S1C0837","sona":"41762","block":3,"time":"2021-09-18T20:12:10.939Z","response":"2nd","certainty":"high","char":"L","transposition":-3,"order":["swapped","shifted"],"probe_pitches":[8,9,4,0,3,7,-2,6],"shifted_pitches":[8,9,4,0,2,7,-2,6],"swapped_pitches":[8,9,4,3,0,7,-2,6],"shift_direction":-1,"question_num":71,"has_decoy":false},{"rt":399.69999999925494,"stimulus":"[A] option 1, [L] option 2, [G] neither","key_press":65,"name":"choice","trial_type":"html-keyboard-response","trial_index":98,"time_elapsed":150037,"internal_node_id":"0.0-98.0","subject":"S1C0837","sona":"41762","block":3,"time":"2021-09-18T20:12:10.939Z","response":"1st","certainty":"high","char":"A","transposition":-2,"order":["shifted","swapped"],"probe_pitches":[-1,-3,2,4,7,2,4,-1],"shifted_pitches":[-1,-3,2,3,7,2,4,-1],"swapped_pitches":[-1,-3,2,7,4,2,4,-1],"shift_direction":-1,"question_num":81,"has_decoy":false},{"rt":619.1999999992549,"stimulus":"[A] option 1, [L] option 2, [G] neither","key_press":76,"name":"choice","trial_type":"html-keyboard-response","trial_index":109,"time_elapsed":166258,"internal_node_id":"0.0-109.0","subject":"S1C0837","sona":"41762","block":3,"time":"2021-09-18T20:12:10.939Z","response":"2nd","certainty":"high","char":"L","transposition":1,"order":["shifted","swapped"],"probe_pitches":[6,9,4,1,-1,-3,6,-3],"shifted_pitches":[6,9,4,0,-1,-3,6,-3],"swapped_pitches":[6,9,4,-1,1,-3,6,-3],"shift_direction":-1,"question_num":91,"has_decoy":false},{"rt":590.8000000007451,"stimulus":"[A] option 1, [L] option 2, [G] neither","key_press":76,"name":"choice","trial_type":"html-keyboard-response","trial_index":120,"time_elapsed":182186,"internal_node_id":"0.0-120.0","subject":"S1C0837","sona":"41762","block":3,"time":"2021-09-18T20:12:10.939Z","response":"2nd","certainty":"high","char":"L","transposition":3,"order":["swapped","shifted"],"probe_pitches":[9,5,0,5,2,7,9,-3],"shifted_pitches":[9,5,0,5,3,7,9,-3],"swapped_pitches":[9,5,0,2,5,7,9,-3],"shift_direction":1,"question_num":101,"has_decoy":false},{"rt":502.29999999701977,"stimulus":"[A] option 1, [L] option 2, [G] neither","key_press":76,"name":"choice","trial_type":"html-keyboard-response","trial_index":131,"time_elapsed":196918,"internal_node_id":"0.0-131.0","subject":"S1C0837","sona":"41762","block":3,"time":"2021-09-18T20:12:10.939Z","response":"2nd","certainty":"high","char":"L","transposition":-3,"order":["swapped","shifted"],"probe_pitches":[-3,1,2,9,7,1,9,-3],"shifted_pitches":[-3,1,2,9,8,1,9,-3],"swapped_pitches":[-3,1,2,7,9,1,9,-3],"shift_direction":1,"question_num":111,"has_decoy":false},{"rt":436.20000000298023,"stimulus":"[A] option 1, [L] option 2, [G] neither","key_press":65,"name":"choice","trial_type":"html-keyboard-response","trial_index":142,"time_elapsed":211980,"internal_node_id":"0.0-142.0","subject":"S1C0837","sona":"41762","block":3,"time":"2021-09-18T20:12:10.939Z","response":"1st","certainty":"high","char":"A","transposition":2,"order":["shifted","swapped"],"probe_pitches":[4,2,0,-3,4,7,2,9],"shifted_pitches":[4,2,0,-4,4,7,2,9],"swapped_pitches":[4,2,0,4,-3,7,2,9],"shift_direction":-1,"question_num":121,"has_decoy":false},{"rt":709.3999999985099,"stimulus":"[A] option 1, [L] option 2, [G] neither","key_press":76,"name":"choice","trial_type":"html-keyboard-response","trial_index":153,"time_elapsed":226848,"internal_node_id":"0.0-153.0","subject":"S1C0837","sona":"41762","block":3,"time":"2021-09-18T20:12:10.939Z","response":"2nd","certainty":"high","char":"L","transposition":-3,"order":["swapped","shifted"],"probe_pitches":[-3,2,-3,4,6,-1,6,9],"shifted_pitches":[-3,2,-3,5,6,-1,6,9],"swapped_pitches":[-3,2,-3,6,4,-1,6,9],"shift_direction":1,"question_num":131,"has_decoy":false},{"rt":1790.2000000029802,"stimulus":"[A] option 1, [L] option 2, [G] neither","key_press":65,"name":"choice","trial_type":"html-keyboard-response","trial_index":164,"time_elapsed":242907,"internal_node_id":"0.0-164.0","subject":"S1C0837","sona":"41762","block":3,"time":"2021-09-18T20:12:10.939Z","response":"1st","certainty":"high","char":"A","transposition":-3,"order":["shifted","swapped"],"probe_pitches":[0,4,-3,4,7,2,9,7],"shifted_pitches":[0,4,-3,4,8,2,9,7],"swapped_pitches":[0,4,-3,7,4,2,9,7],"shift_direction":1,"question_num":141,"has_decoy":false},{"rt":522.1999999992549,"stimulus":"[A] option 1, [L] option 2, [G] neither","key_press":76,"name":"choice","trial_type":"html-keyboard-response","trial_index":175,"time_elapsed":258318,"internal_node_id":"0.0-175.0","subject":"S1C0837","sona":"41762","block":3,"time":"2021-09-18T20:12:10.939Z","response":"2nd","certainty":"high","char":"L","transposition":3,"order":["shifted","swapped"],"probe_pitches":[9,5,7,-1,6,1,4,-2],"shifted_pitches":[9,5,7,0,6,1,4,-2],"swapped_pitches":[9,5,7,6,-1,1,4,-2],"shift_direction":1,"question_num":151,"has_decoy":false},{"rt":344.80000000074506,"stimulus":"[A] option 1, [L] option 2, [G] neither","key_press":65,"name":"choice","trial_type":"html-keyboard-response","trial_index":186,"time_elapsed":273286,"internal_node_id":"0.0-186.0","subject":"S1C0837","sona":"41762","block":3,"time":"2021-09-18T20:12:10.939Z","response":"1st","certainty":"high","char":"A","transposition":-2,"order":["shifted","swapped"],"probe_pitches":[0,-2,-1,5,2,-1,9,1],"shifted_pitches":[0,-2,-1,4,2,-1,9,1],"swapped_pitches":[0,-2,-1,2,5,-1,9,1],"shift_direction":-1,"question_num":161,"has_decoy":false},{"rt":636.6000000014901,"stimulus":"[A] option 1, [L] option 2, [G] neither","key_press":76,"name":"choice","trial_type":"html-keyboard-response","trial_index":197,"time_elapsed":288190,"internal_node_id":"0.0-197.0","subject":"S1C0837","sona":"41762","block":3,"time":"2021-09-18T20:12:10.939Z","response":"2nd","certainty":"high","char":"L","transposition":0,"order":["swapped","shifted"],"probe_pitches":[6,8,2,4,-2,-1,7,8],"shifted_pitches":[6,8,2,5,-2,-1,7,8],"swapped_pitches":[6,8,2,-2,4,-1,7,8],"shift_direction":1,"question_num":171,"has_decoy":false},{"rt":1400.300000000745,"stimulus":"[A] option 1, [L] option 2, [G] neither","key_press":76,"name":"choice","trial_type":"html-keyboard-response","trial_index":208,"time_elapsed":304093,"internal_node_id":"0.0-208.0","subject":"S1C0837","sona":"41762","block":3,"time":"2021-09-18T20:12:10.939Z","response":"2nd","certainty":"high","char":"L","transposition":2,"order":["swapped","shifted"],"probe_pitches":[-1,4,-3,0,2,9,-2,3],"shifted_pitches":[-1,4,-3,0,1,9,-2,3],"swapped_pitches":[-1,4,-3,2,0,9,-2,3],"shift_direction":-1,"question_num":181,"has_decoy":false},{"rt":724.5999999977648,"stimulus":"[A] option 1, [L] option 2, [G] neither","key_press":76,"name":"choice","trial_type":"html-keyboard-response","trial_index":219,"time_elapsed":318886,"internal_node_id":"0.0-219.0","subject":"S1C0837","sona":"41762","block":3,"time":"2021-09-18T20:12:10.939Z","response":"2nd","certainty":"high","char":"L","transposition":0,"order":["swapped","shifted"],"probe_pitches":[-3,-1,4,-3,-1,6,1,9],"shifted_pitches":[-3,-1,4,-3,-2,6,1,9],"swapped_pitches":[-3,-1,4,-1,-3,6,1,9],"shift_direction":-1,"question_num":191,"has_decoy":false}]