[{"rt":4205.199999999255,"stimulus":"[A] option 1, [L] option 2, [G] neither","key_press":65,"name":"choice","trial_type":"html-keyboard-response","trial_index":10,"time_elapsed":23521,"internal_node_id":"0.0-10.0","subject":"S1C0837","sona":"41762","block":2,"time":"2021-09-18T20:04:18.725Z","response":"1st","certainty":"high","char":"A","transposition":-1,"order":["swapped","shifted"],"probe_pitches":[2,0,7,5,2,7,2,10],"shifted_pitches":[2,0,7,4,2,7,2,10],"swapped_pitches":[2,0,7,2,5,7,2,10],"shift_direction":-1,"question_num":1,"has_decoy":false},{"rt":322.8999999985099,"stimulus":"[A] option 1, [L] option 2, [G] neither","key_press":65,"name":"choice","trial_type":"html-keyboard-response","trial_index":21,"time_elapsed":39486,"internal_node_id":"0.0-21.0","subject":"S1C0837","sona":"41762","block":2,"time":"2021-09-18T20:04:18.725Z","response":"1st","certainty":"high","char":"A","transposition":3,"order":["shifted","swapped"],"probe_pitches":[8,10,8,5,0,10,3,5],"shifted_pitches":[8,10,8,4,0,10,3,5],"swapped_pitches":[8,10,8,0,5,10,3,5],"shift_direction":-1,"question_num":11,"has_decoy":false},{"rt":1019.1999999992549,"stimulus":"[A] option 1, [L] option 2, [G] neither","key_press":65,"name":"choice","trial_type":"html-keyboard-response","trial_index":32,"time_elapsed":54714,"internal_node_id":"0.0-32.0","subject":"S1C0837","sona":"41762","block":2,"time":"2021-09-18T20:04:18.725Z","response":"1st","certainty":"high","char":"A","transposition":-3,"order":["shifted","swapped"],"probe_pitches":[11,5,7,8,5,9,10,0],"shifted_pitches":[11,5,7,8,6,9,10,0],"swapped_pitches":[11,5,7,5,8,9,10,0],"shift_direction":1,"question_num":21,"has_decoy":false},{"rt":1677.5999999977648,"stimulus":"[A] option 1, [L] option 2, [G] neither","key_press":65,"name":"choice","trial_type":"html-keyboard-response","trial_index":43,"time_elapsed":71723,"internal_node_id":"0.0-43.0","subject":"S1C0837","sona":"41762","block":2,"time":"2021-09-18T20:04:18.725Z","response":"1st","certainty":"high","char":"A","transposition":-2,"order":["shifted","swapped"],"probe_pitches":[10,8,1,6,-2,3,10,-2],"shifted_pitches":[10,8,1,7,-2,3,10,-2],"swapped_pitches":[10,8,1,-2,6,3,10,-2],"shift_direction":1,"question_num":31,"has_decoy":false},{"rt":1266.8999999985099,"stimulus":"[A] option 1, [L] option 2, [G] neither","key_press":76,"name":"choice","trial_type":"html-keyboard-response","trial_index":54,"time_elapsed":88449,"internal_node_id":"0.0-54.0","subject":"S1C0837","sona":"41762","block":2,"time":"2021-09-18T20:04:18.725Z","response":"2nd","certainty":"high","char":"L","transposition":0,"order":["swapped","shifted"],"probe_pitches":[5,7,3,0,7,3,5,10],"shifted_pitches":[5,7,3,0,8,3,5,10],"swapped_pitches":[5,7,3,7,0,3,5,10],"shift_direction":1,"question_num":41,"has_decoy":false},{"rt":1003.1999999992549,"stimulus":"[A] option 1, [L] option 2, [G] neither","key_press":65,"name":"choice","trial_type":"html-keyboard-response","trial_index":65,"time_elapsed":104517,"internal_node_id":"0.0-65.0","subject":"S1C0837","sona":"41762","block":2,"time":"2021-09-18T20:04:18.725Z","response":"1st","certainty":"high","char":"A","transposition":-1,"order":["shifted","swapped"],"probe_pitches":[0,1,2,8,10,4,0,6],"shifted_pitches":[0,1,2,8,9,4,0,6],"swapped_pitches":[0,1,2,10,8,4,0,6],"shift_direction":-1,"question_num":51,"has_decoy":false},{"rt":1303.7999999970198,"stimulus":"[A] option 1, [L] option 2, [G] neither","key_press":76,"name":"choice","trial_type":"html-keyboard-response","trial_index":76,"time_elapsed":120641,"internal_node_id":"0.0-76.0","subject":"S1C0837","sona":"41762","block":2,"time":"2021-09-18T20:04:18.725Z","response":"2nd","certainty":"high","char":"L","transposition":1,"order":["swapped","shifted"],"probe_pitches":[10,5,-2,5,10,3,7,0],"shifted_pitches":[10,5,-2,5,9,3,7,0],"swapped_pitches":[10,5,-2,10,5,3,7,0],"shift_direction":-1,"question_num":61,"has_decoy":false},{"rt":1297.1000000014901,"stimulus":"[A] option 1, [L] option 2, [G] neither","key_press":65,"name":"choice","trial_type":"html-keyboard-response","trial_index":87,"time_elapsed":138421,"internal_node_id":"0.0-87.0","subject":"S1C0837","sona":"41762","block":2,"time":"2021-09-18T20:04:18.725Z","response":"1st","certainty":"high","char":"A","transposition":-2,"order":["swapped","shifted"],"probe_pitches":[10,9,10,5,7,6,0,2],"shifted_pitches":[10,9,10,4,7,6,0,2],"swapped_pitches":[10,9,10,7,5,6,0,2],"shift_direction":-1,"question_num":71,"has_decoy":false},{"rt":585.1999999992549,"stimulus":"[A] option 1, [L] option 2, [G] neither","key_press":76,"name":"choice","trial_type":"html-keyboard-response","trial_index":98,"time_elapsed":153642,"internal_node_id":"0.0-98.0","subject":"S1C0837","sona":"41762","block":2,"time":"2021-09-18T20:04:18.725Z","response":"2nd","certainty":"high","char":"L","transposition":-1,"order":["shifted","swapped"],"probe_pitches":[8,3,8,0,-2,5,-2,10],"shifted_pitches":[8,3,8,0,-1,5,-2,10],"swapped_pitches":[8,3,8,-2,0,5,-2,10],"shift_direction":1,"question_num":81,"has_decoy":false},{"rt":3141.39999999851,"stimulus":"[A] option 1, [L] option 2, [G] neither","key_press":76,"name":"choice","trial_type":"html-keyboard-response","trial_index":109,"time_elapsed":172131,"internal_node_id":"0.0-109.0","subject":"S1C0837","sona":"41762","block":2,"time":"2021-09-18T20:04:18.725Z","response":"2nd","certainty":"high","char":"L","transposition":-3,"order":["swapped","shifted"],"probe_pitches":[1,5,6,1,3,6,1,8],"shifted_pitches":[1,5,6,2,3,6,1,8],"swapped_pitches":[1,5,6,3,1,6,1,8],"shift_direction":1,"question_num":91,"has_decoy":false},{"rt":2146.89999999851,"stimulus":"[A] option 1, [L] option 2, [G] neither","key_press":65,"name":"choice","trial_type":"html-keyboard-response","trial_index":120,"time_elapsed":190822,"internal_node_id":"0.0-120.0","subject":"S1C0837","sona":"41762","block":2,"time":"2021-09-18T20:04:18.725Z","response":"1st","certainty":"high","char":"A","transposition":-3,"order":["shifted","swapped"],"probe_pitches":[-2,0,7,5,10,7,0,2],"shifted_pitches":[-2,0,7,4,10,7,0,2],"swapped_pitches":[-2,0,7,10,5,7,0,2],"shift_direction":-1,"question_num":101,"has_decoy":false},{"rt":1252,"stimulus":"[A] option 1, [L] option 2, [G] neither","key_press":76,"name":"choice","trial_type":"html-keyboard-response","trial_index":131,"time_elapsed":206428,"internal_node_id":"0.0-131.0","subject":"S1C0837","sona":"41762","block":2,"time":"2021-09-18T20:04:18.725Z","response":"2nd","certainty":"high","char":"L","transposition":-1,"order":["shifted","swapped"],"probe_pitches":[3,8,10,12,6,4,12,2],"shifted_pitches":[3,8,10,12,5,4,12,2],"swapped_pitches":[3,8,10,6,12,4,12,2],"shift_direction":-1,"question_num":111,"has_decoy":false},{"rt":3190.900000002235,"stimulus":"[A] option 1, [L] option 2, [G] neither","key_press":65,"name":"choice","trial_type":"html-keyboard-response","trial_index":142,"time_elapsed":224971,"internal_node_id":"0.0-142.0","subject":"S1C0837","sona":"41762","block":2,"time":"2021-09-18T20:04:18.725Z","response":"1st","certainty":"high","char":"A","transposition":1,"order":["swapped","shifted"],"probe_pitches":[2,8,6,10,3,2,9,6],"shifted_pitches":[2,8,6,11,3,2,9,6],"swapped_pitches":[2,8,6,3,10,2,9,6],"shift_direction":1,"question_num":121,"has_decoy":false},{"rt":2978.699999999255,"stimulus":"[A] option 1, [L] option 2, [G] neither","key_press":65,"name":"choice","trial_type":"html-keyboard-response","trial_index":153,"time_elapsed":242430,"internal_node_id":"0.0-153.0","subject":"S1C0837","sona":"41762","block":2,"time":"2021-09-18T20:04:18.725Z","response":"1st","certainty":"high","char":"A","transposition":-2,"order":["swapped","shifted"],"probe_pitches":[10,7,3,7,10,3,0,1],"shifted_pitches":[10,7,3,8,10,3,0,1],"swapped_pitches":[10,7,3,10,7,3,0,1],"shift_direction":1,"question_num":131,"has_decoy":false},{"rt":580.1000000014901,"stimulus":"[A] option 1, [L] option 2, [G] neither","key_press":76,"name":"choice","trial_type":"html-keyboard-response","trial_index":164,"time_elapsed":258078,"internal_node_id":"0.0-164.0","subject":"S1C0837","sona":"41762","block":2,"time":"2021-09-18T20:04:18.725Z","response":"2nd","certainty":"high","char":"L","transposition":2,"order":["swapped","shifted"],"probe_pitches":[5,3,8,3,5,10,1,3],"shifted_pitches":[5,3,8,3,6,10,1,3],"swapped_pitches":[5,3,8,5,3,10,1,3],"shift_direction":1,"question_num":141,"has_decoy":false},{"rt":1310.2999999970198,"stimulus":"[A] option 1, [L] option 2, [G] neither","key_press":76,"name":"choice","trial_type":"html-keyboard-response","trial_index":175,"time_elapsed":274556,"internal_node_id":"0.0-175.0","subject":"S1C0837","sona":"41762","block":2,"time":"2021-09-18T20:04:18.725Z","response":"2nd","certainty":"high","char":"L","transposition":3,"order":["shifted","swapped"],"probe_pitches":[3,9,8,9,11,7,5,12],"shifted_pitches":[3,9,8,9,10,7,5,12],"swapped_pitches":[3,9,8,11,9,7,5,12],"shift_direction":-1,"question_num":151,"has_decoy":false},{"rt":3306.10000000149,"stimulus":"[A] option 1, [L] option 2, [G] neither","key_press":65,"name":"choice","trial_type":"html-keyboard-response","trial_index":186,"time_elapsed":293695,"internal_node_id":"0.0-186.0","subject":"S1C0837","sona":"41762","block":2,"time":"2021-09-18T20:04:18.725Z","response":"1st","certainty":"high","char":"A","transposition":-3,"order":["shifted","swapped"],"probe_pitches":[1,-2,1,8,3,1,10,6],"shifted_pitches":[1,-2,1,9,3,1,10,6],"swapped_pitches":[1,-2,1,3,8,1,10,6],"shift_direction":1,"question_num":161,"has_decoy":false},{"rt":810.8999999985099,"stimulus":"[A] option 1, [L] option 2, [G] neither","key_press":65,"name":"choice","trial_type":"html-keyboard-response","trial_index":197,"time_elapsed":309594,"internal_node_id":"0.0-197.0","subject":"S1C0837","sona":"41762","block":2,"time":"2021-09-18T20:04:18.725Z","response":"1st","certainty":"high","char":"A","transposition":2,"order":["swapped","shifted"],"probe_pitches":[6,5,8,10,2,8,0,4],"shifted_pitches":[6,5,8,10,3,8,0,4],"swapped_pitches":[6,5,8,2,10,8,0,4],"shift_direction":1,"question_num":171,"has_decoy":false},{"rt":2857,"stimulus":"[A] option 1, [L] option 2, [G] neither","key_press":76,"name":"choice","trial_type":"html-keyboard-response","trial_index":208,"time_elapsed":327735,"internal_node_id":"0.0-208.0","subject":"S1C0837","sona":"41762","block":2,"time":"2021-09-18T20:04:18.725Z","response":"2nd","certainty":"high","char":"L","transposition":-2,"order":["swapped","shifted"],"probe_pitches":[-2,3,5,8,1,-2,1,10],"shifted_pitches":[-2,3,5,8,0,-2,1,10],"swapped_pitches":[-2,3,5,1,8,-2,1,10],"shift_direction":-1,"question_num":181,"has_decoy":false},{"rt":1204.9000000022352,"stimulus":"[A] option 1, [L] option 2, [G] neither","key_press":76,"name":"choice","trial_type":"html-keyboard-response","trial_index":219,"time_elapsed":344373,"internal_node_id":"0.0-219.0","subject":"S1C0837","sona":"41762","block":2,"time":"2021-09-18T20:04:18.725Z","response":"2nd","certainty":"high","char":"L","transposition":0,"order":["shifted","swapped"],"probe_pitches":[5,3,0,8,5,9,2,1],"shifted_pitches":[5,3,0,7,5,9,2,1],"swapped_pitches":[5,3,0,5,8,9,2,1],"shift_direction":-1,"question_num":191,"has_decoy":false}]