[{"rt":867.0999999977648,"stimulus":"[A] option 1, [L] option 2, [G] neither","key_press":65,"name":"choice","trial_type":"html-keyboard-response","trial_index":10,"time_elapsed":70672,"internal_node_id":"0.0-10.0","subject":"S1C0837","sona":"41762","block":6,"time":"2021-09-18T20:36:10.732Z","response":"1st","certainty":"high","char":"A","transposition":-1,"order":["shifted","swapped"],"probe_pitches":[5,0,3,0,5,3,10,8],"shifted_pitches":[5,0,3,0,6,3,10,8],"swapped_pitches":[5,0,3,5,0,3,10,8],"shift_direction":1,"question_num":1,"has_decoy":false},{"rt":924.5999999977648,"stimulus":"[A] option 1, [L] option 2, [G] neither","key_press":76,"name":"choice","trial_type":"html-keyboard-response","trial_index":21,"time_elapsed":86865,"internal_node_id":"0.0-21.0","subject":"S1C0837","sona":"41762","block":6,"time":"2021-09-18T20:36:10.732Z","response":"2nd","certainty":"high","char":"L","transposition":-3,"order":["swapped","shifted"],"probe_pitches":[5,3,5,1,-2,5,8,1],"shifted_pitches":[5,3,5,2,-2,5,8,1],"swapped_pitches":[5,3,5,-2,1,5,8,1],"shift_direction":1,"question_num":11,"has_decoy":false},{"rt":1874.1000000014901,"stimulus":"[A] option 1, [L] option 2, [G] neither","key_press":65,"name":"choice","trial_type":"html-keyboard-response","trial_index":32,"time_elapsed":103377,"internal_node_id":"0.0-32.0","subject":"S1C0837","sona":"41762","block":6,"time":"2021-09-18T20:36:10.732Z","response":"1st","certainty":"high","char":"A","transposition":3,"order":["shifted","swapped"],"probe_pitches":[-2,0,3,10,5,3,10,7],"shifted_pitches":[-2,0,3,10,4,3,10,7],"swapped_pitches":[-2,0,3,5,10,3,10,7],"shift_direction":-1,"question_num":21,"has_decoy":false},{"rt":1958.4000000022352,"stimulus":"[A] option 1, [L] option 2, [G] neither","key_press":65,"name":"choice","trial_type":"html-keyboard-response","trial_index":43,"time_elapsed":120981,"internal_node_id":"0.0-43.0","subject":"S1C0837","sona":"41762","block":6,"time":"2021-09-18T20:36:10.732Z","response":"1st","certainty":"high","char":"A","transposition":2,"order":["swapped","shifted"],"probe_pitches":[3,1,3,1,6,8,6,-2],"shifted_pitches":[3,1,3,0,6,8,6,-2],"swapped_pitches":[3,1,3,6,1,8,6,-2],"shift_direction":-1,"question_num":31,"has_decoy":false},{"rt":797,"stimulus":"[A] option 1, [L] option 2, [G] neither","key_press":65,"name":"choice","trial_type":"html-keyboard-response","trial_index":54,"time_elapsed":136691,"internal_node_id":"0.0-54.0","subject":"S1C0837","sona":"41762","block":6,"time":"2021-09-18T20:36:10.732Z","response":"1st","certainty":"high","char":"A","transposition":-2,"order":["shifted","swapped"],"probe_pitches":[-2,2,5,7,0,10,2,-2],"shifted_pitches":[-2,2,5,8,0,10,2,-2],"swapped_pitches":[-2,2,5,0,7,10,2,-2],"shift_direction":1,"question_num":41,"has_decoy":false},{"rt":4765.400000002235,"stimulus":"[A] option 1, [L] option 2, [G] neither","key_press":76,"name":"choice","trial_type":"html-keyboard-response","trial_index":65,"time_elapsed":185684,"internal_node_id":"0.0-65.0","subject":"S1C0837","sona":"41762","block":6,"time":"2021-09-18T20:36:10.732Z","response":"2nd","certainty":"high","char":"L","transposition":-1,"order":["swapped","shifted"],"probe_pitches":[5,8,3,-2,0,8,3,8],"shifted_pitches":[5,8,3,-2,1,8,3,8],"swapped_pitches":[5,8,3,0,-2,8,3,8],"shift_direction":1,"question_num":51,"has_decoy":false},{"rt":4271,"stimulus":"[A] option 1, [L] option 2, [G] neither","key_press":76,"name":"choice","trial_type":"html-keyboard-response","trial_index":76,"time_elapsed":203995,"internal_node_id":"0.0-76.0","subject":"S1C0837","sona":"41762","block":6,"time":"2021-09-18T20:36:10.732Z","response":"2nd","certainty":"high","char":"L","transposition":0,"order":["swapped","shifted"],"probe_pitches":[11,9,11,8,10,6,3,5],"shifted_pitches":[11,9,11,7,10,6,3,5],"swapped_pitches":[11,9,11,10,8,6,3,5],"shift_direction":-1,"question_num":61,"has_decoy":false},{"rt":3852.300000000745,"stimulus":"[A] option 1, [L] option 2, [G] neither","key_press":65,"name":"choice","trial_type":"html-keyboard-response","trial_index":87,"time_elapsed":223605,"internal_node_id":"0.0-87.0","subject":"S1C0837","sona":"41762","block":6,"time":"2021-09-18T20:36:10.732Z","response":"1st","certainty":"high","char":"A","transposition":3,"order":["swapped","shifted"],"probe_pitches":[2,0,4,5,-1,3,4,5],"shifted_pitches":[2,0,4,6,-1,3,4,5],"swapped_pitches":[2,0,4,-1,5,3,4,5],"shift_direction":1,"question_num":71,"has_decoy":false},{"rt":47129.10000000149,"stimulus":"[A] option 1, [L] option 2, [G] neither","key_press":65,"name":"choice","trial_type":"html-keyboard-response","trial_index":98,"time_elapsed":290083,"internal_node_id":"0.0-98.0","subject":"S1C0837","sona":"41762","block":6,"time":"2021-09-18T20:36:10.732Z","response":"1st","certainty":"high","char":"A","transposition":-3,"order":["shifted","swapped"],"probe_pitches":[3,5,10,5,-2,8,1,8],"shifted_pitches":[3,5,10,6,-2,8,1,8],"swapped_pitches":[3,5,10,-2,5,8,1,8],"shift_direction":1,"question_num":81,"has_decoy":false},{"rt":1403.300000000745,"stimulus":"[A] option 1, [L] option 2, [G] neither","key_press":65,"name":"choice","trial_type":"html-keyboard-response","trial_index":109,"time_elapsed":308155,"internal_node_id":"0.0-109.0","subject":"S1C0837","sona":"41762","block":6,"time":"2021-09-18T20:36:10.732Z","response":"1st","certainty":"high","char":"A","transposition":1,"order":["swapped","shifted"],"probe_pitches":[2,0,5,2,10,7,2,-2],"shifted_pitches":[2,0,5,2,9,7,2,-2],"swapped_pitches":[2,0,5,10,2,7,2,-2],"shift_direction":-1,"question_num":91,"has_decoy":false},{"rt":450.1000000014901,"stimulus":"[A] option 1, [L] option 2, [G] neither","key_press":65,"name":"choice","trial_type":"html-keyboard-response","trial_index":120,"time_elapsed":326222,"internal_node_id":"0.0-120.0","subject":"S1C0837","sona":"41762","block":6,"time":"2021-09-18T20:36:10.732Z","response":"1st","certainty":"high","char":"A","transposition":-2,"order":["shifted","swapped"],"probe_pitches":[-1,3,0,3,9,5,7,8],"shifted_pitches":[-1,3,0,4,9,5,7,8],"swapped_pitches":[-1,3,0,9,3,5,7,8],"shift_direction":1,"question_num":101,"has_decoy":false},{"rt":2547.60000000149,"stimulus":"[A] option 1, [L] option 2, [G] neither","key_press":65,"name":"choice","trial_type":"html-keyboard-response","trial_index":131,"time_elapsed":346442,"internal_node_id":"0.0-131.0","subject":"S1C0837","sona":"41762","block":6,"time":"2021-09-18T20:36:10.732Z","response":"1st","certainty":"high","char":"A","transposition":1,"order":["swapped","shifted"],"probe_pitches":[3,-1,4,1,10,6,8,5],"shifted_pitches":[3,-1,4,2,10,6,8,5],"swapped_pitches":[3,-1,4,10,1,6,8,5],"shift_direction":1,"question_num":111,"has_decoy":false},{"rt":1751.300000000745,"stimulus":"[A] option 1, [L] option 2, [G] neither","key_press":76,"name":"choice","trial_type":"html-keyboard-response","trial_index":142,"time_elapsed":362446,"internal_node_id":"0.0-142.0","subject":"S1C0837","sona":"41762","block":6,"time":"2021-09-18T20:36:10.732Z","response":"2nd","certainty":"high","char":"L","transposition":-3,"order":["shifted","swapped"],"probe_pitches":[11,9,4,7,0,2,6,3],"shifted_pitches":[11,9,4,8,0,2,6,3],"swapped_pitches":[11,9,4,0,7,2,6,3],"shift_direction":1,"question_num":121,"has_decoy":false},{"rt":1850.300000000745,"stimulus":"[A] option 1, [L] option 2, [G] neither","key_press":65,"name":"choice","trial_type":"html-keyboard-response","trial_index":153,"time_elapsed":378659,"internal_node_id":"0.0-153.0","subject":"S1C0837","sona":"41762","block":6,"time":"2021-09-18T20:36:10.732Z","response":"1st","certainty":"high","char":"A","transposition":-1,"order":["shifted","swapped"],"probe_pitches":[9,4,6,4,2,5,9,7],"shifted_pitches":[9,4,6,4,1,5,9,7],"swapped_pitches":[9,4,6,2,4,5,9,7],"shift_direction":-1,"question_num":131,"has_decoy":false},{"rt":2343.599999997765,"stimulus":"[A] option 1, [L] option 2, [G] neither","key_press":65,"name":"choice","trial_type":"html-keyboard-response","trial_index":164,"time_elapsed":400906,"internal_node_id":"0.0-164.0","subject":"S1C0837","sona":"41762","block":6,"time":"2021-09-18T20:36:10.732Z","response":"1st","certainty":"high","char":"A","transposition":-2,"order":["swapped","shifted"],"probe_pitches":[6,10,7,8,4,2,11,6],"shifted_pitches":[6,10,7,8,3,2,11,6],"swapped_pitches":[6,10,7,4,8,2,11,6],"shift_direction":-1,"question_num":141,"has_decoy":false},{"rt":40087.900000002235,"stimulus":"[A] option 1, [L] option 2, [G] neither","key_press":65,"name":"choice","trial_type":"html-keyboard-response","trial_index":175,"time_elapsed":456726,"internal_node_id":"0.0-175.0","subject":"S1C0837","sona":"41762","block":6,"time":"2021-09-18T20:36:10.732Z","response":"1st","certainty":"high","char":"A","transposition":2,"order":["shifted","swapped"],"probe_pitches":[11,6,7,2,10,3,7,5],"shifted_pitches":[11,6,7,2,9,3,7,5],"swapped_pitches":[11,6,7,10,2,3,7,5],"shift_direction":-1,"question_num":151,"has_decoy":false},{"rt":2300.199999999255,"stimulus":"[A] option 1, [L] option 2, [G] neither","key_press":76,"name":"choice","trial_type":"html-keyboard-response","trial_index":186,"time_elapsed":474154,"internal_node_id":"0.0-186.0","subject":"S1C0837","sona":"41762","block":6,"time":"2021-09-18T20:36:10.732Z","response":"2nd","certainty":"high","char":"L","transposition":-1,"order":["shifted","swapped"],"probe_pitches":[0,4,-1,3,11,6,3,0],"shifted_pitches":[0,4,-1,3,10,6,3,0],"swapped_pitches":[0,4,-1,11,3,6,3,0],"shift_direction":-1,"question_num":161,"has_decoy":false},{"rt":8665,"stimulus":"[A] option 1, [L] option 2, [G] neither","key_press":65,"name":"choice","trial_type":"html-keyboard-response","trial_index":197,"time_elapsed":498352,"internal_node_id":"0.0-197.0","subject":"S1C0837","sona":"41762","block":6,"time":"2021-09-18T20:36:10.732Z","response":"1st","certainty":"high","char":"A","transposition":-3,"order":["swapped","shifted"],"probe_pitches":[11,9,6,9,4,1,10,8],"shifted_pitches":[11,9,6,9,5,1,10,8],"swapped_pitches":[11,9,6,4,9,1,10,8],"shift_direction":1,"question_num":171,"has_decoy":false},{"rt":980.0999999977648,"stimulus":"[A] option 1, [L] option 2, [G] neither","key_press":65,"name":"choice","trial_type":"html-keyboard-response","trial_index":208,"time_elapsed":514413,"internal_node_id":"0.0-208.0","subject":"S1C0837","sona":"41762","block":6,"time":"2021-09-18T20:36:10.732Z","response":"1st","certainty":"high","char":"A","transposition":-2,"order":["swapped","shifted"],"probe_pitches":[7,10,5,0,7,10,3,5],"shifted_pitches":[7,10,5,-1,7,10,3,5],"swapped_pitches":[7,10,5,7,0,10,3,5],"shift_direction":-1,"question_num":181,"has_decoy":false},{"rt":1458.4000000022352,"stimulus":"[A] option 1, [L] option 2, [G] neither","key_press":76,"name":"choice","trial_type":"html-keyboard-response","trial_index":219,"time_elapsed":530708,"internal_node_id":"0.0-219.0","subject":"S1C0837","sona":"41762","block":6,"time":"2021-09-18T20:36:10.732Z","response":"2nd","certainty":"high","char":"L","transposition":0,"order":["shifted","swapped"],"probe_pitches":[8,6,10,3,-2,8,1,3],"shifted_pitches":[8,6,10,3,-3,8,1,3],"swapped_pitches":[8,6,10,-2,3,8,1,3],"shift_direction":-1,"question_num":191,"has_decoy":false}]