[{"rt":3552.900000002235,"stimulus":"[A] option 1, [L] option 2, [G] neither","key_press":76,"name":"choice","trial_type":"html-keyboard-response","trial_index":10,"time_elapsed":36413,"internal_node_id":"0.0-10.0","subject":"S1C0837","sona":"41762","block":5,"time":"2021-09-18T20:27:15.784Z","response":"2nd","certainty":"high","char":"L","transposition":1,"order":["shifted","swapped"],"probe_pitches":[2,5,0,5,7,2,-3,9],"shifted_pitches":[2,5,0,5,8,2,-3,9],"swapped_pitches":[2,5,0,7,5,2,-3,9],"shift_direction":1,"question_num":1,"has_decoy":false},{"rt":2210.400000002235,"stimulus":"[A] option 1, [L] option 2, [G] neither","key_press":65,"name":"choice","trial_type":"html-keyboard-response","trial_index":21,"time_elapsed":54930,"internal_node_id":"0.0-21.0","subject":"S1C0837","sona":"41762","block":5,"time":"2021-09-18T20:27:15.784Z","response":"1st","certainty":"high","char":"A","transposition":-2,"order":["shifted","swapped"],"probe_pitches":[3,7,4,6,15,14,15,7],"shifted_pitches":[3,7,4,5,15,14,15,7],"swapped_pitches":[3,7,4,15,6,14,15,7],"shift_direction":-1,"question_num":11,"has_decoy":false},{"rt":1701.300000000745,"stimulus":"[A] option 1, [L] option 2, [G] neither","key_press":76,"name":"choice","trial_type":"html-keyboard-response","trial_index":32,"time_elapsed":70974,"internal_node_id":"0.0-32.0","subject":"S1C0837","sona":"41762","block":5,"time":"2021-09-18T20:27:15.784Z","response":"2nd","certainty":"high","char":"L","transposition":1,"order":["shifted","swapped"],"probe_pitches":[8,12,15,10,13,3,12,14],"shifted_pitches":[8,12,15,11,13,3,12,14],"swapped_pitches":[8,12,15,13,10,3,12,14],"shift_direction":1,"question_num":21,"has_decoy":false},{"rt":360.6000000014901,"stimulus":"[A] option 1, [L] option 2, [G] neither","key_press":65,"name":"choice","trial_type":"html-keyboard-response","trial_index":43,"time_elapsed":101893,"internal_node_id":"0.0-43.0","subject":"S1C0837","sona":"41762","block":5,"time":"2021-09-18T20:27:15.784Z","response":"1st","certainty":"high","char":"A","transposition":0,"order":["shifted","swapped"],"probe_pitches":[9,7,2,-3,-1,4,-3,9],"shifted_pitches":[9,7,2,-3,-2,4,-3,9],"swapped_pitches":[9,7,2,-1,-3,4,-3,9],"shift_direction":-1,"question_num":31,"has_decoy":false},{"rt":813.3000000007451,"stimulus":"[A] option 1, [L] option 2, [G] neither","key_press":76,"name":"choice","trial_type":"html-keyboard-response","trial_index":54,"time_elapsed":140866,"internal_node_id":"0.0-54.0","subject":"S1C0837","sona":"41762","block":5,"time":"2021-09-18T20:27:15.784Z","response":"2nd","certainty":"high","char":"L","transposition":-3,"order":["swapped","shifted"],"probe_pitches":[5,9,7,9,0,2,0,2],"shifted_pitches":[5,9,7,10,0,2,0,2],"swapped_pitches":[5,9,7,0,9,2,0,2],"shift_direction":1,"question_num":41,"has_decoy":false},{"rt":522.0999999977648,"stimulus":"[A] option 1, [L] option 2, [G] neither","key_press":65,"name":"choice","trial_type":"html-keyboard-response","trial_index":65,"time_elapsed":160400,"internal_node_id":"0.0-65.0","subject":"S1C0837","sona":"41762","block":5,"time":"2021-09-18T20:27:15.784Z","response":"1st","certainty":"high","char":"A","transposition":2,"order":["shifted","swapped"],"probe_pitches":[6,9,4,1,6,-1,1,4],"shifted_pitches":[6,9,4,1,7,-1,1,4],"swapped_pitches":[6,9,4,6,1,-1,1,4],"shift_direction":1,"question_num":51,"has_decoy":false},{"rt":528.6999999992549,"stimulus":"[A] option 1, [L] option 2, [G] neither","key_press":76,"name":"choice","trial_type":"html-keyboard-response","trial_index":76,"time_elapsed":175099,"internal_node_id":"0.0-76.0","subject":"S1C0837","sona":"41762","block":5,"time":"2021-09-18T20:27:15.784Z","response":"2nd","certainty":"high","char":"L","transposition":-1,"order":["swapped","shifted"],"probe_pitches":[7,5,3,6,11,12,9,14],"shifted_pitches":[7,5,3,6,10,12,9,14],"swapped_pitches":[7,5,3,11,6,12,9,14],"shift_direction":-1,"question_num":61,"has_decoy":false},{"rt":980.1999999992549,"stimulus":"[A] option 1, [L] option 2, [G] neither","key_press":65,"name":"choice","trial_type":"html-keyboard-response","trial_index":87,"time_elapsed":219390,"internal_node_id":"0.0-87.0","subject":"S1C0837","sona":"41762","block":5,"time":"2021-09-18T20:27:15.784Z","response":"1st","certainty":"high","char":"A","transposition":-2,"order":["shifted","swapped"],"probe_pitches":[0,2,7,4,0,9,7,-3],"shifted_pitches":[0,2,7,4,1,9,7,-3],"swapped_pitches":[0,2,7,0,4,9,7,-3],"shift_direction":1,"question_num":71,"has_decoy":false},{"rt":1381.3999999985099,"stimulus":"[A] option 1, [L] option 2, [G] neither","key_press":76,"name":"choice","trial_type":"html-keyboard-response","trial_index":98,"time_elapsed":249942,"internal_node_id":"0.0-98.0","subject":"S1C0837","sona":"41762","block":5,"time":"2021-09-18T20:27:15.784Z","response":"2nd","certainty":"high","char":"L","transposition":-2,"order":["swapped","shifted"],"probe_pitches":[2,-1,2,4,-1,-3,6,-1],"shifted_pitches":[2,-1,2,5,-1,-3,6,-1],"swapped_pitches":[2,-1,2,-1,4,-3,6,-1],"shift_direction":1,"question_num":81,"has_decoy":false},{"rt":6283.400000002235,"stimulus":"[A] option 1, [L] option 2, [G] neither","key_press":65,"name":"choice","trial_type":"html-keyboard-response","trial_index":109,"time_elapsed":272346,"internal_node_id":"0.0-109.0","subject":"S1C0837","sona":"41762","block":5,"time":"2021-09-18T20:27:15.784Z","response":"1st","certainty":"high","char":"A","transposition":-1,"order":["swapped","shifted"],"probe_pitches":[10,7,12,5,10,7,10,13],"shifted_pitches":[10,7,12,5,9,7,10,13],"swapped_pitches":[10,7,12,10,5,7,10,13],"shift_direction":-1,"question_num":91,"has_decoy":false},{"rt":551,"stimulus":"[A] option 1, [L] option 2, [G] neither","key_press":76,"name":"choice","trial_type":"html-keyboard-response","trial_index":120,"time_elapsed":287545,"internal_node_id":"0.0-120.0","subject":"S1C0837","sona":"41762","block":5,"time":"2021-09-18T20:27:15.784Z","response":"2nd","certainty":"high","char":"L","transposition":-3,"order":["swapped","shifted"],"probe_pitches":[1,-1,4,9,1,-1,6,4],"shifted_pitches":[1,-1,4,8,1,-1,6,4],"swapped_pitches":[1,-1,4,1,9,-1,6,4],"shift_direction":-1,"question_num":101,"has_decoy":false},{"rt":792.3999999985099,"stimulus":"[A] option 1, [L] option 2, [G] neither","key_press":76,"name":"choice","trial_type":"html-keyboard-response","trial_index":131,"time_elapsed":303042,"internal_node_id":"0.0-131.0","subject":"S1C0837","sona":"41762","block":5,"time":"2021-09-18T20:27:15.784Z","response":"2nd","certainty":"high","char":"L","transposition":-3,"order":["shifted","swapped"],"probe_pitches":[10,11,10,13,11,5,6,7],"shifted_pitches":[10,11,10,14,11,5,6,7],"swapped_pitches":[10,11,10,11,13,5,6,7],"shift_direction":1,"question_num":111,"has_decoy":false},{"rt":1178.699999999255,"stimulus":"[A] option 1, [L] option 2, [G] neither","key_press":76,"name":"choice","trial_type":"html-keyboard-response","trial_index":142,"time_elapsed":319077,"internal_node_id":"0.0-142.0","subject":"S1C0837","sona":"41762","block":5,"time":"2021-09-18T20:27:15.784Z","response":"2nd","certainty":"high","char":"L","transposition":2,"order":["shifted","swapped"],"probe_pitches":[9,14,8,14,7,6,4,14],"shifted_pitches":[9,14,8,13,7,6,4,14],"swapped_pitches":[9,14,8,7,14,6,4,14],"shift_direction":-1,"question_num":121,"has_decoy":false},{"rt":10269,"stimulus":"[A] option 1, [L] option 2, [G] neither","key_press":65,"name":"choice","trial_type":"html-keyboard-response","trial_index":153,"time_elapsed":348502,"internal_node_id":"0.0-153.0","subject":"S1C0837","sona":"41762","block":5,"time":"2021-09-18T20:27:15.784Z","response":"1st","certainty":"high","char":"A","transposition":3,"order":["swapped","shifted"],"probe_pitches":[7,5,6,7,10,12,7,9],"shifted_pitches":[7,5,6,8,10,12,7,9],"swapped_pitches":[7,5,6,10,7,12,7,9],"shift_direction":1,"question_num":131,"has_decoy":false},{"rt":481.5,"stimulus":"[A] option 1, [L] option 2, [G] neither","key_press":76,"name":"choice","trial_type":"html-keyboard-response","trial_index":164,"time_elapsed":378376,"internal_node_id":"0.0-164.0","subject":"S1C0837","sona":"41762","block":5,"time":"2021-09-18T20:27:15.784Z","response":"2nd","certainty":"high","char":"L","transposition":0,"order":["swapped","shifted"],"probe_pitches":[4,3,9,7,5,11,10,15],"shifted_pitches":[4,3,9,7,6,11,10,15],"swapped_pitches":[4,3,9,5,7,11,10,15],"shift_direction":1,"question_num":141,"has_decoy":false},{"rt":2169.5,"stimulus":"[A] option 1, [L] option 2, [G] neither","key_press":65,"name":"choice","trial_type":"html-keyboard-response","trial_index":175,"time_elapsed":394949,"internal_node_id":"0.0-175.0","subject":"S1C0837","sona":"41762","block":5,"time":"2021-09-18T20:27:15.784Z","response":"1st","certainty":"high","char":"A","transposition":-3,"order":["swapped","shifted"],"probe_pitches":[13,14,15,11,8,14,13,9],"shifted_pitches":[13,14,15,11,7,14,13,9],"swapped_pitches":[13,14,15,8,11,14,13,9],"shift_direction":-1,"question_num":151,"has_decoy":false},{"rt":3342.89999999851,"stimulus":"[A] option 1, [L] option 2, [G] neither","key_press":65,"name":"choice","trial_type":"html-keyboard-response","trial_index":186,"time_elapsed":413405,"internal_node_id":"0.0-186.0","subject":"S1C0837","sona":"41762","block":5,"time":"2021-09-18T20:27:15.784Z","response":"1st","certainty":"high","char":"A","transposition":-1,"order":["swapped","shifted"],"probe_pitches":[0,2,4,7,2,4,9,4],"shifted_pitches":[0,2,4,6,2,4,9,4],"swapped_pitches":[0,2,4,2,7,4,9,4],"shift_direction":-1,"question_num":161,"has_decoy":false},{"rt":488.19999999925494,"stimulus":"[A] option 1, [L] option 2, [G] neither","key_press":76,"name":"choice","trial_type":"html-keyboard-response","trial_index":197,"time_elapsed":427971,"internal_node_id":"0.0-197.0","subject":"S1C0837","sona":"41762","block":5,"time":"2021-09-18T20:27:15.784Z","response":"2nd","certainty":"high","char":"L","transposition":3,"order":["swapped","shifted"],"probe_pitches":[2,7,4,2,-1,-3,2,7],"shifted_pitches":[2,7,4,1,-1,-3,2,7],"swapped_pitches":[2,7,4,-1,2,-3,2,7],"shift_direction":-1,"question_num":171,"has_decoy":false},{"rt":1134.6000000014901,"stimulus":"[A] option 1, [L] option 2, [G] neither","key_press":65,"name":"choice","trial_type":"html-keyboard-response","trial_index":208,"time_elapsed":444464,"internal_node_id":"0.0-208.0","subject":"S1C0837","sona":"41762","block":5,"time":"2021-09-18T20:27:15.784Z","response":"1st","certainty":"high","char":"A","transposition":-2,"order":["shifted","swapped"],"probe_pitches":[11,7,9,10,11,4,7,9],"shifted_pitches":[11,7,9,10,12,4,7,9],"swapped_pitches":[11,7,9,11,10,4,7,9],"shift_direction":1,"question_num":181,"has_decoy":false},{"rt":3070.800000000745,"stimulus":"[A] option 1, [L] option 2, [G] neither","key_press":65,"name":"choice","trial_type":"html-keyboard-response","trial_index":219,"time_elapsed":462269,"internal_node_id":"0.0-219.0","subject":"S1C0837","sona":"41762","block":5,"time":"2021-09-18T20:27:15.784Z","response":"1st","certainty":"high","char":"A","transposition":-1,"order":["shifted","swapped"],"probe_pitches":[2,6,9,4,6,9,4,-1],"shifted_pitches":[2,6,9,4,5,9,4,-1],"swapped_pitches":[2,6,9,6,4,9,4,-1],"shift_direction":-1,"question_num":191,"has_decoy":false}]