[{"rt":1197.0999999940395,"stimulus":"[A] option 1, [L] option 2, [G] neither","key_press":65,"name":"choice","trial_type":"html-keyboard-response","trial_index":10,"time_elapsed":17913,"internal_node_id":"0.0-10.0","subject":"S1C0835","sona":"41825","block":3,"time":"2021-09-18T16:36:10.561Z","response":"1st","certainty":"high","char":"A","transposition":3,"order":["swapped","shifted"],"probe_pitches":[6,8,1,3,10,1,3,8],"shifted_pitches":[6,8,1,3,11,1,3,8],"swapped_pitches":[6,8,1,10,3,1,3,8],"shift_direction":1,"question_num":1,"has_decoy":false},{"rt":221.09999999403954,"stimulus":"[A] option 1, [L] option 2, [G] neither","key_press":76,"name":"choice","trial_type":"html-keyboard-response","trial_index":21,"time_elapsed":32969,"internal_node_id":"0.0-21.0","subject":"S1C0835","sona":"41825","block":3,"time":"2021-09-18T16:36:10.561Z","response":"2nd","certainty":"high","char":"L","transposition":1,"order":["swapped","shifted"],"probe_pitches":[-2,0,7,5,0,2,0,-2],"shifted_pitches":[-2,0,7,4,0,2,0,-2],"swapped_pitches":[-2,0,7,0,5,2,0,-2],"shift_direction":-1,"question_num":11,"has_decoy":false},{"rt":445.2999999821186,"stimulus":"[A] option 1, [L] option 2, [G] neither","key_press":76,"name":"choice","trial_type":"html-keyboard-response","trial_index":32,"time_elapsed":48121,"internal_node_id":"0.0-32.0","subject":"S1C0835","sona":"41825","block":3,"time":"2021-09-18T16:36:10.561Z","response":"2nd","certainty":"high","char":"L","transposition":1,"order":["shifted","swapped"],"probe_pitches":[10,11,7,1,10,5,8,10],"shifted_pitches":[10,11,7,0,10,5,8,10],"swapped_pitches":[10,11,7,10,1,5,8,10],"shift_direction":-1,"question_num":21,"has_decoy":false},{"rt":311.90000000596046,"stimulus":"[A] option 1, [L] option 2, [G] neither","key_press":65,"name":"choice","trial_type":"html-keyboard-response","trial_index":43,"time_elapsed":62969,"internal_node_id":"0.0-43.0","subject":"S1C0835","sona":"41825","block":3,"time":"2021-09-18T16:36:10.561Z","response":"1st","certainty":"high","char":"A","transposition":-1,"order":["shifted","swapped"],"probe_pitches":[5,3,5,8,10,3,1,10],"shifted_pitches":[5,3,5,8,9,3,1,10],"swapped_pitches":[5,3,5,10,8,3,1,10],"shift_direction":-1,"question_num":31,"has_decoy":false},{"rt":311.69999998807907,"stimulus":"[A] option 1, [L] option 2, [G] neither","key_press":76,"name":"choice","trial_type":"html-keyboard-response","trial_index":54,"time_elapsed":77721,"internal_node_id":"0.0-54.0","subject":"S1C0835","sona":"41825","block":3,"time":"2021-09-18T16:36:10.561Z","response":"2nd","certainty":"high","char":"L","transposition":0,"order":["swapped","shifted"],"probe_pitches":[5,0,3,5,0,-2,8,10],"shifted_pitches":[5,0,3,5,-1,-2,8,10],"swapped_pitches":[5,0,3,0,5,-2,8,10],"shift_direction":-1,"question_num":41,"has_decoy":false},{"rt":535.8000000119209,"stimulus":"[A] option 1, [L] option 2, [G] neither","key_press":65,"name":"choice","trial_type":"html-keyboard-response","trial_index":65,"time_elapsed":93129,"internal_node_id":"0.0-65.0","subject":"S1C0835","sona":"41825","block":3,"time":"2021-09-18T16:36:10.561Z","response":"1st","certainty":"high","char":"A","transposition":-3,"order":["swapped","shifted"],"probe_pitches":[3,6,1,8,3,6,-2,6],"shifted_pitches":[3,6,1,8,4,6,-2,6],"swapped_pitches":[3,6,1,3,8,6,-2,6],"shift_direction":1,"question_num":51,"has_decoy":false},{"rt":695.6999999880791,"stimulus":"[A] option 1, [L] option 2, [G] neither","key_press":65,"name":"choice","trial_type":"html-keyboard-response","trial_index":76,"time_elapsed":108168,"internal_node_id":"0.0-76.0","subject":"S1C0835","sona":"41825","block":3,"time":"2021-09-18T16:36:10.561Z","response":"1st","certainty":"high","char":"A","transposition":-2,"order":["swapped","shifted"],"probe_pitches":[2,1,8,5,9,8,12,4],"shifted_pitches":[2,1,8,6,9,8,12,4],"swapped_pitches":[2,1,8,9,5,8,12,4],"shift_direction":1,"question_num":61,"has_decoy":false},{"rt":754.5,"stimulus":"[A] option 1, [L] option 2, [G] neither","key_press":65,"name":"choice","trial_type":"html-keyboard-response","trial_index":87,"time_elapsed":123240,"internal_node_id":"0.0-87.0","subject":"S1C0835","sona":"41825","block":3,"time":"2021-09-18T16:36:10.561Z","response":"1st","certainty":"high","char":"A","transposition":-1,"order":["shifted","swapped"],"probe_pitches":[8,3,10,3,5,1,-2,3],"shifted_pitches":[8,3,10,4,5,1,-2,3],"swapped_pitches":[8,3,10,5,3,1,-2,3],"shift_direction":1,"question_num":71,"has_decoy":false},{"rt":6007.9000000059605,"stimulus":"[A] option 1, [L] option 2, [G] neither","key_press":65,"name":"choice","trial_type":"html-keyboard-response","trial_index":98,"time_elapsed":143560,"internal_node_id":"0.0-98.0","subject":"S1C0835","sona":"41825","block":3,"time":"2021-09-18T16:36:10.561Z","response":"1st","certainty":"high","char":"A","transposition":0,"order":["swapped","shifted"],"probe_pitches":[2,1,8,4,6,13,10,13],"shifted_pitches":[2,1,8,4,5,13,10,13],"swapped_pitches":[2,1,8,6,4,13,10,13],"shift_direction":-1,"question_num":81,"has_decoy":false},{"rt":429.09999999403954,"stimulus":"[A] option 1, [L] option 2, [G] neither","key_press":76,"name":"choice","trial_type":"html-keyboard-response","trial_index":109,"time_elapsed":160920,"internal_node_id":"0.0-109.0","subject":"S1C0835","sona":"41825","block":3,"time":"2021-09-18T16:36:10.561Z","response":"2nd","certainty":"high","char":"L","transposition":-3,"order":["shifted","swapped"],"probe_pitches":[9,8,7,10,13,8,4,3],"shifted_pitches":[9,8,7,11,13,8,4,3],"swapped_pitches":[9,8,7,13,10,8,4,3],"shift_direction":1,"question_num":91,"has_decoy":false},{"rt":333,"stimulus":"[A] option 1, [L] option 2, [G] neither","key_press":76,"name":"choice","trial_type":"html-keyboard-response","trial_index":120,"time_elapsed":175496,"internal_node_id":"0.0-120.0","subject":"S1C0835","sona":"41825","block":3,"time":"2021-09-18T16:36:10.561Z","response":"2nd","certainty":"high","char":"L","transposition":-2,"order":["shifted","swapped"],"probe_pitches":[3,-2,3,0,-2,7,5,0],"shifted_pitches":[3,-2,3,-1,-2,7,5,0],"swapped_pitches":[3,-2,3,-2,0,7,5,0],"shift_direction":-1,"question_num":101,"has_decoy":false},{"rt":311.69999998807907,"stimulus":"[A] option 1, [L] option 2, [G] neither","key_press":76,"name":"choice","trial_type":"html-keyboard-response","trial_index":131,"time_elapsed":190167,"internal_node_id":"0.0-131.0","subject":"S1C0835","sona":"41825","block":3,"time":"2021-09-18T16:36:10.561Z","response":"2nd","certainty":"high","char":"L","transposition":-2,"order":["swapped","shifted"],"probe_pitches":[4,6,2,6,11,1,7,12],"shifted_pitches":[4,6,2,6,10,1,7,12],"swapped_pitches":[4,6,2,11,6,1,7,12],"shift_direction":-1,"question_num":111,"has_decoy":false},{"rt":519.7999999821186,"stimulus":"[A] option 1, [L] option 2, [G] neither","key_press":65,"name":"choice","trial_type":"html-keyboard-response","trial_index":142,"time_elapsed":205031,"internal_node_id":"0.0-142.0","subject":"S1C0835","sona":"41825","block":3,"time":"2021-09-18T16:36:10.561Z","response":"1st","certainty":"high","char":"A","transposition":2,"order":["shifted","swapped"],"probe_pitches":[-2,0,-2,3,10,8,5,3],"shifted_pitches":[-2,0,-2,3,11,8,5,3],"swapped_pitches":[-2,0,-2,10,3,8,5,3],"shift_direction":1,"question_num":121,"has_decoy":false},{"rt":279.69999998807907,"stimulus":"[A] option 1, [L] option 2, [G] neither","key_press":76,"name":"choice","trial_type":"html-keyboard-response","trial_index":153,"time_elapsed":219591,"internal_node_id":"0.0-153.0","subject":"S1C0835","sona":"41825","block":3,"time":"2021-09-18T16:36:10.561Z","response":"2nd","certainty":"high","char":"L","transposition":-1,"order":["swapped","shifted"],"probe_pitches":[4,5,3,4,9,13,5,11],"shifted_pitches":[4,5,3,4,8,13,5,11],"swapped_pitches":[4,5,3,9,4,13,5,11],"shift_direction":-1,"question_num":131,"has_decoy":false},{"rt":461,"stimulus":"[A] option 1, [L] option 2, [G] neither","key_press":76,"name":"choice","trial_type":"html-keyboard-response","trial_index":164,"time_elapsed":234535,"internal_node_id":"0.0-164.0","subject":"S1C0835","sona":"41825","block":3,"time":"2021-09-18T16:36:10.561Z","response":"2nd","certainty":"high","char":"L","transposition":3,"order":["shifted","swapped"],"probe_pitches":[3,6,8,6,13,9,12,4],"shifted_pitches":[3,6,8,7,13,9,12,4],"swapped_pitches":[3,6,8,13,6,9,12,4],"shift_direction":1,"question_num":141,"has_decoy":false},{"rt":2781.300000011921,"stimulus":"[A] option 1, [L] option 2, [G] neither","key_press":65,"name":"choice","trial_type":"html-keyboard-response","trial_index":175,"time_elapsed":265414,"internal_node_id":"0.0-175.0","subject":"S1C0835","sona":"41825","block":3,"time":"2021-09-18T16:36:10.561Z","response":"1st","certainty":"high","char":"A","transposition":-2,"order":["swapped","shifted"],"probe_pitches":[0,5,0,2,7,10,5,-2],"shifted_pitches":[0,5,0,3,7,10,5,-2],"swapped_pitches":[0,5,0,7,2,10,5,-2],"shift_direction":1,"question_num":151,"has_decoy":false},{"rt":3607.7999999821186,"stimulus":"[A] option 1, [L] option 2, [G] neither","key_press":76,"name":"choice","trial_type":"html-keyboard-response","trial_index":186,"time_elapsed":283398,"internal_node_id":"0.0-186.0","subject":"S1C0835","sona":"41825","block":3,"time":"2021-09-18T16:36:10.561Z","response":"2nd","certainty":"high","char":"L","transposition":-3,"order":["shifted","swapped"],"probe_pitches":[6,12,13,10,2,12,13,7],"shifted_pitches":[6,12,13,10,3,12,13,7],"swapped_pitches":[6,12,13,2,10,12,13,7],"shift_direction":1,"question_num":161,"has_decoy":false},{"rt":1303.9000000059605,"stimulus":"[A] option 1, [L] option 2, [G] neither","key_press":65,"name":"choice","trial_type":"html-keyboard-response","trial_index":197,"time_elapsed":299126,"internal_node_id":"0.0-197.0","subject":"S1C0835","sona":"41825","block":3,"time":"2021-09-18T16:36:10.561Z","response":"1st","certainty":"high","char":"A","transposition":-1,"order":["swapped","shifted"],"probe_pitches":[6,5,8,10,2,3,11,10],"shifted_pitches":[6,5,8,9,2,3,11,10],"swapped_pitches":[6,5,8,2,10,3,11,10],"shift_direction":-1,"question_num":171,"has_decoy":false},{"rt":365.19999998807907,"stimulus":"[A] option 1, [L] option 2, [G] neither","key_press":76,"name":"choice","trial_type":"html-keyboard-response","trial_index":208,"time_elapsed":313782,"internal_node_id":"0.0-208.0","subject":"S1C0835","sona":"41825","block":3,"time":"2021-09-18T16:36:10.561Z","response":"2nd","certainty":"high","char":"L","transposition":2,"order":["shifted","swapped"],"probe_pitches":[6,10,11,12,3,2,11,12],"shifted_pitches":[6,10,11,12,4,2,11,12],"swapped_pitches":[6,10,11,3,12,2,11,12],"shift_direction":1,"question_num":181,"has_decoy":false},{"rt":365.09999999403954,"stimulus":"[A] option 1, [L] option 2, [G] neither","key_press":76,"name":"choice","trial_type":"html-keyboard-response","trial_index":219,"time_elapsed":329734,"internal_node_id":"0.0-219.0","subject":"S1C0835","sona":"41825","block":3,"time":"2021-09-18T16:36:10.561Z","response":"2nd","certainty":"high","char":"L","transposition":-3,"order":["shifted","swapped"],"probe_pitches":[-2,3,5,10,7,0,5,-2],"shifted_pitches":[-2,3,5,9,7,0,5,-2],"swapped_pitches":[-2,3,5,7,10,0,5,-2],"shift_direction":-1,"question_num":191,"has_decoy":false}]