[{"rt":398.09999999403954,"stimulus":"[A] option 1, [L] option 2, [G] neither","key_press":65,"name":"choice","trial_type":"html-keyboard-response","trial_index":10,"time_elapsed":133663,"internal_node_id":"0.0-10.0","subject":"S1C0835","sona":"41825","block":5,"time":"2021-09-18T16:49:44.074Z","response":"1st","certainty":"high","char":"A","transposition":-2,"order":["shifted","swapped"],"probe_pitches":[5,3,10,7,5,10,12,10],"shifted_pitches":[5,3,10,7,6,10,12,10],"swapped_pitches":[5,3,10,5,7,10,12,10],"shift_direction":1,"question_num":1,"has_decoy":false},{"rt":2654.699999988079,"stimulus":"[A] option 1, [L] option 2, [G] neither","key_press":65,"name":"choice","trial_type":"html-keyboard-response","trial_index":21,"time_elapsed":150655,"internal_node_id":"0.0-21.0","subject":"S1C0835","sona":"41825","block":5,"time":"2021-09-18T16:49:44.074Z","response":"1st","certainty":"high","char":"A","transposition":0,"order":["swapped","shifted"],"probe_pitches":[0,4,8,4,-1,0,-1,1],"shifted_pitches":[0,4,8,5,-1,0,-1,1],"swapped_pitches":[0,4,8,-1,4,0,-1,1],"shift_direction":1,"question_num":11,"has_decoy":false},{"rt":4062.7999999821186,"stimulus":"[A] option 1, [L] option 2, [G] neither","key_press":76,"name":"choice","trial_type":"html-keyboard-response","trial_index":32,"time_elapsed":169311,"internal_node_id":"0.0-32.0","subject":"S1C0835","sona":"41825","block":5,"time":"2021-09-18T16:49:44.074Z","response":"2nd","certainty":"high","char":"L","transposition":1,"order":["swapped","shifted"],"probe_pitches":[8,3,8,13,11,8,3,6],"shifted_pitches":[8,3,8,14,11,8,3,6],"swapped_pitches":[8,3,8,11,13,8,3,6],"shift_direction":1,"question_num":21,"has_decoy":false},{"rt":2441.300000011921,"stimulus":"[A] option 1, [L] option 2, [G] neither","key_press":76,"name":"choice","trial_type":"html-keyboard-response","trial_index":43,"time_elapsed":186175,"internal_node_id":"0.0-43.0","subject":"S1C0835","sona":"41825","block":5,"time":"2021-09-18T16:49:44.074Z","response":"2nd","certainty":"high","char":"L","transposition":-1,"order":["shifted","swapped"],"probe_pitches":[5,-1,6,2,8,4,1,4],"shifted_pitches":[5,-1,6,2,7,4,1,4],"swapped_pitches":[5,-1,6,8,2,4,1,4],"shift_direction":-1,"question_num":31,"has_decoy":false},{"rt":2558.699999988079,"stimulus":"[A] option 1, [L] option 2, [G] neither","key_press":76,"name":"choice","trial_type":"html-keyboard-response","trial_index":54,"time_elapsed":206414,"internal_node_id":"0.0-54.0","subject":"S1C0835","sona":"41825","block":5,"time":"2021-09-18T16:49:44.074Z","response":"2nd","certainty":"high","char":"L","transposition":2,"order":["shifted","swapped"],"probe_pitches":[7,9,8,9,0,-1,0,6],"shifted_pitches":[7,9,8,9,1,-1,0,6],"swapped_pitches":[7,9,8,0,9,-1,0,6],"shift_direction":1,"question_num":41,"has_decoy":false},{"rt":297.30000001192093,"stimulus":"[A] option 1, [L] option 2, [G] neither","key_press":76,"name":"choice","trial_type":"html-keyboard-response","trial_index":65,"time_elapsed":220846,"internal_node_id":"0.0-65.0","subject":"S1C0835","sona":"41825","block":5,"time":"2021-09-18T16:49:44.074Z","response":"2nd","certainty":"high","char":"L","transposition":-3,"order":["swapped","shifted"],"probe_pitches":[6,3,8,13,11,8,15,6],"shifted_pitches":[6,3,8,14,11,8,15,6],"swapped_pitches":[6,3,8,11,13,8,15,6],"shift_direction":1,"question_num":51,"has_decoy":false},{"rt":361.40000000596046,"stimulus":"[A] option 1, [L] option 2, [G] neither","key_press":76,"name":"choice","trial_type":"html-keyboard-response","trial_index":76,"time_elapsed":235614,"internal_node_id":"0.0-76.0","subject":"S1C0835","sona":"41825","block":5,"time":"2021-09-18T16:49:44.074Z","response":"2nd","certainty":"high","char":"L","transposition":3,"order":["shifted","swapped"],"probe_pitches":[13,15,10,15,13,8,5,8],"shifted_pitches":[13,15,10,16,13,8,5,8],"swapped_pitches":[13,15,10,13,15,8,5,8],"shift_direction":1,"question_num":61,"has_decoy":false},{"rt":937.5,"stimulus":"[A] option 1, [L] option 2, [G] neither","key_press":65,"name":"choice","trial_type":"html-keyboard-response","trial_index":87,"time_elapsed":251902,"internal_node_id":"0.0-87.0","subject":"S1C0835","sona":"41825","block":5,"time":"2021-09-18T16:49:44.074Z","response":"1st","certainty":"high","char":"A","transposition":1,"order":["swapped","shifted"],"probe_pitches":[3,5,9,8,1,5,11,-1],"shifted_pitches":[3,5,9,8,2,5,11,-1],"swapped_pitches":[3,5,9,1,8,5,11,-1],"shift_direction":1,"question_num":71,"has_decoy":false},{"rt":1790.800000011921,"stimulus":"[A] option 1, [L] option 2, [G] neither","key_press":65,"name":"choice","trial_type":"html-keyboard-response","trial_index":98,"time_elapsed":268126,"internal_node_id":"0.0-98.0","subject":"S1C0835","sona":"41825","block":5,"time":"2021-09-18T16:49:44.074Z","response":"1st","certainty":"high","char":"A","transposition":2,"order":["shifted","swapped"],"probe_pitches":[13,15,8,3,10,15,10,6],"shifted_pitches":[13,15,8,3,9,15,10,6],"swapped_pitches":[13,15,8,10,3,15,10,6],"shift_direction":-1,"question_num":81,"has_decoy":false},{"rt":33097.40000000596,"stimulus":"[A] option 1, [L] option 2, [G] neither","key_press":65,"name":"choice","trial_type":"html-keyboard-response","trial_index":109,"time_elapsed":316829,"internal_node_id":"0.0-109.0","subject":"S1C0835","sona":"41825","block":5,"time":"2021-09-18T16:49:44.074Z","response":"1st","certainty":"high","char":"A","transposition":-2,"order":["shifted","swapped"],"probe_pitches":[3,0,7,10,5,3,7,8],"shifted_pitches":[3,0,7,9,5,3,7,8],"swapped_pitches":[3,0,7,5,10,3,7,8],"shift_direction":-1,"question_num":91,"has_decoy":false},{"rt":249.39999997615814,"stimulus":"[A] option 1, [L] option 2, [G] neither","key_press":76,"name":"choice","trial_type":"html-keyboard-response","trial_index":120,"time_elapsed":334269,"internal_node_id":"0.0-120.0","subject":"S1C0835","sona":"41825","block":5,"time":"2021-09-18T16:49:44.074Z","response":"2nd","certainty":"high","char":"L","transposition":-3,"order":["swapped","shifted"],"probe_pitches":[5,6,10,4,-1,2,8,5],"shifted_pitches":[5,6,10,3,-1,2,8,5],"swapped_pitches":[5,6,10,-1,4,2,8,5],"shift_direction":-1,"question_num":101,"has_decoy":false},{"rt":601.0999999940395,"stimulus":"[A] option 1, [L] option 2, [G] neither","key_press":76,"name":"choice","trial_type":"html-keyboard-response","trial_index":131,"time_elapsed":349197,"internal_node_id":"0.0-131.0","subject":"S1C0835","sona":"41825","block":5,"time":"2021-09-18T16:49:44.074Z","response":"2nd","certainty":"high","char":"L","transposition":-1,"order":["shifted","swapped"],"probe_pitches":[5,10,8,13,15,5,13,3],"shifted_pitches":[5,10,8,14,15,5,13,3],"swapped_pitches":[5,10,8,15,13,5,13,3],"shift_direction":1,"question_num":111,"has_decoy":false},{"rt":393.5,"stimulus":"[A] option 1, [L] option 2, [G] neither","key_press":76,"name":"choice","trial_type":"html-keyboard-response","trial_index":142,"time_elapsed":366013,"internal_node_id":"0.0-142.0","subject":"S1C0835","sona":"41825","block":5,"time":"2021-09-18T16:49:44.074Z","response":"2nd","certainty":"high","char":"L","transposition":-2,"order":["shifted","swapped"],"probe_pitches":[10,5,2,9,7,3,0,-1],"shifted_pitches":[10,5,2,9,8,3,0,-1],"swapped_pitches":[10,5,2,7,9,3,0,-1],"shift_direction":1,"question_num":121,"has_decoy":false},{"rt":1193.8999999761581,"stimulus":"[A] option 1, [L] option 2, [G] neither","key_press":76,"name":"choice","trial_type":"html-keyboard-response","trial_index":153,"time_elapsed":382493,"internal_node_id":"0.0-153.0","subject":"S1C0835","sona":"41825","block":5,"time":"2021-09-18T16:49:44.074Z","response":"2nd","certainty":"high","char":"L","transposition":-1,"order":["shifted","swapped"],"probe_pitches":[8,11,8,3,9,10,8,5],"shifted_pitches":[8,11,8,4,9,10,8,5],"swapped_pitches":[8,11,8,9,3,10,8,5],"shift_direction":1,"question_num":131,"has_decoy":false},{"rt":430.69999998807907,"stimulus":"[A] option 1, [L] option 2, [G] neither","key_press":76,"name":"choice","trial_type":"html-keyboard-response","trial_index":164,"time_elapsed":397548,"internal_node_id":"0.0-164.0","subject":"S1C0835","sona":"41825","block":5,"time":"2021-09-18T16:49:44.074Z","response":"2nd","certainty":"high","char":"L","transposition":0,"order":["swapped","shifted"],"probe_pitches":[12,8,5,8,12,3,10,5],"shifted_pitches":[12,8,5,8,11,3,10,5],"swapped_pitches":[12,8,5,12,8,3,10,5],"shift_direction":-1,"question_num":141,"has_decoy":false},{"rt":329.40000000596046,"stimulus":"[A] option 1, [L] option 2, [G] neither","key_press":65,"name":"choice","trial_type":"html-keyboard-response","trial_index":175,"time_elapsed":412204,"internal_node_id":"0.0-175.0","subject":"S1C0835","sona":"41825","block":5,"time":"2021-09-18T16:49:44.074Z","response":"1st","certainty":"high","char":"A","transposition":-3,"order":["swapped","shifted"],"probe_pitches":[11,7,11,10,7,2,3,0],"shifted_pitches":[11,7,11,10,6,2,3,0],"swapped_pitches":[11,7,11,7,10,2,3,0],"shift_direction":-1,"question_num":151,"has_decoy":false},{"rt":809.4000000059605,"stimulus":"[A] option 1, [L] option 2, [G] neither","key_press":65,"name":"choice","trial_type":"html-keyboard-response","trial_index":186,"time_elapsed":427308,"internal_node_id":"0.0-186.0","subject":"S1C0835","sona":"41825","block":5,"time":"2021-09-18T16:49:44.074Z","response":"1st","certainty":"high","char":"A","transposition":-2,"order":["shifted","swapped"],"probe_pitches":[3,5,10,7,3,12,5,15],"shifted_pitches":[3,5,10,7,2,12,5,15],"swapped_pitches":[3,5,10,3,7,12,5,15],"shift_direction":-1,"question_num":161,"has_decoy":false},{"rt":505.30000001192093,"stimulus":"[A] option 1, [L] option 2, [G] neither","key_press":76,"name":"choice","trial_type":"html-keyboard-response","trial_index":197,"time_elapsed":442268,"internal_node_id":"0.0-197.0","subject":"S1C0835","sona":"41825","block":5,"time":"2021-09-18T16:49:44.074Z","response":"2nd","certainty":"high","char":"L","transposition":-1,"order":["swapped","shifted"],"probe_pitches":[6,8,10,8,3,13,8,3],"shifted_pitches":[6,8,10,8,2,13,8,3],"swapped_pitches":[6,8,10,3,8,13,8,3],"shift_direction":-1,"question_num":171,"has_decoy":false},{"rt":441.39999997615814,"stimulus":"[A] option 1, [L] option 2, [G] neither","key_press":76,"name":"choice","trial_type":"html-keyboard-response","trial_index":208,"time_elapsed":457004,"internal_node_id":"0.0-208.0","subject":"S1C0835","sona":"41825","block":5,"time":"2021-09-18T16:49:44.074Z","response":"2nd","certainty":"high","char":"L","transposition":3,"order":["swapped","shifted"],"probe_pitches":[1,5,2,-1,3,4,9,0],"shifted_pitches":[1,5,2,-2,3,4,9,0],"swapped_pitches":[1,5,2,3,-1,4,9,0],"shift_direction":-1,"question_num":181,"has_decoy":false},{"rt":729.3000000119209,"stimulus":"[A] option 1, [L] option 2, [G] neither","key_press":76,"name":"choice","trial_type":"html-keyboard-response","trial_index":219,"time_elapsed":472203,"internal_node_id":"0.0-219.0","subject":"S1C0835","sona":"41825","block":5,"time":"2021-09-18T16:49:44.074Z","response":"2nd","certainty":"high","char":"L","transposition":-3,"order":["swapped","shifted"],"probe_pitches":[12,10,3,8,10,15,5,15],"shifted_pitches":[12,10,3,7,10,15,5,15],"swapped_pitches":[12,10,3,10,8,15,5,15],"shift_direction":-1,"question_num":191,"has_decoy":false}]