[{"rt":467.5,"stimulus":"[A] option 1, [L] option 2, [G] neither","key_press":76,"name":"choice","trial_type":"html-keyboard-response","trial_index":10,"time_elapsed":56707,"internal_node_id":"0.0-10.0","subject":"S1C0835","sona":"41825","block":6,"time":"2021-09-18T16:55:57.126Z","response":"2nd","certainty":"high","char":"L","transposition":-1,"order":["swapped","shifted"],"probe_pitches":[4,8,2,1,3,7,4,-1],"shifted_pitches":[4,8,2,0,3,7,4,-1],"swapped_pitches":[4,8,2,3,1,7,4,-1],"shift_direction":-1,"question_num":1,"has_decoy":false},{"rt":398.2999999821186,"stimulus":"[A] option 1, [L] option 2, [G] neither","key_press":76,"name":"choice","trial_type":"html-keyboard-response","trial_index":21,"time_elapsed":71331,"internal_node_id":"0.0-21.0","subject":"S1C0835","sona":"41825","block":6,"time":"2021-09-18T16:55:57.126Z","response":"2nd","certainty":"high","char":"L","transposition":2,"order":["swapped","shifted"],"probe_pitches":[-3,-1,-3,-1,7,2,9,4],"shifted_pitches":[-3,-1,-3,-1,6,2,9,4],"swapped_pitches":[-3,-1,-3,7,-1,2,9,4],"shift_direction":-1,"question_num":11,"has_decoy":false},{"rt":382.40000000596046,"stimulus":"[A] option 1, [L] option 2, [G] neither","key_press":65,"name":"choice","trial_type":"html-keyboard-response","trial_index":32,"time_elapsed":85858,"internal_node_id":"0.0-32.0","subject":"S1C0835","sona":"41825","block":6,"time":"2021-09-18T16:55:57.126Z","response":"1st","certainty":"high","char":"A","transposition":-3,"order":["swapped","shifted"],"probe_pitches":[9,6,2,9,4,2,-1,6],"shifted_pitches":[9,6,2,9,3,2,-1,6],"swapped_pitches":[9,6,2,4,9,2,-1,6],"shift_direction":-1,"question_num":21,"has_decoy":false},{"rt":750.1999999880791,"stimulus":"[A] option 1, [L] option 2, [G] neither","key_press":76,"name":"choice","trial_type":"html-keyboard-response","trial_index":43,"time_elapsed":100946,"internal_node_id":"0.0-43.0","subject":"S1C0835","sona":"41825","block":6,"time":"2021-09-18T16:55:57.126Z","response":"2nd","certainty":"high","char":"L","transposition":-1,"order":["swapped","shifted"],"probe_pitches":[9,4,1,9,6,4,-3,-1],"shifted_pitches":[9,4,1,8,6,4,-3,-1],"swapped_pitches":[9,4,1,6,9,4,-3,-1],"shift_direction":-1,"question_num":31,"has_decoy":false},{"rt":248.90000000596046,"stimulus":"[A] option 1, [L] option 2, [G] neither","key_press":76,"name":"choice","trial_type":"html-keyboard-response","trial_index":54,"time_elapsed":115490,"internal_node_id":"0.0-54.0","subject":"S1C0835","sona":"41825","block":6,"time":"2021-09-18T16:55:57.126Z","response":"2nd","certainty":"high","char":"L","transposition":1,"order":["swapped","shifted"],"probe_pitches":[4,2,4,9,7,0,9,7],"shifted_pitches":[4,2,4,8,7,0,9,7],"swapped_pitches":[4,2,4,7,9,0,9,7],"shift_direction":-1,"question_num":41,"has_decoy":false},{"rt":3849.600000023842,"stimulus":"[A] option 1, [L] option 2, [G] neither","key_press":65,"name":"choice","trial_type":"html-keyboard-response","trial_index":65,"time_elapsed":133667,"internal_node_id":"0.0-65.0","subject":"S1C0835","sona":"41825","block":6,"time":"2021-09-18T16:55:57.126Z","response":"1st","certainty":"high","char":"A","transposition":-2,"order":["shifted","swapped"],"probe_pitches":[-1,2,6,2,9,4,3,2],"shifted_pitches":[-1,2,6,2,8,4,3,2],"swapped_pitches":[-1,2,6,9,2,4,3,2],"shift_direction":-1,"question_num":51,"has_decoy":false},{"rt":360.80000001192093,"stimulus":"[A] option 1, [L] option 2, [G] neither","key_press":65,"name":"choice","trial_type":"html-keyboard-response","trial_index":76,"time_elapsed":148626,"internal_node_id":"0.0-76.0","subject":"S1C0835","sona":"41825","block":6,"time":"2021-09-18T16:55:57.126Z","response":"1st","certainty":"high","char":"A","transposition":3,"order":["shifted","swapped"],"probe_pitches":[4,0,1,5,8,7,8,-2],"shifted_pitches":[4,0,1,6,8,7,8,-2],"swapped_pitches":[4,0,1,8,5,7,8,-2],"shift_direction":1,"question_num":61,"has_decoy":false},{"rt":2808.800000011921,"stimulus":"[A] option 1, [L] option 2, [G] neither","key_press":65,"name":"choice","trial_type":"html-keyboard-response","trial_index":87,"time_elapsed":165729,"internal_node_id":"0.0-87.0","subject":"S1C0835","sona":"41825","block":6,"time":"2021-09-18T16:55:57.126Z","response":"1st","certainty":"high","char":"A","transposition":1,"order":["shifted","swapped"],"probe_pitches":[-1,3,2,6,3,-1,-3,2],"shifted_pitches":[-1,3,2,7,3,-1,-3,2],"swapped_pitches":[-1,3,2,3,6,-1,-3,2],"shift_direction":1,"question_num":71,"has_decoy":false},{"rt":1017,"stimulus":"[A] option 1, [L] option 2, [G] neither","key_press":65,"name":"choice","trial_type":"html-keyboard-response","trial_index":98,"time_elapsed":183329,"internal_node_id":"0.0-98.0","subject":"S1C0835","sona":"41825","block":6,"time":"2021-09-18T16:55:57.126Z","response":"1st","certainty":"high","char":"A","transposition":2,"order":["swapped","shifted"],"probe_pitches":[7,2,5,8,2,7,0,8],"shifted_pitches":[7,2,5,8,1,7,0,8],"swapped_pitches":[7,2,5,2,8,7,0,8],"shift_direction":-1,"question_num":81,"has_decoy":false},{"rt":424.90000000596046,"stimulus":"[A] option 1, [L] option 2, [G] neither","key_press":76,"name":"choice","trial_type":"html-keyboard-response","trial_index":109,"time_elapsed":198145,"internal_node_id":"0.0-109.0","subject":"S1C0835","sona":"41825","block":6,"time":"2021-09-18T16:55:57.126Z","response":"2nd","certainty":"high","char":"L","transposition":3,"order":["shifted","swapped"],"probe_pitches":[2,-1,6,2,4,-1,9,-3],"shifted_pitches":[2,-1,6,3,4,-1,9,-3],"swapped_pitches":[2,-1,6,4,2,-1,9,-3],"shift_direction":1,"question_num":91,"has_decoy":false},{"rt":3406.199999988079,"stimulus":"[A] option 1, [L] option 2, [G] neither","key_press":76,"name":"choice","trial_type":"html-keyboard-response","trial_index":120,"time_elapsed":215665,"internal_node_id":"0.0-120.0","subject":"S1C0835","sona":"41825","block":6,"time":"2021-09-18T16:55:57.126Z","response":"2nd","certainty":"high","char":"L","transposition":-2,"order":["swapped","shifted"],"probe_pitches":[6,8,7,3,-2,5,-3,8],"shifted_pitches":[6,8,7,3,-1,5,-3,8],"swapped_pitches":[6,8,7,-2,3,5,-3,8],"shift_direction":1,"question_num":101,"has_decoy":false},{"rt":3214.4000000059605,"stimulus":"[A] option 1, [L] option 2, [G] neither","key_press":65,"name":"choice","trial_type":"html-keyboard-response","trial_index":131,"time_elapsed":233233,"internal_node_id":"0.0-131.0","subject":"S1C0835","sona":"41825","block":6,"time":"2021-09-18T16:55:57.126Z","response":"1st","certainty":"high","char":"A","transposition":-3,"order":["swapped","shifted"],"probe_pitches":[6,7,9,1,5,-1,1,3],"shifted_pitches":[6,7,9,2,5,-1,1,3],"swapped_pitches":[6,7,9,5,1,-1,1,3],"shift_direction":1,"question_num":111,"has_decoy":false},{"rt":424.80000001192093,"stimulus":"[A] option 1, [L] option 2, [G] neither","key_press":76,"name":"choice","trial_type":"html-keyboard-response","trial_index":142,"time_elapsed":248385,"internal_node_id":"0.0-142.0","subject":"S1C0835","sona":"41825","block":6,"time":"2021-09-18T16:55:57.126Z","response":"2nd","certainty":"high","char":"L","transposition":-3,"order":["swapped","shifted"],"probe_pitches":[2,0,-3,5,0,7,5,-3],"shifted_pitches":[2,0,-3,5,1,7,5,-3],"swapped_pitches":[2,0,-3,0,5,7,5,-3],"shift_direction":1,"question_num":121,"has_decoy":false},{"rt":430.19999998807907,"stimulus":"[A] option 1, [L] option 2, [G] neither","key_press":65,"name":"choice","trial_type":"html-keyboard-response","trial_index":153,"time_elapsed":263072,"internal_node_id":"0.0-153.0","subject":"S1C0835","sona":"41825","block":6,"time":"2021-09-18T16:55:57.126Z","response":"1st","certainty":"high","char":"A","transposition":0,"order":["shifted","swapped"],"probe_pitches":[-3,2,-1,-3,4,7,-3,9],"shifted_pitches":[-3,2,-1,-2,4,7,-3,9],"swapped_pitches":[-3,2,-1,4,-3,7,-3,9],"shift_direction":1,"question_num":131,"has_decoy":false},{"rt":318.19999998807907,"stimulus":"[A] option 1, [L] option 2, [G] neither","key_press":76,"name":"choice","trial_type":"html-keyboard-response","trial_index":164,"time_elapsed":277776,"internal_node_id":"0.0-164.0","subject":"S1C0835","sona":"41825","block":6,"time":"2021-09-18T16:55:57.126Z","response":"2nd","certainty":"high","char":"L","transposition":-2,"order":["shifted","swapped"],"probe_pitches":[7,9,7,0,5,2,9,5],"shifted_pitches":[7,9,7,1,5,2,9,5],"swapped_pitches":[7,9,7,5,0,2,9,5],"shift_direction":1,"question_num":141,"has_decoy":false},{"rt":584.7000000178814,"stimulus":"[A] option 1, [L] option 2, [G] neither","key_press":76,"name":"choice","trial_type":"html-keyboard-response","trial_index":175,"time_elapsed":293376,"internal_node_id":"0.0-175.0","subject":"S1C0835","sona":"41825","block":6,"time":"2021-09-18T16:55:57.126Z","response":"2nd","certainty":"high","char":"L","transposition":-2,"order":["shifted","swapped"],"probe_pitches":[4,1,-3,1,-1,6,-3,1],"shifted_pitches":[4,1,-3,1,-2,6,-3,1],"swapped_pitches":[4,1,-3,-1,1,6,-3,1],"shift_direction":-1,"question_num":151,"has_decoy":false},{"rt":2280.800000011921,"stimulus":"[A] option 1, [L] option 2, [G] neither","key_press":71,"name":"choice","trial_type":"html-keyboard-response","trial_index":186,"time_elapsed":322848,"internal_node_id":"0.0-186.0","subject":"S1C0835","sona":"41825","block":6,"time":"2021-09-18T16:55:57.126Z","response":"neither","certainty":"high","char":"G","transposition":0,"order":["swapped","shifted"],"probe_pitches":[3,-3,1,4,0,9,2,7],"shifted_pitches":[3,-3,1,5,0,9,2,7],"swapped_pitches":[3,-3,1,0,4,9,2,7],"shift_direction":1,"question_num":161,"has_decoy":false},{"rt":291.59999999403954,"stimulus":"[A] option 1, [L] option 2, [G] neither","key_press":76,"name":"choice","trial_type":"html-keyboard-response","trial_index":197,"time_elapsed":337600,"internal_node_id":"0.0-197.0","subject":"S1C0835","sona":"41825","block":6,"time":"2021-09-18T16:55:57.126Z","response":"2nd","certainty":"high","char":"L","transposition":-3,"order":["shifted","swapped"],"probe_pitches":[9,8,5,-2,4,-3,4,7],"shifted_pitches":[9,8,5,-2,3,-3,4,7],"swapped_pitches":[9,8,5,4,-2,-3,4,7],"shift_direction":-1,"question_num":171,"has_decoy":false},{"rt":328.90000000596046,"stimulus":"[A] option 1, [L] option 2, [G] neither","key_press":65,"name":"choice","trial_type":"html-keyboard-response","trial_index":208,"time_elapsed":352223,"internal_node_id":"0.0-208.0","subject":"S1C0835","sona":"41825","block":6,"time":"2021-09-18T16:55:57.126Z","response":"1st","certainty":"high","char":"A","transposition":-1,"order":["shifted","swapped"],"probe_pitches":[2,0,2,4,9,2,7,2],"shifted_pitches":[2,0,2,4,10,2,7,2],"swapped_pitches":[2,0,2,9,4,2,7,2],"shift_direction":1,"question_num":181,"has_decoy":false},{"rt":1273,"stimulus":"[A] option 1, [L] option 2, [G] neither","key_press":76,"name":"choice","trial_type":"html-keyboard-response","trial_index":219,"time_elapsed":368495,"internal_node_id":"0.0-219.0","subject":"S1C0835","sona":"41825","block":6,"time":"2021-09-18T16:55:57.126Z","response":"2nd","certainty":"high","char":"L","transposition":-1,"order":["shifted","swapped"],"probe_pitches":[0,1,3,8,5,9,0,-2],"shifted_pitches":[0,1,3,8,4,9,0,-2],"swapped_pitches":[0,1,3,5,8,9,0,-2],"shift_direction":-1,"question_num":191,"has_decoy":false}]