[{"rt":9419.09999999404,"stimulus":"[A] option 1, [L] option 2, [G] neither","key_press":76,"name":"choice","trial_type":"html-keyboard-response","trial_index":15,"time_elapsed":73457,"internal_node_id":"0.0-15.0","response":"2nd","certainty":"high","char":"L","transposition":1,"order":["swapped","shifted"],"probe_pitches":[11,6,11,6,1,9,-1,4],"shifted_pitches":[11,6,11,6,0,9,-1,4],"swapped_pitches":[11,6,11,1,6,9,-1,4],"shift_direction":-1,"question_num":1,"has_decoy":false,"subject":"S1C0835","sona":"41825","block":1,"time":"2021-09-18T16:25:05.178Z"},{"rt":1915.2999999821186,"stimulus":"[A] option 1, [L] option 2, [G] neither","key_press":76,"name":"choice","trial_type":"html-keyboard-response","trial_index":26,"time_elapsed":91201,"internal_node_id":"0.0-26.0","response":"2nd","certainty":"high","char":"L","transposition":2,"order":["swapped","shifted"],"probe_pitches":[4,6,4,3,11,6,3,8],"shifted_pitches":[4,6,4,3,10,6,3,8],"swapped_pitches":[4,6,4,11,3,6,3,8],"shift_direction":-1,"question_num":11,"has_decoy":false,"subject":"S1C0835","sona":"41825","block":1,"time":"2021-09-18T16:25:05.178Z"},{"rt":3744.7999999821186,"stimulus":"[A] option 1, [L] option 2, [G] neither","key_press":76,"name":"choice","trial_type":"html-keyboard-response","trial_index":37,"time_elapsed":111761,"internal_node_id":"0.0-37.0","response":"2nd","certainty":"high","char":"L","transposition":-2,"order":["shifted","swapped"],"probe_pitches":[2,1,0,7,2,5,6,1],"shifted_pitches":[2,1,0,7,3,5,6,1],"swapped_pitches":[2,1,0,2,7,5,6,1],"shift_direction":1,"question_num":21,"has_decoy":false,"subject":"S1C0835","sona":"41825","block":1,"time":"2021-09-18T16:25:05.178Z"},{"rt":1707.2999999821186,"stimulus":"[A] option 1, [L] option 2, [G] neither","key_press":76,"name":"choice","trial_type":"html-keyboard-response","trial_index":48,"time_elapsed":149600,"internal_node_id":"0.0-48.0","response":"2nd","certainty":"high","char":"L","transposition":-2,"order":["swapped","shifted"],"probe_pitches":[11,6,3,-1,8,6,11,1],"shifted_pitches":[11,6,3,-2,8,6,11,1],"swapped_pitches":[11,6,3,8,-1,6,11,1],"shift_direction":-1,"question_num":31,"has_decoy":false,"subject":"S1C0835","sona":"41825","block":1,"time":"2021-09-18T16:25:05.178Z"},{"rt":3947.2999999821186,"stimulus":"[A] option 1, [L] option 2, [G] neither","key_press":76,"name":"choice","trial_type":"html-keyboard-response","trial_index":59,"time_elapsed":168955,"internal_node_id":"0.0-59.0","response":"2nd","certainty":"high","char":"L","transposition":3,"order":["shifted","swapped"],"probe_pitches":[4,2,-1,6,2,9,4,11],"shifted_pitches":[4,2,-1,7,2,9,4,11],"swapped_pitches":[4,2,-1,2,6,9,4,11],"shift_direction":1,"question_num":41,"has_decoy":false,"subject":"S1C0835","sona":"41825","block":1,"time":"2021-09-18T16:25:05.178Z"},{"rt":495.69999998807907,"stimulus":"[A] option 1, [L] option 2, [G] neither","key_press":76,"name":"choice","trial_type":"html-keyboard-response","trial_index":70,"time_elapsed":184496,"internal_node_id":"0.0-70.0","response":"2nd","certainty":"high","char":"L","transposition":-1,"order":["swapped","shifted"],"probe_pitches":[6,4,-1,1,8,4,1,8],"shifted_pitches":[6,4,-1,1,7,4,1,8],"swapped_pitches":[6,4,-1,8,1,4,1,8],"shift_direction":-1,"question_num":51,"has_decoy":false,"subject":"S1C0835","sona":"41825","block":1,"time":"2021-09-18T16:25:05.178Z"},{"rt":4827.299999982119,"stimulus":"[A] option 1, [L] option 2, [G] neither","key_press":76,"name":"choice","trial_type":"html-keyboard-response","trial_index":81,"time_elapsed":203952,"internal_node_id":"0.0-81.0","response":"2nd","certainty":"high","char":"L","transposition":-1,"order":["shifted","swapped"],"probe_pitches":[3,7,1,2,6,9,6,2],"shifted_pitches":[3,7,1,2,5,9,6,2],"swapped_pitches":[3,7,1,6,2,9,6,2],"shift_direction":-1,"question_num":61,"has_decoy":false,"subject":"S1C0835","sona":"41825","block":1,"time":"2021-09-18T16:25:05.178Z"},{"rt":1451.2999999821186,"stimulus":"[A] option 1, [L] option 2, [G] neither","key_press":76,"name":"choice","trial_type":"html-keyboard-response","trial_index":92,"time_elapsed":221199,"internal_node_id":"0.0-92.0","response":"2nd","certainty":"high","char":"L","transposition":-3,"order":["swapped","shifted"],"probe_pitches":[2,7,4,7,11,4,9,11],"shifted_pitches":[2,7,4,7,10,4,9,11],"swapped_pitches":[2,7,4,11,7,4,9,11],"shift_direction":-1,"question_num":71,"has_decoy":false,"subject":"S1C0835","sona":"41825","block":1,"time":"2021-09-18T16:25:05.178Z"},{"rt":1067.3999999761581,"stimulus":"[A] option 1, [L] option 2, [G] neither","key_press":65,"name":"choice","trial_type":"html-keyboard-response","trial_index":103,"time_elapsed":238111,"internal_node_id":"0.0-103.0","response":"1st","certainty":"high","char":"A","transposition":-3,"order":["swapped","shifted"],"probe_pitches":[0,5,1,9,0,7,3,5],"shifted_pitches":[0,5,1,8,0,7,3,5],"swapped_pitches":[0,5,1,0,9,7,3,5],"shift_direction":-1,"question_num":81,"has_decoy":false,"subject":"S1C0835","sona":"41825","block":1,"time":"2021-09-18T16:25:05.178Z"},{"rt":683.3999999761581,"stimulus":"[A] option 1, [L] option 2, [G] neither","key_press":76,"name":"choice","trial_type":"html-keyboard-response","trial_index":114,"time_elapsed":254127,"internal_node_id":"0.0-114.0","response":"2nd","certainty":"high","char":"L","transposition":-3,"order":["swapped","shifted"],"probe_pitches":[11,8,10,8,0,1,5,6],"shifted_pitches":[11,8,10,9,0,1,5,6],"swapped_pitches":[11,8,10,0,8,1,5,6],"shift_direction":1,"question_num":91,"has_decoy":false,"subject":"S1C0835","sona":"41825","block":1,"time":"2021-09-18T16:25:05.178Z"},{"rt":6603.299999982119,"stimulus":"[A] option 1, [L] option 2, [G] neither","key_press":76,"name":"choice","trial_type":"html-keyboard-response","trial_index":125,"time_elapsed":275855,"internal_node_id":"0.0-125.0","response":"2nd","certainty":"high","char":"L","transposition":-2,"order":["shifted","swapped"],"probe_pitches":[3,6,11,8,1,3,8,6],"shifted_pitches":[3,6,11,8,0,3,8,6],"swapped_pitches":[3,6,11,1,8,3,8,6],"shift_direction":-1,"question_num":101,"has_decoy":false,"subject":"S1C0835","sona":"41825","block":1,"time":"2021-09-18T16:25:05.178Z"},{"rt":747.3999999761581,"stimulus":"[A] option 1, [L] option 2, [G] neither","key_press":76,"name":"choice","trial_type":"html-keyboard-response","trial_index":136,"time_elapsed":291774,"internal_node_id":"0.0-136.0","response":"2nd","certainty":"high","char":"L","transposition":0,"order":["shifted","swapped"],"probe_pitches":[6,1,5,8,3,10,0,11],"shifted_pitches":[6,1,5,8,2,10,0,11],"swapped_pitches":[6,1,5,3,8,10,0,11],"shift_direction":-1,"question_num":111,"has_decoy":false,"subject":"S1C0835","sona":"41825","block":1,"time":"2021-09-18T16:25:05.178Z"},{"rt":3680.7999999821186,"stimulus":"[A] option 1, [L] option 2, [G] neither","key_press":76,"name":"choice","trial_type":"html-keyboard-response","trial_index":147,"time_elapsed":310670,"internal_node_id":"0.0-147.0","response":"2nd","certainty":"high","char":"L","transposition":0,"order":["shifted","swapped"],"probe_pitches":[4,9,6,-1,1,11,4,6],"shifted_pitches":[4,9,6,0,1,11,4,6],"swapped_pitches":[4,9,6,1,-1,11,4,6],"shift_direction":1,"question_num":121,"has_decoy":false,"subject":"S1C0835","sona":"41825","block":1,"time":"2021-09-18T16:25:05.178Z"},{"rt":907.1999999880791,"stimulus":"[A] option 1, [L] option 2, [G] neither","key_press":65,"name":"choice","trial_type":"html-keyboard-response","trial_index":158,"time_elapsed":327102,"internal_node_id":"0.0-158.0","response":"1st","certainty":"high","char":"A","transposition":-1,"order":["shifted","swapped"],"probe_pitches":[4,9,7,-1,2,4,-1,4],"shifted_pitches":[4,9,7,-1,3,4,-1,4],"swapped_pitches":[4,9,7,2,-1,4,-1,4],"shift_direction":1,"question_num":131,"has_decoy":false,"subject":"S1C0835","sona":"41825","block":1,"time":"2021-09-18T16:25:05.178Z"},{"rt":480.69999998807907,"stimulus":"[A] option 1, [L] option 2, [G] neither","key_press":76,"name":"choice","trial_type":"html-keyboard-response","trial_index":169,"time_elapsed":342462,"internal_node_id":"0.0-169.0","response":"2nd","certainty":"high","char":"L","transposition":1,"order":["shifted","swapped"],"probe_pitches":[2,1,7,10,5,7,2,6],"shifted_pitches":[2,1,7,11,5,7,2,6],"swapped_pitches":[2,1,7,5,10,7,2,6],"shift_direction":1,"question_num":141,"has_decoy":false,"subject":"S1C0835","sona":"41825","block":1,"time":"2021-09-18T16:25:05.178Z"},{"rt":7291.299999982119,"stimulus":"[A] option 1, [L] option 2, [G] neither","key_press":76,"name":"choice","trial_type":"html-keyboard-response","trial_index":180,"time_elapsed":365405,"internal_node_id":"0.0-180.0","response":"2nd","certainty":"high","char":"L","transposition":-3,"order":["shifted","swapped"],"probe_pitches":[2,6,4,2,9,6,-1,4],"shifted_pitches":[2,6,4,3,9,6,-1,4],"swapped_pitches":[2,6,4,9,2,6,-1,4],"shift_direction":1,"question_num":151,"has_decoy":false,"subject":"S1C0835","sona":"41825","block":1,"time":"2021-09-18T16:25:05.178Z"},{"rt":923.2999999821186,"stimulus":"[A] option 1, [L] option 2, [G] neither","key_press":65,"name":"choice","trial_type":"html-keyboard-response","trial_index":191,"time_elapsed":381517,"internal_node_id":"0.0-191.0","response":"1st","certainty":"high","char":"A","transposition":-1,"order":["swapped","shifted"],"probe_pitches":[11,7,10,7,9,10,11,1],"shifted_pitches":[11,7,10,6,9,10,11,1],"swapped_pitches":[11,7,10,9,7,10,11,1],"shift_direction":-1,"question_num":161,"has_decoy":false,"subject":"S1C0835","sona":"41825","block":1,"time":"2021-09-18T16:25:05.178Z"},{"rt":1515.2999999821186,"stimulus":"[A] option 1, [L] option 2, [G] neither","key_press":76,"name":"choice","trial_type":"html-keyboard-response","trial_index":202,"time_elapsed":398077,"internal_node_id":"0.0-202.0","response":"2nd","certainty":"high","char":"L","transposition":-2,"order":["shifted","swapped"],"probe_pitches":[5,1,8,1,3,6,5,6],"shifted_pitches":[5,1,8,1,4,6,5,6],"swapped_pitches":[5,1,8,3,1,6,5,6],"shift_direction":1,"question_num":171,"has_decoy":false,"subject":"S1C0835","sona":"41825","block":1,"time":"2021-09-18T16:25:05.178Z"},{"rt":3003.5,"stimulus":"[A] option 1, [L] option 2, [G] neither","key_press":71,"name":"choice","trial_type":"html-keyboard-response","trial_index":213,"time_elapsed":416797,"internal_node_id":"0.0-213.0","response":"neither","certainty":"high","char":"G","transposition":3,"order":["swapped","shifted"],"probe_pitches":[1,2,1,6,10,11,9,10],"shifted_pitches":[1,2,1,7,10,11,9,10],"swapped_pitches":[1,2,1,10,6,11,9,10],"shift_direction":1,"question_num":181,"has_decoy":false,"subject":"S1C0835","sona":"41825","block":1,"time":"2021-09-18T16:25:05.178Z"},{"rt":2923.2999999821186,"stimulus":"[A] option 1, [L] option 2, [G] neither","key_press":76,"name":"choice","trial_type":"html-keyboard-response","trial_index":224,"time_elapsed":435133,"internal_node_id":"0.0-224.0","response":"2nd","certainty":"high","char":"L","transposition":2,"order":["swapped","shifted"],"probe_pitches":[1,-1,4,11,8,6,11,-1],"shifted_pitches":[1,-1,4,12,8,6,11,-1],"swapped_pitches":[1,-1,4,8,11,6,11,-1],"shift_direction":1,"question_num":191,"has_decoy":false,"subject":"S1C0835","sona":"41825","block":1,"time":"2021-09-18T16:25:05.178Z"}]