[{"rt":1768,"stimulus":"[A] option 1, [L] option 2, [G] neither","key_press":65,"name":"choice","trial_type":"html-keyboard-response","trial_index":10,"time_elapsed":19861,"internal_node_id":"0.0-10.0","subject":"S1C0835","sona":"41825","block":4,"time":"2021-09-18T16:41:44.751Z","response":"1st","certainty":"high","char":"A","transposition":-3,"order":["shifted","swapped"],"probe_pitches":[4,8,12,10,5,13,11,13],"shifted_pitches":[4,8,12,9,5,13,11,13],"swapped_pitches":[4,8,12,5,10,13,11,13],"shift_direction":-1,"question_num":1,"has_decoy":false},{"rt":333.39999997615814,"stimulus":"[A] option 1, [L] option 2, [G] neither","key_press":76,"name":"choice","trial_type":"html-keyboard-response","trial_index":21,"time_elapsed":36005,"internal_node_id":"0.0-21.0","subject":"S1C0835","sona":"41825","block":4,"time":"2021-09-18T16:41:44.751Z","response":"2nd","certainty":"high","char":"L","transposition":-1,"order":["shifted","swapped"],"probe_pitches":[11,6,2,4,9,6,2,-1],"shifted_pitches":[11,6,2,4,8,6,2,-1],"swapped_pitches":[11,6,2,9,4,6,2,-1],"shift_direction":-1,"question_num":11,"has_decoy":false},{"rt":3837.199999988079,"stimulus":"[A] option 1, [L] option 2, [G] neither","key_press":76,"name":"choice","trial_type":"html-keyboard-response","trial_index":32,"time_elapsed":55141,"internal_node_id":"0.0-32.0","subject":"S1C0835","sona":"41825","block":4,"time":"2021-09-18T16:41:44.751Z","response":"2nd","certainty":"high","char":"L","transposition":-3,"order":["swapped","shifted"],"probe_pitches":[1,6,1,6,8,-1,8,4],"shifted_pitches":[1,6,1,6,9,-1,8,4],"swapped_pitches":[1,6,1,8,6,-1,8,4],"shift_direction":1,"question_num":21,"has_decoy":false},{"rt":423.7000000178814,"stimulus":"[A] option 1, [L] option 2, [G] neither","key_press":76,"name":"choice","trial_type":"html-keyboard-response","trial_index":43,"time_elapsed":88500,"internal_node_id":"0.0-43.0","subject":"S1C0835","sona":"41825","block":4,"time":"2021-09-18T16:41:44.751Z","response":"2nd","certainty":"high","char":"L","transposition":-1,"order":["swapped","shifted"],"probe_pitches":[4,5,3,9,7,10,13,2],"shifted_pitches":[4,5,3,9,6,10,13,2],"swapped_pitches":[4,5,3,7,9,10,13,2],"shift_direction":-1,"question_num":31,"has_decoy":false},{"rt":807.8000000119209,"stimulus":"[A] option 1, [L] option 2, [G] neither","key_press":76,"name":"choice","trial_type":"html-keyboard-response","trial_index":54,"time_elapsed":103444,"internal_node_id":"0.0-54.0","subject":"S1C0835","sona":"41825","block":4,"time":"2021-09-18T16:41:44.751Z","response":"2nd","certainty":"high","char":"L","transposition":0,"order":["shifted","swapped"],"probe_pitches":[6,11,9,1,4,11,1,9],"shifted_pitches":[6,11,9,0,4,11,1,9],"swapped_pitches":[6,11,9,4,1,11,1,9],"shift_direction":-1,"question_num":41,"has_decoy":false},{"rt":557.1999999880791,"stimulus":"[A] option 1, [L] option 2, [G] neither","key_press":76,"name":"choice","trial_type":"html-keyboard-response","trial_index":65,"time_elapsed":118436,"internal_node_id":"0.0-65.0","subject":"S1C0835","sona":"41825","block":4,"time":"2021-09-18T16:41:44.751Z","response":"2nd","certainty":"high","char":"L","transposition":-2,"order":["swapped","shifted"],"probe_pitches":[6,9,4,9,1,11,4,6],"shifted_pitches":[6,9,4,8,1,11,4,6],"swapped_pitches":[6,9,4,1,9,11,4,6],"shift_direction":-1,"question_num":51,"has_decoy":false},{"rt":1191.800000011921,"stimulus":"[A] option 1, [L] option 2, [G] neither","key_press":76,"name":"choice","trial_type":"html-keyboard-response","trial_index":76,"time_elapsed":135172,"internal_node_id":"0.0-76.0","subject":"S1C0835","sona":"41825","block":4,"time":"2021-09-18T16:41:44.751Z","response":"2nd","certainty":"high","char":"L","transposition":-2,"order":["swapped","shifted"],"probe_pitches":[5,4,3,2,7,4,2,12],"shifted_pitches":[5,4,3,2,8,4,2,12],"swapped_pitches":[5,4,3,7,2,4,2,12],"shift_direction":1,"question_num":61,"has_decoy":false},{"rt":407.69999998807907,"stimulus":"[A] option 1, [L] option 2, [G] neither","key_press":76,"name":"choice","trial_type":"html-keyboard-response","trial_index":87,"time_elapsed":150116,"internal_node_id":"0.0-87.0","subject":"S1C0835","sona":"41825","block":4,"time":"2021-09-18T16:41:44.751Z","response":"2nd","certainty":"high","char":"L","transposition":-2,"order":["swapped","shifted"],"probe_pitches":[3,2,9,10,3,12,4,2],"shifted_pitches":[3,2,9,11,3,12,4,2],"swapped_pitches":[3,2,9,3,10,12,4,2],"shift_direction":1,"question_num":71,"has_decoy":false},{"rt":685.0999999940395,"stimulus":"[A] option 1, [L] option 2, [G] neither","key_press":76,"name":"choice","trial_type":"html-keyboard-response","trial_index":98,"time_elapsed":165092,"internal_node_id":"0.0-98.0","subject":"S1C0835","sona":"41825","block":4,"time":"2021-09-18T16:41:44.751Z","response":"2nd","certainty":"high","char":"L","transposition":-1,"order":["shifted","swapped"],"probe_pitches":[14,13,8,14,6,5,10,14],"shifted_pitches":[14,13,8,14,7,5,10,14],"swapped_pitches":[14,13,8,6,14,5,10,14],"shift_direction":1,"question_num":81,"has_decoy":false},{"rt":1154.5999999940395,"stimulus":"[A] option 1, [L] option 2, [G] neither","key_press":76,"name":"choice","trial_type":"html-keyboard-response","trial_index":109,"time_elapsed":180580,"internal_node_id":"0.0-109.0","subject":"S1C0835","sona":"41825","block":4,"time":"2021-09-18T16:41:44.751Z","response":"2nd","certainty":"high","char":"L","transposition":2,"order":["shifted","swapped"],"probe_pitches":[6,12,6,8,4,10,12,14],"shifted_pitches":[6,12,6,8,5,10,12,14],"swapped_pitches":[6,12,6,4,8,10,12,14],"shift_direction":1,"question_num":91,"has_decoy":false},{"rt":829.0999999940395,"stimulus":"[A] option 1, [L] option 2, [G] neither","key_press":65,"name":"choice","trial_type":"html-keyboard-response","trial_index":120,"time_elapsed":195987,"internal_node_id":"0.0-120.0","subject":"S1C0835","sona":"41825","block":4,"time":"2021-09-18T16:41:44.751Z","response":"1st","certainty":"high","char":"A","transposition":-3,"order":["swapped","shifted"],"probe_pitches":[14,11,6,11,8,7,12,3],"shifted_pitches":[14,11,6,10,8,7,12,3],"swapped_pitches":[14,11,6,8,11,7,12,3],"shift_direction":-1,"question_num":101,"has_decoy":false},{"rt":407.90000000596046,"stimulus":"[A] option 1, [L] option 2, [G] neither","key_press":76,"name":"choice","trial_type":"html-keyboard-response","trial_index":131,"time_elapsed":210755,"internal_node_id":"0.0-131.0","subject":"S1C0835","sona":"41825","block":4,"time":"2021-09-18T16:41:44.751Z","response":"2nd","certainty":"high","char":"L","transposition":1,"order":["shifted","swapped"],"probe_pitches":[11,9,4,2,7,9,2,-1],"shifted_pitches":[11,9,4,2,6,9,2,-1],"swapped_pitches":[11,9,4,7,2,9,2,-1],"shift_direction":-1,"question_num":111,"has_decoy":false},{"rt":471.80000001192093,"stimulus":"[A] option 1, [L] option 2, [G] neither","key_press":76,"name":"choice","trial_type":"html-keyboard-response","trial_index":142,"time_elapsed":225347,"internal_node_id":"0.0-142.0","subject":"S1C0835","sona":"41825","block":4,"time":"2021-09-18T16:41:44.751Z","response":"2nd","certainty":"high","char":"L","transposition":2,"order":["swapped","shifted"],"probe_pitches":[11,8,3,6,8,3,8,1],"shifted_pitches":[11,8,3,6,9,3,8,1],"swapped_pitches":[11,8,3,8,6,3,8,1],"shift_direction":1,"question_num":121,"has_decoy":false},{"rt":743,"stimulus":"[A] option 1, [L] option 2, [G] neither","key_press":76,"name":"choice","trial_type":"html-keyboard-response","trial_index":153,"time_elapsed":240707,"internal_node_id":"0.0-153.0","subject":"S1C0835","sona":"41825","block":4,"time":"2021-09-18T16:41:44.751Z","response":"2nd","certainty":"high","char":"L","transposition":-2,"order":["swapped","shifted"],"probe_pitches":[4,6,11,6,-1,1,8,1],"shifted_pitches":[4,6,11,7,-1,1,8,1],"swapped_pitches":[4,6,11,-1,6,1,8,1],"shift_direction":1,"question_num":131,"has_decoy":false},{"rt":360,"stimulus":"[A] option 1, [L] option 2, [G] neither","key_press":76,"name":"choice","trial_type":"html-keyboard-response","trial_index":164,"time_elapsed":255395,"internal_node_id":"0.0-164.0","subject":"S1C0835","sona":"41825","block":4,"time":"2021-09-18T16:41:44.751Z","response":"2nd","certainty":"high","char":"L","transposition":-3,"order":["swapped","shifted"],"probe_pitches":[3,-1,1,8,11,1,11,6],"shifted_pitches":[3,-1,1,9,11,1,11,6],"swapped_pitches":[3,-1,1,11,8,1,11,6],"shift_direction":1,"question_num":141,"has_decoy":false},{"rt":413.09999999403954,"stimulus":"[A] option 1, [L] option 2, [G] neither","key_press":76,"name":"choice","trial_type":"html-keyboard-response","trial_index":175,"time_elapsed":270114,"internal_node_id":"0.0-175.0","subject":"S1C0835","sona":"41825","block":4,"time":"2021-09-18T16:41:44.751Z","response":"2nd","certainty":"high","char":"L","transposition":1,"order":["swapped","shifted"],"probe_pitches":[4,6,11,7,13,5,13,10],"shifted_pitches":[4,6,11,7,12,5,13,10],"swapped_pitches":[4,6,11,13,7,5,13,10],"shift_direction":-1,"question_num":151,"has_decoy":false},{"rt":317.09999999403954,"stimulus":"[A] option 1, [L] option 2, [G] neither","key_press":76,"name":"choice","trial_type":"html-keyboard-response","trial_index":186,"time_elapsed":285826,"internal_node_id":"0.0-186.0","subject":"S1C0835","sona":"41825","block":4,"time":"2021-09-18T16:41:44.751Z","response":"2nd","certainty":"high","char":"L","transposition":3,"order":["shifted","swapped"],"probe_pitches":[6,9,6,2,9,11,4,-1],"shifted_pitches":[6,9,6,2,10,11,4,-1],"swapped_pitches":[6,9,6,9,2,11,4,-1],"shift_direction":1,"question_num":161,"has_decoy":false},{"rt":759.9000000059605,"stimulus":"[A] option 1, [L] option 2, [G] neither","key_press":76,"name":"choice","trial_type":"html-keyboard-response","trial_index":197,"time_elapsed":300835,"internal_node_id":"0.0-197.0","subject":"S1C0835","sona":"41825","block":4,"time":"2021-09-18T16:41:44.751Z","response":"2nd","certainty":"high","char":"L","transposition":-1,"order":["shifted","swapped"],"probe_pitches":[11,9,7,4,11,2,4,7],"shifted_pitches":[11,9,7,3,11,2,4,7],"swapped_pitches":[11,9,7,11,4,2,4,7],"shift_direction":-1,"question_num":171,"has_decoy":false},{"rt":493.19999998807907,"stimulus":"[A] option 1, [L] option 2, [G] neither","key_press":76,"name":"choice","trial_type":"html-keyboard-response","trial_index":208,"time_elapsed":315716,"internal_node_id":"0.0-208.0","subject":"S1C0835","sona":"41825","block":4,"time":"2021-09-18T16:41:44.751Z","response":"2nd","certainty":"high","char":"L","transposition":0,"order":["shifted","swapped"],"probe_pitches":[11,8,6,5,3,9,13,12],"shifted_pitches":[11,8,6,4,3,9,13,12],"swapped_pitches":[11,8,6,3,5,9,13,12],"shift_direction":-1,"question_num":181,"has_decoy":false},{"rt":1026.5,"stimulus":"[A] option 1, [L] option 2, [G] neither","key_press":65,"name":"choice","trial_type":"html-keyboard-response","trial_index":219,"time_elapsed":331108,"internal_node_id":"0.0-219.0","subject":"S1C0835","sona":"41825","block":4,"time":"2021-09-18T16:41:44.751Z","response":"1st","certainty":"high","char":"A","transposition":3,"order":["shifted","swapped"],"probe_pitches":[3,6,9,12,6,11,6,14],"shifted_pitches":[3,6,9,13,6,11,6,14],"swapped_pitches":[3,6,9,6,12,11,6,14],"shift_direction":1,"question_num":191,"has_decoy":false}]