[{"rt":2125.2999999821186,"stimulus":"[A] option 1, [L] option 2, [G] neither","key_press":76,"name":"choice","trial_type":"html-keyboard-response","trial_index":10,"time_elapsed":19943,"internal_node_id":"0.0-10.0","subject":"S1C0835","sona":"41825","block":2,"time":"2021-09-18T16:30:36.710Z","response":"2nd","certainty":"high","char":"L","transposition":1,"order":["swapped","shifted"],"probe_pitches":[0,5,4,1,8,-1,9,5],"shifted_pitches":[0,5,4,1,7,-1,9,5],"swapped_pitches":[0,5,4,8,1,-1,9,5],"shift_direction":-1,"question_num":1,"has_decoy":false},{"rt":519.9000000059605,"stimulus":"[A] option 1, [L] option 2, [G] neither","key_press":76,"name":"choice","trial_type":"html-keyboard-response","trial_index":21,"time_elapsed":35863,"internal_node_id":"0.0-21.0","subject":"S1C0835","sona":"41825","block":2,"time":"2021-09-18T16:30:36.710Z","response":"2nd","certainty":"high","char":"L","transposition":-3,"order":["shifted","swapped"],"probe_pitches":[2,-3,3,-2,1,7,5,3],"shifted_pitches":[2,-3,3,-1,1,7,5,3],"swapped_pitches":[2,-3,3,1,-2,7,5,3],"shift_direction":1,"question_num":11,"has_decoy":false},{"rt":3527.899999976158,"stimulus":"[A] option 1, [L] option 2, [G] neither","key_press":71,"name":"choice","trial_type":"html-keyboard-response","trial_index":32,"time_elapsed":54550,"internal_node_id":"0.0-32.0","subject":"S1C0835","sona":"41825","block":2,"time":"2021-09-18T16:30:36.710Z","response":"neither","certainty":"high","char":"G","transposition":2,"order":["swapped","shifted"],"probe_pitches":[8,10,5,0,3,-2,0,3],"shifted_pitches":[8,10,5,0,4,-2,0,3],"swapped_pitches":[8,10,5,3,0,-2,0,3],"shift_direction":1,"question_num":21,"has_decoy":false},{"rt":557,"stimulus":"[A] option 1, [L] option 2, [G] neither","key_press":76,"name":"choice","trial_type":"html-keyboard-response","trial_index":43,"time_elapsed":72150,"internal_node_id":"0.0-43.0","subject":"S1C0835","sona":"41825","block":2,"time":"2021-09-18T16:30:36.710Z","response":"2nd","certainty":"high","char":"L","transposition":0,"order":["shifted","swapped"],"probe_pitches":[-1,-2,5,1,9,7,4,9],"shifted_pitches":[-1,-2,5,1,8,7,4,9],"swapped_pitches":[-1,-2,5,9,1,7,4,9],"shift_direction":-1,"question_num":31,"has_decoy":false},{"rt":295.89999997615814,"stimulus":"[A] option 1, [L] option 2, [G] neither","key_press":76,"name":"choice","trial_type":"html-keyboard-response","trial_index":54,"time_elapsed":87382,"internal_node_id":"0.0-54.0","subject":"S1C0835","sona":"41825","block":2,"time":"2021-09-18T16:30:36.710Z","response":"2nd","certainty":"high","char":"L","transposition":0,"order":["shifted","swapped"],"probe_pitches":[8,3,8,1,3,5,-2,5],"shifted_pitches":[8,3,8,1,2,5,-2,5],"swapped_pitches":[8,3,8,3,1,5,-2,5],"shift_direction":-1,"question_num":41,"has_decoy":false},{"rt":1308.5,"stimulus":"[A] option 1, [L] option 2, [G] neither","key_press":76,"name":"choice","trial_type":"html-keyboard-response","trial_index":65,"time_elapsed":103878,"internal_node_id":"0.0-65.0","subject":"S1C0835","sona":"41825","block":2,"time":"2021-09-18T16:30:36.710Z","response":"2nd","certainty":"high","char":"L","transposition":-1,"order":["shifted","swapped"],"probe_pitches":[9,7,6,4,-3,-1,0,3],"shifted_pitches":[9,7,6,5,-3,-1,0,3],"swapped_pitches":[9,7,6,-3,4,-1,0,3],"shift_direction":1,"question_num":51,"has_decoy":false},{"rt":744,"stimulus":"[A] option 1, [L] option 2, [G] neither","key_press":65,"name":"choice","trial_type":"html-keyboard-response","trial_index":76,"time_elapsed":119429,"internal_node_id":"0.0-76.0","subject":"S1C0835","sona":"41825","block":2,"time":"2021-09-18T16:30:36.710Z","response":"1st","certainty":"high","char":"A","transposition":3,"order":["swapped","shifted"],"probe_pitches":[-2,0,7,5,10,3,-2,3],"shifted_pitches":[-2,0,7,4,10,3,-2,3],"swapped_pitches":[-2,0,7,10,5,3,-2,3],"shift_direction":-1,"question_num":61,"has_decoy":false},{"rt":359.90000000596046,"stimulus":"[A] option 1, [L] option 2, [G] neither","key_press":76,"name":"choice","trial_type":"html-keyboard-response","trial_index":87,"time_elapsed":134549,"internal_node_id":"0.0-87.0","subject":"S1C0835","sona":"41825","block":2,"time":"2021-09-18T16:30:36.710Z","response":"2nd","certainty":"high","char":"L","transposition":-1,"order":["shifted","swapped"],"probe_pitches":[10,7,5,-2,7,0,3,-2],"shifted_pitches":[10,7,5,-2,6,0,3,-2],"swapped_pitches":[10,7,5,7,-2,0,3,-2],"shift_direction":-1,"question_num":71,"has_decoy":false},{"rt":605.1999999880791,"stimulus":"[A] option 1, [L] option 2, [G] neither","key_press":76,"name":"choice","trial_type":"html-keyboard-response","trial_index":98,"time_elapsed":149717,"internal_node_id":"0.0-98.0","subject":"S1C0835","sona":"41825","block":2,"time":"2021-09-18T16:30:36.710Z","response":"2nd","certainty":"high","char":"L","transposition":-3,"order":["shifted","swapped"],"probe_pitches":[2,0,2,-2,0,7,5,0],"shifted_pitches":[2,0,2,-2,-1,7,5,0],"swapped_pitches":[2,0,2,0,-2,7,5,0],"shift_direction":-1,"question_num":81,"has_decoy":false},{"rt":1768,"stimulus":"[A] option 1, [L] option 2, [G] neither","key_press":76,"name":"choice","trial_type":"html-keyboard-response","trial_index":109,"time_elapsed":166117,"internal_node_id":"0.0-109.0","subject":"S1C0835","sona":"41825","block":2,"time":"2021-09-18T16:30:36.710Z","response":"2nd","certainty":"high","char":"L","transposition":1,"order":["swapped","shifted"],"probe_pitches":[3,8,1,3,8,6,3,10],"shifted_pitches":[3,8,1,4,8,6,3,10],"swapped_pitches":[3,8,1,8,3,6,3,10],"shift_direction":1,"question_num":91,"has_decoy":false},{"rt":594.6999999880791,"stimulus":"[A] option 1, [L] option 2, [G] neither","key_press":65,"name":"choice","trial_type":"html-keyboard-response","trial_index":120,"time_elapsed":181829,"internal_node_id":"0.0-120.0","subject":"S1C0835","sona":"41825","block":2,"time":"2021-09-18T16:30:36.710Z","response":"1st","certainty":"high","char":"A","transposition":3,"order":["shifted","swapped"],"probe_pitches":[0,4,2,4,8,0,4,9],"shifted_pitches":[0,4,2,3,8,0,4,9],"swapped_pitches":[0,4,2,8,4,0,4,9],"shift_direction":-1,"question_num":101,"has_decoy":false},{"rt":1815.9000000059605,"stimulus":"[A] option 1, [L] option 2, [G] neither","key_press":71,"name":"choice","trial_type":"html-keyboard-response","trial_index":131,"time_elapsed":198628,"internal_node_id":"0.0-131.0","subject":"S1C0835","sona":"41825","block":2,"time":"2021-09-18T16:30:36.710Z","response":"neither","certainty":"high","char":"G","transposition":2,"order":["swapped","shifted"],"probe_pitches":[1,-2,-3,5,7,1,5,-1],"shifted_pitches":[1,-2,-3,4,7,1,5,-1],"swapped_pitches":[1,-2,-3,7,5,1,5,-1],"shift_direction":-1,"question_num":111,"has_decoy":false},{"rt":5783.800000011921,"stimulus":"[A] option 1, [L] option 2, [G] neither","key_press":65,"name":"choice","trial_type":"html-keyboard-response","trial_index":142,"time_elapsed":219204,"internal_node_id":"0.0-142.0","subject":"S1C0835","sona":"41825","block":2,"time":"2021-09-18T16:30:36.710Z","response":"1st","certainty":"high","char":"A","transposition":-1,"order":["shifted","swapped"],"probe_pitches":[10,8,3,5,-2,1,10,5],"shifted_pitches":[10,8,3,6,-2,1,10,5],"swapped_pitches":[10,8,3,-2,5,1,10,5],"shift_direction":1,"question_num":121,"has_decoy":false},{"rt":871.7999999821186,"stimulus":"[A] option 1, [L] option 2, [G] neither","key_press":76,"name":"choice","trial_type":"html-keyboard-response","trial_index":153,"time_elapsed":234676,"internal_node_id":"0.0-153.0","subject":"S1C0835","sona":"41825","block":2,"time":"2021-09-18T16:30:36.710Z","response":"2nd","certainty":"high","char":"L","transposition":-2,"order":["shifted","swapped"],"probe_pitches":[-1,1,8,3,-1,4,-2,6],"shifted_pitches":[-1,1,8,3,0,4,-2,6],"swapped_pitches":[-1,1,8,-1,3,4,-2,6],"shift_direction":1,"question_num":131,"has_decoy":false},{"rt":535.9000000059605,"stimulus":"[A] option 1, [L] option 2, [G] neither","key_press":76,"name":"choice","trial_type":"html-keyboard-response","trial_index":164,"time_elapsed":250548,"internal_node_id":"0.0-164.0","subject":"S1C0835","sona":"41825","block":2,"time":"2021-09-18T16:30:36.710Z","response":"2nd","certainty":"high","char":"L","transposition":-1,"order":["swapped","shifted"],"probe_pitches":[-1,1,8,5,-3,2,-3,9],"shifted_pitches":[-1,1,8,6,-3,2,-3,9],"swapped_pitches":[-1,1,8,-3,5,2,-3,9],"shift_direction":1,"question_num":141,"has_decoy":false},{"rt":1319.9000000059605,"stimulus":"[A] option 1, [L] option 2, [G] neither","key_press":65,"name":"choice","trial_type":"html-keyboard-response","trial_index":175,"time_elapsed":266564,"internal_node_id":"0.0-175.0","subject":"S1C0835","sona":"41825","block":2,"time":"2021-09-18T16:30:36.710Z","response":"1st","certainty":"high","char":"A","transposition":-2,"order":["swapped","shifted"],"probe_pitches":[6,7,3,9,2,8,5,8],"shifted_pitches":[6,7,3,9,1,8,5,8],"swapped_pitches":[6,7,3,2,9,8,5,8],"shift_direction":-1,"question_num":151,"has_decoy":false},{"rt":781.1999999880791,"stimulus":"[A] option 1, [L] option 2, [G] neither","key_press":65,"name":"choice","trial_type":"html-keyboard-response","trial_index":186,"time_elapsed":282212,"internal_node_id":"0.0-186.0","subject":"S1C0835","sona":"41825","block":2,"time":"2021-09-18T16:30:36.710Z","response":"1st","certainty":"high","char":"A","transposition":-3,"order":["swapped","shifted"],"probe_pitches":[8,4,8,0,1,-1,-2,3],"shifted_pitches":[8,4,8,0,2,-1,-2,3],"swapped_pitches":[8,4,8,1,0,-1,-2,3],"shift_direction":1,"question_num":161,"has_decoy":false},{"rt":418.5,"stimulus":"[A] option 1, [L] option 2, [G] neither","key_press":76,"name":"choice","trial_type":"html-keyboard-response","trial_index":197,"time_elapsed":297267,"internal_node_id":"0.0-197.0","subject":"S1C0835","sona":"41825","block":2,"time":"2021-09-18T16:30:36.710Z","response":"2nd","certainty":"high","char":"L","transposition":-3,"order":["swapped","shifted"],"probe_pitches":[-2,3,-2,5,8,0,8,5],"shifted_pitches":[-2,3,-2,5,9,0,8,5],"swapped_pitches":[-2,3,-2,8,5,0,8,5],"shift_direction":1,"question_num":171,"has_decoy":false},{"rt":679.0999999940395,"stimulus":"[A] option 1, [L] option 2, [G] neither","key_press":65,"name":"choice","trial_type":"html-keyboard-response","trial_index":208,"time_elapsed":312355,"internal_node_id":"0.0-208.0","subject":"S1C0835","sona":"41825","block":2,"time":"2021-09-18T16:30:36.710Z","response":"1st","certainty":"high","char":"A","transposition":-2,"order":["shifted","swapped"],"probe_pitches":[3,6,8,1,-2,6,-2,10],"shifted_pitches":[3,6,8,2,-2,6,-2,10],"swapped_pitches":[3,6,8,-2,1,6,-2,10],"shift_direction":1,"question_num":181,"has_decoy":false},{"rt":359.90000000596046,"stimulus":"[A] option 1, [L] option 2, [G] neither","key_press":76,"name":"choice","trial_type":"html-keyboard-response","trial_index":219,"time_elapsed":327075,"internal_node_id":"0.0-219.0","subject":"S1C0835","sona":"41825","block":2,"time":"2021-09-18T16:30:36.710Z","response":"2nd","certainty":"high","char":"L","transposition":-2,"order":["swapped","shifted"],"probe_pitches":[-2,0,2,0,7,10,5,0],"shifted_pitches":[-2,0,2,-1,7,10,5,0],"swapped_pitches":[-2,0,2,7,0,10,5,0],"shift_direction":-1,"question_num":191,"has_decoy":false}]