[{"rt":1079.300000000745,"stimulus":"[A] option 1, [L] option 2, [G] neither","key_press":71,"name":"choice","trial_type":"html-keyboard-response","trial_index":10,"time_elapsed":20649,"internal_node_id":"0.0-10.0","subject":"S1C1209","sona":"41429","block":6,"time":"2021-09-08T22:23:55.744Z","response":"neither","certainty":"high","char":"G","transposition":2,"order":["shifted","swapped"],"probe_pitches":[5,9,8,5,1,0,3,1,-1,0,8,9],"shifted_pitches":[5,9,8,5,1,0,2,1,-1,0,8,9],"swapped_pitches":[5,9,8,5,1,3,0,1,-1,0,8,9],"shift_direction":-1,"question_num":1,"has_decoy":false},{"rt":1468.699999999255,"stimulus":"[A] option 1, [L] option 2, [G] neither","key_press":65,"name":"choice","trial_type":"html-keyboard-response","trial_index":21,"time_elapsed":40526,"internal_node_id":"0.0-21.0","subject":"S1C1209","sona":"41429","block":6,"time":"2021-09-08T22:23:55.744Z","response":"1st","certainty":"high","char":"A","transposition":0,"order":["shifted","swapped"],"probe_pitches":[6,2,-1,-3,-1,2,5,6,8,7,1,6],"shifted_pitches":[6,2,-1,-3,-1,2,4,6,8,7,1,6],"swapped_pitches":[6,2,-1,-3,-1,5,2,6,8,7,1,6],"shift_direction":-1,"question_num":11,"has_decoy":false},{"rt":1147.1000000014901,"stimulus":"[A] option 1, [L] option 2, [G] neither","key_press":76,"name":"choice","trial_type":"html-keyboard-response","trial_index":32,"time_elapsed":62204,"internal_node_id":"0.0-32.0","subject":"S1C1209","sona":"41429","block":6,"time":"2021-09-08T22:23:55.744Z","response":"2nd","certainty":"high","char":"L","transposition":-2,"order":["shifted","swapped"],"probe_pitches":[-3,0,-2,-1,7,2,-3,0,3,9,-3,8],"shifted_pitches":[-3,0,-2,-1,7,1,-3,0,3,9,-3,8],"swapped_pitches":[-3,0,-2,-1,7,-3,2,0,3,9,-3,8],"shift_direction":-1,"question_num":21,"has_decoy":false},{"rt":544.5,"stimulus":"[A] option 1, [L] option 2, [G] neither","key_press":76,"name":"choice","trial_type":"html-keyboard-response","trial_index":43,"time_elapsed":82113,"internal_node_id":"0.0-43.0","subject":"S1C1209","sona":"41429","block":6,"time":"2021-09-08T22:23:55.744Z","response":"2nd","certainty":"high","char":"L","transposition":2,"order":["swapped","shifted"],"probe_pitches":[4,9,4,2,4,11,9,-1,7,11,7,11],"shifted_pitches":[4,9,4,2,4,12,9,-1,7,11,7,11],"swapped_pitches":[4,9,4,2,4,9,11,-1,7,11,7,11],"shift_direction":1,"question_num":31,"has_decoy":false},{"rt":2874.89999999851,"stimulus":"[A] option 1, [L] option 2, [G] neither","key_press":71,"name":"choice","trial_type":"html-keyboard-response","trial_index":54,"time_elapsed":103771,"internal_node_id":"0.0-54.0","subject":"S1C1209","sona":"41429","block":6,"time":"2021-09-08T22:23:55.744Z","response":"neither","certainty":"high","char":"G","transposition":-2,"order":["swapped","shifted"],"probe_pitches":[7,4,7,3,4,6,-2,0,-2,0,-2,4],"shifted_pitches":[7,4,7,3,4,6,-1,0,-2,0,-2,4],"swapped_pitches":[7,4,7,3,4,-2,6,0,-2,0,-2,4],"shift_direction":1,"question_num":41,"has_decoy":false},{"rt":2348.199999999255,"stimulus":"[A] option 1, [L] option 2, [G] neither","key_press":65,"name":"choice","trial_type":"html-keyboard-response","trial_index":65,"time_elapsed":125532,"internal_node_id":"0.0-65.0","subject":"S1C1209","sona":"41429","block":6,"time":"2021-09-08T22:23:55.744Z","response":"1st","certainty":"high","char":"A","transposition":1,"order":["shifted","swapped"],"probe_pitches":[9,8,9,3,-3,-1,1,3,8,-1,3,-3],"shifted_pitches":[9,8,9,3,-3,0,1,3,8,-1,3,-3],"swapped_pitches":[9,8,9,3,-3,1,-1,3,8,-1,3,-3],"shift_direction":1,"question_num":51,"has_decoy":false},{"rt":479.19999999925494,"stimulus":"[A] option 1, [L] option 2, [G] neither","key_press":76,"name":"choice","trial_type":"html-keyboard-response","trial_index":76,"time_elapsed":144783,"internal_node_id":"0.0-76.0","subject":"S1C1209","sona":"41429","block":6,"time":"2021-09-08T22:23:55.744Z","response":"2nd","certainty":"high","char":"L","transposition":-2,"order":["swapped","shifted"],"probe_pitches":[4,6,11,6,2,11,6,-1,9,6,2,6],"shifted_pitches":[4,6,11,6,2,11,5,-1,9,6,2,6],"swapped_pitches":[4,6,11,6,2,6,11,-1,9,6,2,6],"shift_direction":-1,"question_num":61,"has_decoy":false},{"rt":457.6000000014901,"stimulus":"[A] option 1, [L] option 2, [G] neither","key_press":76,"name":"choice","trial_type":"html-keyboard-response","trial_index":87,"time_elapsed":163817,"internal_node_id":"0.0-87.0","subject":"S1C1209","sona":"41429","block":6,"time":"2021-09-08T22:23:55.744Z","response":"2nd","certainty":"high","char":"L","transposition":-3,"order":["shifted","swapped"],"probe_pitches":[11,6,4,11,4,9,1,11,9,-1,4,-1],"shifted_pitches":[11,6,4,11,4,9,2,11,9,-1,4,-1],"swapped_pitches":[11,6,4,11,4,1,9,11,9,-1,4,-1],"shift_direction":1,"question_num":71,"has_decoy":false},{"rt":1705.800000000745,"stimulus":"[A] option 1, [L] option 2, [G] neither","key_press":65,"name":"choice","trial_type":"html-keyboard-response","trial_index":98,"time_elapsed":184521,"internal_node_id":"0.0-98.0","subject":"S1C1209","sona":"41429","block":6,"time":"2021-09-08T22:23:55.744Z","response":"1st","certainty":"high","char":"A","transposition":-1,"order":["swapped","shifted"],"probe_pitches":[-1,5,-2,-1,-2,6,1,9,5,8,9,4],"shifted_pitches":[-1,5,-2,-1,-2,7,1,9,5,8,9,4],"swapped_pitches":[-1,5,-2,-1,-2,1,6,9,5,8,9,4],"shift_direction":1,"question_num":81,"has_decoy":false},{"rt":1492.6000000014901,"stimulus":"[A] option 1, [L] option 2, [G] neither","key_press":65,"name":"choice","trial_type":"html-keyboard-response","trial_index":109,"time_elapsed":204595,"internal_node_id":"0.0-109.0","subject":"S1C1209","sona":"41429","block":6,"time":"2021-09-08T22:23:55.744Z","response":"1st","certainty":"high","char":"A","transposition":3,"order":["swapped","shifted"],"probe_pitches":[4,9,7,5,-3,7,3,6,9,3,-3,0],"shifted_pitches":[4,9,7,5,-3,8,3,6,9,3,-3,0],"swapped_pitches":[4,9,7,5,-3,3,7,6,9,3,-3,0],"shift_direction":1,"question_num":91,"has_decoy":false},{"rt":992.3000000007451,"stimulus":"[A] option 1, [L] option 2, [G] neither","key_press":76,"name":"choice","trial_type":"html-keyboard-response","trial_index":120,"time_elapsed":224287,"internal_node_id":"0.0-120.0","subject":"S1C1209","sona":"41429","block":6,"time":"2021-09-08T22:23:55.744Z","response":"2nd","certainty":"high","char":"L","transposition":-1,"order":["shifted","swapped"],"probe_pitches":[-1,1,6,8,6,11,8,6,4,11,8,11],"shifted_pitches":[-1,1,6,8,6,11,9,6,4,11,8,11],"swapped_pitches":[-1,1,6,8,6,8,11,6,4,11,8,11],"shift_direction":1,"question_num":101,"has_decoy":false},{"rt":554.2000000029802,"stimulus":"[A] option 1, [L] option 2, [G] neither","key_press":76,"name":"choice","trial_type":"html-keyboard-response","trial_index":131,"time_elapsed":243838,"internal_node_id":"0.0-131.0","subject":"S1C1209","sona":"41429","block":6,"time":"2021-09-08T22:23:55.744Z","response":"2nd","certainty":"high","char":"L","transposition":-1,"order":["swapped","shifted"],"probe_pitches":[6,9,4,11,4,2,11,-1,6,11,9,-1],"shifted_pitches":[6,9,4,11,4,3,11,-1,6,11,9,-1],"swapped_pitches":[6,9,4,11,4,11,2,-1,6,11,9,-1],"shift_direction":1,"question_num":111,"has_decoy":false},{"rt":685.8000000007451,"stimulus":"[A] option 1, [L] option 2, [G] neither","key_press":76,"name":"choice","trial_type":"html-keyboard-response","trial_index":142,"time_elapsed":266675,"internal_node_id":"0.0-142.0","subject":"S1C1209","sona":"41429","block":6,"time":"2021-09-08T22:23:55.744Z","response":"2nd","certainty":"high","char":"L","transposition":3,"order":["swapped","shifted"],"probe_pitches":[1,3,8,1,6,1,-1,3,6,8,1,-1],"shifted_pitches":[1,3,8,1,6,0,-1,3,6,8,1,-1],"swapped_pitches":[1,3,8,1,6,-1,1,3,6,8,1,-1],"shift_direction":-1,"question_num":121,"has_decoy":false},{"rt":563.1000000014901,"stimulus":"[A] option 1, [L] option 2, [G] neither","key_press":65,"name":"choice","trial_type":"html-keyboard-response","trial_index":153,"time_elapsed":286760,"internal_node_id":"0.0-153.0","subject":"S1C1209","sona":"41429","block":6,"time":"2021-09-08T22:23:55.744Z","response":"1st","certainty":"high","char":"A","transposition":-2,"order":["shifted","swapped"],"probe_pitches":[-1,1,6,9,1,-1,4,1,9,6,1,-1],"shifted_pitches":[-1,1,6,9,1,-2,4,1,9,6,1,-1],"swapped_pitches":[-1,1,6,9,1,4,-1,1,9,6,1,-1],"shift_direction":-1,"question_num":131,"has_decoy":false},{"rt":588.3999999985099,"stimulus":"[A] option 1, [L] option 2, [G] neither","key_press":65,"name":"choice","trial_type":"html-keyboard-response","trial_index":164,"time_elapsed":306449,"internal_node_id":"0.0-164.0","subject":"S1C1209","sona":"41429","block":6,"time":"2021-09-08T22:23:55.744Z","response":"1st","certainty":"high","char":"A","transposition":0,"order":["swapped","shifted"],"probe_pitches":[4,8,11,6,-1,1,6,11,4,8,-1,4],"shifted_pitches":[4,8,11,6,-1,2,6,11,4,8,-1,4],"swapped_pitches":[4,8,11,6,-1,6,1,11,4,8,-1,4],"shift_direction":1,"question_num":141,"has_decoy":false},{"rt":4692.10000000149,"stimulus":"[A] option 1, [L] option 2, [G] neither","key_press":76,"name":"choice","trial_type":"html-keyboard-response","trial_index":175,"time_elapsed":330745,"internal_node_id":"0.0-175.0","subject":"S1C1209","sona":"41429","block":6,"time":"2021-09-08T22:23:55.744Z","response":"2nd","certainty":"high","char":"L","transposition":-3,"order":["shifted","swapped"],"probe_pitches":[1,6,-1,6,-1,8,6,1,3,1,11,3],"shifted_pitches":[1,6,-1,6,-1,8,5,1,3,1,11,3],"swapped_pitches":[1,6,-1,6,-1,6,8,1,3,1,11,3],"shift_direction":-1,"question_num":151,"has_decoy":false},{"rt":1207.699999999255,"stimulus":"[A] option 1, [L] option 2, [G] neither","key_press":76,"name":"choice","trial_type":"html-keyboard-response","trial_index":186,"time_elapsed":351420,"internal_node_id":"0.0-186.0","subject":"S1C1209","sona":"41429","block":6,"time":"2021-09-08T22:23:55.744Z","response":"2nd","certainty":"high","char":"L","transposition":-1,"order":["swapped","shifted"],"probe_pitches":[1,-3,4,7,4,6,-3,2,9,0,9,0],"shifted_pitches":[1,-3,4,7,4,5,-3,2,9,0,9,0],"swapped_pitches":[1,-3,4,7,4,-3,6,2,9,0,9,0],"shift_direction":-1,"question_num":161,"has_decoy":false},{"rt":2707.5,"stimulus":"[A] option 1, [L] option 2, [G] neither","key_press":65,"name":"choice","trial_type":"html-keyboard-response","trial_index":197,"time_elapsed":373096,"internal_node_id":"0.0-197.0","subject":"S1C1209","sona":"41429","block":6,"time":"2021-09-08T22:23:55.744Z","response":"1st","certainty":"high","char":"A","transposition":-3,"order":["swapped","shifted"],"probe_pitches":[7,1,-3,-2,7,5,2,9,6,5,0,6],"shifted_pitches":[7,1,-3,-2,7,5,3,9,6,5,0,6],"swapped_pitches":[7,1,-3,-2,7,2,5,9,6,5,0,6],"shift_direction":1,"question_num":171,"has_decoy":false},{"rt":1945.6000000014901,"stimulus":"[A] option 1, [L] option 2, [G] neither","key_press":76,"name":"choice","trial_type":"html-keyboard-response","trial_index":208,"time_elapsed":394989,"internal_node_id":"0.0-208.0","subject":"S1C1209","sona":"41429","block":6,"time":"2021-09-08T22:23:55.744Z","response":"2nd","certainty":"high","char":"L","transposition":-3,"order":["shifted","swapped"],"probe_pitches":[4,8,1,5,8,-2,7,-1,1,-3,-2,5],"shifted_pitches":[4,8,1,5,8,-2,6,-1,1,-3,-2,5],"swapped_pitches":[4,8,1,5,8,7,-2,-1,1,-3,-2,5],"shift_direction":-1,"question_num":181,"has_decoy":false},{"rt":1463.5,"stimulus":"[A] option 1, [L] option 2, [G] neither","key_press":65,"name":"choice","trial_type":"html-keyboard-response","trial_index":219,"time_elapsed":415259,"internal_node_id":"0.0-219.0","subject":"S1C1209","sona":"41429","block":6,"time":"2021-09-08T22:23:55.744Z","response":"1st","certainty":"high","char":"A","transposition":1,"order":["shifted","swapped"],"probe_pitches":[11,7,9,7,4,11,9,4,7,-1,4,2],"shifted_pitches":[11,7,9,7,4,11,8,4,7,-1,4,2],"swapped_pitches":[11,7,9,7,4,9,11,4,7,-1,4,2],"shift_direction":-1,"question_num":191,"has_decoy":false}]