[{"rt":3373.9000000003725,"stimulus":"[A] option 1, [L] option 2, [G] neither","key_press":76,"name":"choice","trial_type":"html-keyboard-response","trial_index":10,"time_elapsed":24462,"internal_node_id":"0.0-10.0","subject":"S1C1209","sona":"41429","block":3,"time":"2021-09-08T22:01:11.603Z","response":"2nd","certainty":"high","char":"L","transposition":1,"order":["swapped","shifted"],"probe_pitches":[4,6,2,-1,6,4,-1,2,-1,11,-1,9],"shifted_pitches":[4,6,2,-1,6,3,-1,2,-1,11,-1,9],"swapped_pitches":[4,6,2,-1,6,-1,4,2,-1,11,-1,9],"shift_direction":-1,"question_num":1,"has_decoy":false},{"rt":734.4000000003725,"stimulus":"[A] option 1, [L] option 2, [G] neither","key_press":65,"name":"choice","trial_type":"html-keyboard-response","trial_index":21,"time_elapsed":44478,"internal_node_id":"0.0-21.0","subject":"S1C1209","sona":"41429","block":3,"time":"2021-09-08T22:01:11.603Z","response":"1st","certainty":"high","char":"A","transposition":-1,"order":["shifted","swapped"],"probe_pitches":[1,2,0,2,4,1,6,5,11,8,5,11],"shifted_pitches":[1,2,0,2,4,1,7,5,11,8,5,11],"swapped_pitches":[1,2,0,2,4,6,1,5,11,8,5,11],"shift_direction":1,"question_num":11,"has_decoy":false},{"rt":575.6999999992549,"stimulus":"[A] option 1, [L] option 2, [G] neither","key_press":76,"name":"choice","trial_type":"html-keyboard-response","trial_index":32,"time_elapsed":63519,"internal_node_id":"0.0-32.0","subject":"S1C1209","sona":"41429","block":3,"time":"2021-09-08T22:01:11.603Z","response":"2nd","certainty":"high","char":"L","transposition":-1,"order":["swapped","shifted"],"probe_pitches":[11,6,11,4,-1,6,8,-1,11,-1,1,6],"shifted_pitches":[11,6,11,4,-1,6,7,-1,11,-1,1,6],"swapped_pitches":[11,6,11,4,-1,8,6,-1,11,-1,1,6],"shift_direction":-1,"question_num":21,"has_decoy":false},{"rt":871.5,"stimulus":"[A] option 1, [L] option 2, [G] neither","key_press":65,"name":"choice","trial_type":"html-keyboard-response","trial_index":43,"time_elapsed":83111,"internal_node_id":"0.0-43.0","subject":"S1C1209","sona":"41429","block":3,"time":"2021-09-08T22:01:11.603Z","response":"1st","certainty":"high","char":"A","transposition":-2,"order":["shifted","swapped"],"probe_pitches":[0,1,0,5,9,5,2,11,9,3,9,11],"shifted_pitches":[0,1,0,5,9,6,2,11,9,3,9,11],"swapped_pitches":[0,1,0,5,9,2,5,11,9,3,9,11],"shift_direction":1,"question_num":31,"has_decoy":false},{"rt":474.40000000037253,"stimulus":"[A] option 1, [L] option 2, [G] neither","key_press":76,"name":"choice","trial_type":"html-keyboard-response","trial_index":54,"time_elapsed":102073,"internal_node_id":"0.0-54.0","subject":"S1C1209","sona":"41429","block":3,"time":"2021-09-08T22:01:11.603Z","response":"2nd","certainty":"high","char":"L","transposition":-1,"order":["swapped","shifted"],"probe_pitches":[7,11,4,-1,2,11,9,4,2,11,-1,11],"shifted_pitches":[7,11,4,-1,2,11,10,4,2,11,-1,11],"swapped_pitches":[7,11,4,-1,2,9,11,4,2,11,-1,11],"shift_direction":1,"question_num":41,"has_decoy":false},{"rt":954,"stimulus":"[A] option 1, [L] option 2, [G] neither","key_press":65,"name":"choice","trial_type":"html-keyboard-response","trial_index":65,"time_elapsed":121833,"internal_node_id":"0.0-65.0","subject":"S1C1209","sona":"41429","block":3,"time":"2021-09-08T22:01:11.603Z","response":"1st","certainty":"high","char":"A","transposition":-2,"order":["shifted","swapped"],"probe_pitches":[4,-1,4,1,8,11,4,6,4,11,-1,6],"shifted_pitches":[4,-1,4,1,8,12,4,6,4,11,-1,6],"swapped_pitches":[4,-1,4,1,8,4,11,6,4,11,-1,6],"shift_direction":1,"question_num":51,"has_decoy":false},{"rt":896.5,"stimulus":"[A] option 1, [L] option 2, [G] neither","key_press":65,"name":"choice","trial_type":"html-keyboard-response","trial_index":76,"time_elapsed":141662,"internal_node_id":"0.0-76.0","subject":"S1C1209","sona":"41429","block":3,"time":"2021-09-08T22:01:11.603Z","response":"1st","certainty":"high","char":"A","transposition":0,"order":["swapped","shifted"],"probe_pitches":[2,7,9,7,-1,4,2,-1,4,9,2,9],"shifted_pitches":[2,7,9,7,-1,3,2,-1,4,9,2,9],"swapped_pitches":[2,7,9,7,-1,2,4,-1,4,9,2,9],"shift_direction":-1,"question_num":61,"has_decoy":false},{"rt":773.1999999992549,"stimulus":"[A] option 1, [L] option 2, [G] neither","key_press":65,"name":"choice","trial_type":"html-keyboard-response","trial_index":87,"time_elapsed":161683,"internal_node_id":"0.0-87.0","subject":"S1C1209","sona":"41429","block":3,"time":"2021-09-08T22:01:11.603Z","response":"1st","certainty":"high","char":"A","transposition":-2,"order":["shifted","swapped"],"probe_pitches":[-1,4,1,4,11,1,6,-1,9,11,1,11],"shifted_pitches":[-1,4,1,4,11,1,7,-1,9,11,1,11],"swapped_pitches":[-1,4,1,4,11,6,1,-1,9,11,1,11],"shift_direction":1,"question_num":71,"has_decoy":false},{"rt":1027.0999999996275,"stimulus":"[A] option 1, [L] option 2, [G] neither","key_press":65,"name":"choice","trial_type":"html-keyboard-response","trial_index":98,"time_elapsed":181760,"internal_node_id":"0.0-98.0","subject":"S1C1209","sona":"41429","block":3,"time":"2021-09-08T22:01:11.603Z","response":"1st","certainty":"high","char":"A","transposition":3,"order":["shifted","swapped"],"probe_pitches":[6,10,6,10,4,5,10,4,11,0,6,4],"shifted_pitches":[6,10,6,10,4,5,9,4,11,0,6,4],"swapped_pitches":[6,10,6,10,4,10,5,4,11,0,6,4],"shift_direction":-1,"question_num":81,"has_decoy":false},{"rt":1046.699999999255,"stimulus":"[A] option 1, [L] option 2, [G] neither","key_press":76,"name":"choice","trial_type":"html-keyboard-response","trial_index":109,"time_elapsed":201604,"internal_node_id":"0.0-109.0","subject":"S1C1209","sona":"41429","block":3,"time":"2021-09-08T22:01:11.603Z","response":"2nd","certainty":"high","char":"L","transposition":-1,"order":["swapped","shifted"],"probe_pitches":[0,2,9,2,5,4,11,5,1,11,9,5],"shifted_pitches":[0,2,9,2,5,3,11,5,1,11,9,5],"swapped_pitches":[0,2,9,2,5,11,4,5,1,11,9,5],"shift_direction":-1,"question_num":91,"has_decoy":false},{"rt":10365.5,"stimulus":"[A] option 1, [L] option 2, [G] neither","key_press":76,"name":"choice","trial_type":"html-keyboard-response","trial_index":120,"time_elapsed":231274,"internal_node_id":"0.0-120.0","subject":"S1C1209","sona":"41429","block":3,"time":"2021-09-08T22:01:11.603Z","response":"2nd","certainty":"high","char":"L","transposition":2,"order":["shifted","swapped"],"probe_pitches":[12,6,9,6,8,5,6,1,0,3,1,3],"shifted_pitches":[12,6,9,6,8,4,6,1,0,3,1,3],"swapped_pitches":[12,6,9,6,8,6,5,1,0,3,1,3],"shift_direction":-1,"question_num":101,"has_decoy":false},{"rt":555.6999999992549,"stimulus":"[A] option 1, [L] option 2, [G] neither","key_press":76,"name":"choice","trial_type":"html-keyboard-response","trial_index":131,"time_elapsed":253799,"internal_node_id":"0.0-131.0","subject":"S1C1209","sona":"41429","block":3,"time":"2021-09-08T22:01:11.603Z","response":"2nd","certainty":"high","char":"L","transposition":-3,"order":["shifted","swapped"],"probe_pitches":[1,6,9,4,11,9,-1,11,6,-1,1,9],"shifted_pitches":[1,6,9,4,11,9,0,11,6,-1,1,9],"swapped_pitches":[1,6,9,4,11,-1,9,11,6,-1,1,9],"shift_direction":1,"question_num":111,"has_decoy":false},{"rt":4561.799999998882,"stimulus":"[A] option 1, [L] option 2, [G] neither","key_press":65,"name":"choice","trial_type":"html-keyboard-response","trial_index":142,"time_elapsed":277453,"internal_node_id":"0.0-142.0","subject":"S1C1209","sona":"41429","block":3,"time":"2021-09-08T22:01:11.603Z","response":"1st","certainty":"high","char":"A","transposition":3,"order":["shifted","swapped"],"probe_pitches":[1,6,3,11,3,1,-1,8,-1,11,6,11],"shifted_pitches":[1,6,3,11,3,2,-1,8,-1,11,6,11],"swapped_pitches":[1,6,3,11,3,-1,1,8,-1,11,6,11],"shift_direction":1,"question_num":121,"has_decoy":false},{"rt":699.5,"stimulus":"[A] option 1, [L] option 2, [G] neither","key_press":76,"name":"choice","trial_type":"html-keyboard-response","trial_index":153,"time_elapsed":298294,"internal_node_id":"0.0-153.0","subject":"S1C1209","sona":"41429","block":3,"time":"2021-09-08T22:01:11.603Z","response":"2nd","certainty":"high","char":"L","transposition":-3,"order":["swapped","shifted"],"probe_pitches":[7,3,2,10,12,4,9,7,12,9,12,6],"shifted_pitches":[7,3,2,10,12,5,9,7,12,9,12,6],"swapped_pitches":[7,3,2,10,12,9,4,7,12,9,12,6],"shift_direction":1,"question_num":131,"has_decoy":false},{"rt":4142.300000000745,"stimulus":"[A] option 1, [L] option 2, [G] neither","key_press":65,"name":"choice","trial_type":"html-keyboard-response","trial_index":164,"time_elapsed":320920,"internal_node_id":"0.0-164.0","subject":"S1C1209","sona":"41429","block":3,"time":"2021-09-08T22:01:11.603Z","response":"1st","certainty":"high","char":"A","transposition":-3,"order":["shifted","swapped"],"probe_pitches":[0,2,5,1,8,10,0,5,2,7,8,6],"shifted_pitches":[0,2,5,1,8,11,0,5,2,7,8,6],"swapped_pitches":[0,2,5,1,8,0,10,5,2,7,8,6],"shift_direction":1,"question_num":141,"has_decoy":false},{"rt":867,"stimulus":"[A] option 1, [L] option 2, [G] neither","key_press":76,"name":"choice","trial_type":"html-keyboard-response","trial_index":175,"time_elapsed":340589,"internal_node_id":"0.0-175.0","subject":"S1C1209","sona":"41429","block":3,"time":"2021-09-08T22:01:11.603Z","response":"2nd","certainty":"high","char":"L","transposition":-2,"order":["swapped","shifted"],"probe_pitches":[6,8,5,4,3,12,11,9,7,5,0,8],"shifted_pitches":[6,8,5,4,3,12,10,9,7,5,0,8],"swapped_pitches":[6,8,5,4,3,11,12,9,7,5,0,8],"shift_direction":-1,"question_num":151,"has_decoy":false},{"rt":776.8000000007451,"stimulus":"[A] option 1, [L] option 2, [G] neither","key_press":65,"name":"choice","trial_type":"html-keyboard-response","trial_index":186,"time_elapsed":360739,"internal_node_id":"0.0-186.0","subject":"S1C1209","sona":"41429","block":3,"time":"2021-09-08T22:01:11.603Z","response":"1st","certainty":"high","char":"A","transposition":0,"order":["swapped","shifted"],"probe_pitches":[5,4,9,6,10,12,1,0,3,8,9,7],"shifted_pitches":[5,4,9,6,10,12,2,0,3,8,9,7],"swapped_pitches":[5,4,9,6,10,1,12,0,3,8,9,7],"shift_direction":1,"question_num":161,"has_decoy":false},{"rt":1471.9000000003725,"stimulus":"[A] option 1, [L] option 2, [G] neither","key_press":76,"name":"choice","trial_type":"html-keyboard-response","trial_index":197,"time_elapsed":381113,"internal_node_id":"0.0-197.0","subject":"S1C1209","sona":"41429","block":3,"time":"2021-09-08T22:01:11.603Z","response":"2nd","certainty":"high","char":"L","transposition":-3,"order":["shifted","swapped"],"probe_pitches":[11,6,8,11,3,1,-1,6,1,8,6,8],"shifted_pitches":[11,6,8,11,3,0,-1,6,1,8,6,8],"swapped_pitches":[11,6,8,11,3,-1,1,6,1,8,6,8],"shift_direction":-1,"question_num":171,"has_decoy":false},{"rt":1333.9000000003725,"stimulus":"[A] option 1, [L] option 2, [G] neither","key_press":71,"name":"choice","trial_type":"html-keyboard-response","trial_index":208,"time_elapsed":401263,"internal_node_id":"0.0-208.0","subject":"S1C1209","sona":"41429","block":3,"time":"2021-09-08T22:01:11.603Z","response":"neither","certainty":"high","char":"G","transposition":1,"order":["swapped","shifted"],"probe_pitches":[2,3,6,7,11,4,9,3,7,2,3,10],"shifted_pitches":[2,3,6,7,11,4,8,3,7,2,3,10],"swapped_pitches":[2,3,6,7,11,9,4,3,7,2,3,10],"shift_direction":-1,"question_num":181,"has_decoy":false},{"rt":619.5999999996275,"stimulus":"[A] option 1, [L] option 2, [G] neither","key_press":76,"name":"choice","trial_type":"html-keyboard-response","trial_index":219,"time_elapsed":421284,"internal_node_id":"0.0-219.0","subject":"S1C1209","sona":"41429","block":3,"time":"2021-09-08T22:01:11.603Z","response":"2nd","certainty":"high","char":"L","transposition":2,"order":["swapped","shifted"],"probe_pitches":[6,9,4,9,2,6,11,4,11,9,4,2],"shifted_pitches":[6,9,4,9,2,6,10,4,11,9,4,2],"swapped_pitches":[6,9,4,9,2,11,6,4,11,9,4,2],"shift_direction":-1,"question_num":191,"has_decoy":false}]