[{"rt":3508.800000000745,"stimulus":"[A] option 1, [L] option 2, [G] neither","key_press":65,"name":"choice","trial_type":"html-keyboard-response","trial_index":10,"time_elapsed":25312,"internal_node_id":"0.0-10.0","subject":"S1C1209","sona":"41429","block":2,"time":"2021-09-08T21:53:03.423Z","response":"1st","certainty":"high","char":"A","transposition":-2,"order":["swapped","shifted"],"probe_pitches":[-3,0,-3,0,-3,5,2,9,5,0,9,7],"shifted_pitches":[-3,0,-3,0,-3,5,3,9,5,0,9,7],"swapped_pitches":[-3,0,-3,0,-3,2,5,9,5,0,9,7],"shift_direction":1,"question_num":1,"has_decoy":false},{"rt":934.0999999996275,"stimulus":"[A] option 1, [L] option 2, [G] neither","key_press":76,"name":"choice","trial_type":"html-keyboard-response","trial_index":21,"time_elapsed":78848,"internal_node_id":"0.0-21.0","subject":"S1C1209","sona":"41429","block":2,"time":"2021-09-08T21:53:03.423Z","response":"2nd","certainty":"high","char":"L","transposition":-2,"order":["shifted","swapped"],"probe_pitches":[6,10,6,-2,4,6,3,-1,8,5,0,-2],"shifted_pitches":[6,10,6,-2,4,7,3,-1,8,5,0,-2],"swapped_pitches":[6,10,6,-2,4,3,6,-1,8,5,0,-2],"shift_direction":1,"question_num":11,"has_decoy":false},{"rt":2100.800000000745,"stimulus":"[A] option 1, [L] option 2, [G] neither","key_press":65,"name":"choice","trial_type":"html-keyboard-response","trial_index":32,"time_elapsed":130029,"internal_node_id":"0.0-32.0","subject":"S1C1209","sona":"41429","block":2,"time":"2021-09-08T21:53:03.423Z","response":"1st","certainty":"high","char":"A","transposition":0,"order":["swapped","shifted"],"probe_pitches":[3,5,6,3,-2,1,-1,4,6,1,4,2],"shifted_pitches":[3,5,6,3,-2,0,-1,4,6,1,4,2],"swapped_pitches":[3,5,6,3,-2,-1,1,4,6,1,4,2],"shift_direction":-1,"question_num":21,"has_decoy":false},{"rt":2362.199999999255,"stimulus":"[A] option 1, [L] option 2, [G] neither","key_press":65,"name":"choice","trial_type":"html-keyboard-response","trial_index":43,"time_elapsed":221488,"internal_node_id":"0.0-43.0","subject":"S1C1209","sona":"41429","block":2,"time":"2021-09-08T21:53:03.423Z","response":"1st","certainty":"high","char":"A","transposition":-3,"order":["swapped","shifted"],"probe_pitches":[0,4,0,2,4,9,7,2,-3,9,0,4],"shifted_pitches":[0,4,0,2,4,9,6,2,-3,9,0,4],"swapped_pitches":[0,4,0,2,4,7,9,2,-3,9,0,4],"shift_direction":-1,"question_num":31,"has_decoy":false},{"rt":613.5999999996275,"stimulus":"[A] option 1, [L] option 2, [G] neither","key_press":76,"name":"choice","trial_type":"html-keyboard-response","trial_index":54,"time_elapsed":241227,"internal_node_id":"0.0-54.0","subject":"S1C1209","sona":"41429","block":2,"time":"2021-09-08T21:53:03.423Z","response":"2nd","certainty":"high","char":"L","transposition":-2,"order":["swapped","shifted"],"probe_pitches":[9,5,7,9,7,9,5,7,2,0,2,-3],"shifted_pitches":[9,5,7,9,7,10,5,7,2,0,2,-3],"swapped_pitches":[9,5,7,9,7,5,9,7,2,0,2,-3],"shift_direction":1,"question_num":41,"has_decoy":false},{"rt":1399.4000000003725,"stimulus":"[A] option 1, [L] option 2, [G] neither","key_press":65,"name":"choice","trial_type":"html-keyboard-response","trial_index":65,"time_elapsed":261407,"internal_node_id":"0.0-65.0","subject":"S1C1209","sona":"41429","block":2,"time":"2021-09-08T21:53:03.423Z","response":"1st","certainty":"high","char":"A","transposition":-3,"order":["shifted","swapped"],"probe_pitches":[3,9,8,1,9,8,1,3,1,-1,0,6],"shifted_pitches":[3,9,8,1,9,8,2,3,1,-1,0,6],"swapped_pitches":[3,9,8,1,9,1,8,3,1,-1,0,6],"shift_direction":1,"question_num":51,"has_decoy":false},{"rt":1412.1000000014901,"stimulus":"[A] option 1, [L] option 2, [G] neither","key_press":76,"name":"choice","trial_type":"html-keyboard-response","trial_index":76,"time_elapsed":283897,"internal_node_id":"0.0-76.0","subject":"S1C1209","sona":"41429","block":2,"time":"2021-09-08T21:53:03.423Z","response":"2nd","certainty":"high","char":"L","transposition":0,"order":["shifted","swapped"],"probe_pitches":[-3,2,-3,-1,7,4,2,-1,2,4,7,-1],"shifted_pitches":[-3,2,-3,-1,7,5,2,-1,2,4,7,-1],"swapped_pitches":[-3,2,-3,-1,7,2,4,-1,2,4,7,-1],"shift_direction":1,"question_num":61,"has_decoy":false},{"rt":1156.7999999988824,"stimulus":"[A] option 1, [L] option 2, [G] neither","key_press":65,"name":"choice","trial_type":"html-keyboard-response","trial_index":87,"time_elapsed":304121,"internal_node_id":"0.0-87.0","subject":"S1C1209","sona":"41429","block":2,"time":"2021-09-08T21:53:03.423Z","response":"1st","certainty":"high","char":"A","transposition":2,"order":["swapped","shifted"],"probe_pitches":[9,7,3,2,9,10,0,4,0,7,2,4],"shifted_pitches":[9,7,3,2,9,10,1,4,0,7,2,4],"swapped_pitches":[9,7,3,2,9,0,10,4,0,7,2,4],"shift_direction":1,"question_num":71,"has_decoy":false},{"rt":1320.800000000745,"stimulus":"[A] option 1, [L] option 2, [G] neither","key_press":76,"name":"choice","trial_type":"html-keyboard-response","trial_index":98,"time_elapsed":324573,"internal_node_id":"0.0-98.0","subject":"S1C1209","sona":"41429","block":2,"time":"2021-09-08T21:53:03.423Z","response":"2nd","certainty":"high","char":"L","transposition":-1,"order":["shifted","swapped"],"probe_pitches":[3,-1,1,5,10,6,9,-1,-2,-1,3,1],"shifted_pitches":[3,-1,1,5,10,6,8,-1,-2,-1,3,1],"swapped_pitches":[3,-1,1,5,10,9,6,-1,-2,-1,3,1],"shift_direction":-1,"question_num":81,"has_decoy":false},{"rt":752.9000000003725,"stimulus":"[A] option 1, [L] option 2, [G] neither","key_press":76,"name":"choice","trial_type":"html-keyboard-response","trial_index":109,"time_elapsed":344340,"internal_node_id":"0.0-109.0","subject":"S1C1209","sona":"41429","block":2,"time":"2021-09-08T21:53:03.423Z","response":"2nd","certainty":"high","char":"L","transposition":3,"order":["shifted","swapped"],"probe_pitches":[6,4,-1,-3,4,9,-1,6,4,-3,1,-3],"shifted_pitches":[6,4,-1,-3,4,9,0,6,4,-3,1,-3],"swapped_pitches":[6,4,-1,-3,4,-1,9,6,4,-3,1,-3],"shift_direction":1,"question_num":91,"has_decoy":false},{"rt":1119.699999999255,"stimulus":"[A] option 1, [L] option 2, [G] neither","key_press":65,"name":"choice","trial_type":"html-keyboard-response","trial_index":120,"time_elapsed":364435,"internal_node_id":"0.0-120.0","subject":"S1C1209","sona":"41429","block":2,"time":"2021-09-08T21:53:03.423Z","response":"1st","certainty":"high","char":"A","transposition":-1,"order":["shifted","swapped"],"probe_pitches":[4,-1,-3,4,6,1,-3,9,-3,1,6,1],"shifted_pitches":[4,-1,-3,4,6,0,-3,9,-3,1,6,1],"swapped_pitches":[4,-1,-3,4,6,-3,1,9,-3,1,6,1],"shift_direction":-1,"question_num":101,"has_decoy":false},{"rt":1487.199999999255,"stimulus":"[A] option 1, [L] option 2, [G] neither","key_press":76,"name":"choice","trial_type":"html-keyboard-response","trial_index":131,"time_elapsed":386402,"internal_node_id":"0.0-131.0","subject":"S1C1209","sona":"41429","block":2,"time":"2021-09-08T21:53:03.423Z","response":"2nd","certainty":"high","char":"L","transposition":1,"order":["shifted","swapped"],"probe_pitches":[9,5,3,5,9,3,6,10,5,-2,3,10],"shifted_pitches":[9,5,3,5,9,4,6,10,5,-2,3,10],"swapped_pitches":[9,5,3,5,9,6,3,10,5,-2,3,10],"shift_direction":1,"question_num":111,"has_decoy":false},{"rt":912.0999999996275,"stimulus":"[A] option 1, [L] option 2, [G] neither","key_press":76,"name":"choice","trial_type":"html-keyboard-response","trial_index":142,"time_elapsed":406962,"internal_node_id":"0.0-142.0","subject":"S1C1209","sona":"41429","block":2,"time":"2021-09-08T21:53:03.423Z","response":"2nd","certainty":"high","char":"L","transposition":-3,"order":["swapped","shifted"],"probe_pitches":[-1,3,4,0,2,1,5,4,3,-2,5,-1],"shifted_pitches":[-1,3,4,0,2,1,6,4,3,-2,5,-1],"swapped_pitches":[-1,3,4,0,2,5,1,4,3,-2,5,-1],"shift_direction":1,"question_num":121,"has_decoy":false},{"rt":610.2999999988824,"stimulus":"[A] option 1, [L] option 2, [G] neither","key_press":76,"name":"choice","trial_type":"html-keyboard-response","trial_index":153,"time_elapsed":426852,"internal_node_id":"0.0-153.0","subject":"S1C1209","sona":"41429","block":2,"time":"2021-09-08T21:53:03.423Z","response":"2nd","certainty":"high","char":"L","transposition":-3,"order":["swapped","shifted"],"probe_pitches":[9,6,2,-1,-3,6,9,4,-3,4,2,9],"shifted_pitches":[9,6,2,-1,-3,6,8,4,-3,4,2,9],"swapped_pitches":[9,6,2,-1,-3,9,6,4,-3,4,2,9],"shift_direction":-1,"question_num":131,"has_decoy":false},{"rt":1990.9000000003725,"stimulus":"[A] option 1, [L] option 2, [G] neither","key_press":65,"name":"choice","trial_type":"html-keyboard-response","trial_index":164,"time_elapsed":447512,"internal_node_id":"0.0-164.0","subject":"S1C1209","sona":"41429","block":2,"time":"2021-09-08T21:53:03.423Z","response":"1st","certainty":"high","char":"A","transposition":-2,"order":["swapped","shifted"],"probe_pitches":[3,2,3,-2,1,-2,8,0,10,5,2,1],"shifted_pitches":[3,2,3,-2,1,-3,8,0,10,5,2,1],"swapped_pitches":[3,2,3,-2,1,8,-2,0,10,5,2,1],"shift_direction":-1,"question_num":141,"has_decoy":false},{"rt":1461.2000000011176,"stimulus":"[A] option 1, [L] option 2, [G] neither","key_press":76,"name":"choice","trial_type":"html-keyboard-response","trial_index":175,"time_elapsed":468806,"internal_node_id":"0.0-175.0","subject":"S1C1209","sona":"41429","block":2,"time":"2021-09-08T21:53:03.423Z","response":"2nd","certainty":"high","char":"L","transposition":2,"order":["shifted","swapped"],"probe_pitches":[7,4,-3,4,7,-3,0,7,2,9,4,0],"shifted_pitches":[7,4,-3,4,7,-2,0,7,2,9,4,0],"swapped_pitches":[7,4,-3,4,7,0,-3,7,2,9,4,0],"shift_direction":1,"question_num":151,"has_decoy":false},{"rt":1120.4000000003725,"stimulus":"[A] option 1, [L] option 2, [G] neither","key_press":76,"name":"choice","trial_type":"html-keyboard-response","trial_index":186,"time_elapsed":489793,"internal_node_id":"0.0-186.0","subject":"S1C1209","sona":"41429","block":2,"time":"2021-09-08T21:53:03.423Z","response":"2nd","certainty":"high","char":"L","transposition":3,"order":["swapped","shifted"],"probe_pitches":[10,9,6,2,-1,4,0,7,10,9,6,4],"shifted_pitches":[10,9,6,2,-1,3,0,7,10,9,6,4],"swapped_pitches":[10,9,6,2,-1,0,4,7,10,9,6,4],"shift_direction":-1,"question_num":161,"has_decoy":false},{"rt":915,"stimulus":"[A] option 1, [L] option 2, [G] neither","key_press":76,"name":"choice","trial_type":"html-keyboard-response","trial_index":197,"time_elapsed":510163,"internal_node_id":"0.0-197.0","subject":"S1C1209","sona":"41429","block":2,"time":"2021-09-08T21:53:03.423Z","response":"2nd","certainty":"high","char":"L","transposition":-1,"order":["swapped","shifted"],"probe_pitches":[-3,2,6,2,6,-1,4,6,-1,2,-1,4],"shifted_pitches":[-3,2,6,2,6,-2,4,6,-1,2,-1,4],"swapped_pitches":[-3,2,6,2,6,4,-1,6,-1,2,-1,4],"shift_direction":-1,"question_num":171,"has_decoy":false},{"rt":685,"stimulus":"[A] option 1, [L] option 2, [G] neither","key_press":76,"name":"choice","trial_type":"html-keyboard-response","trial_index":208,"time_elapsed":529983,"internal_node_id":"0.0-208.0","subject":"S1C1209","sona":"41429","block":2,"time":"2021-09-08T21:53:03.423Z","response":"2nd","certainty":"high","char":"L","transposition":-1,"order":["shifted","swapped"],"probe_pitches":[2,7,10,4,8,10,6,2,8,6,9,4],"shifted_pitches":[2,7,10,4,8,10,5,2,8,6,9,4],"swapped_pitches":[2,7,10,4,8,6,10,2,8,6,9,4],"shift_direction":-1,"question_num":181,"has_decoy":false},{"rt":958,"stimulus":"[A] option 1, [L] option 2, [G] neither","key_press":65,"name":"choice","trial_type":"html-keyboard-response","trial_index":219,"time_elapsed":550045,"internal_node_id":"0.0-219.0","subject":"S1C1209","sona":"41429","block":2,"time":"2021-09-08T21:53:03.423Z","response":"1st","certainty":"high","char":"A","transposition":1,"order":["shifted","swapped"],"probe_pitches":[-1,4,-1,7,4,2,-3,-1,2,7,-3,-1],"shifted_pitches":[-1,4,-1,7,4,2,-4,-1,2,7,-3,-1],"swapped_pitches":[-1,4,-1,7,4,-3,2,-1,2,7,-3,-1],"shift_direction":-1,"question_num":191,"has_decoy":false}]