[{"rt":1694.9000000003725,"stimulus":"[A] option 1, [L] option 2, [G] neither","key_press":76,"name":"choice","trial_type":"html-keyboard-response","trial_index":10,"time_elapsed":23254,"internal_node_id":"0.0-10.0","subject":"S1C1209","sona":"41429","block":5,"time":"2021-09-08T22:16:56.501Z","response":"2nd","certainty":"high","char":"L","transposition":-1,"order":["swapped","shifted"],"probe_pitches":[-3,-2,2,-1,5,-1,-3,5,-2,8,6,-2],"shifted_pitches":[-3,-2,2,-1,5,0,-3,5,-2,8,6,-2],"swapped_pitches":[-3,-2,2,-1,5,-3,-1,5,-2,8,6,-2],"shift_direction":1,"question_num":1,"has_decoy":false},{"rt":998.5999999996275,"stimulus":"[A] option 1, [L] option 2, [G] neither","key_press":65,"name":"choice","trial_type":"html-keyboard-response","trial_index":21,"time_elapsed":43997,"internal_node_id":"0.0-21.0","subject":"S1C1209","sona":"41429","block":5,"time":"2021-09-08T22:16:56.501Z","response":"1st","certainty":"high","char":"A","transposition":3,"order":["shifted","swapped"],"probe_pitches":[11,7,9,2,7,4,2,9,-1,7,4,11],"shifted_pitches":[11,7,9,2,7,5,2,9,-1,7,4,11],"swapped_pitches":[11,7,9,2,7,2,4,9,-1,7,4,11],"shift_direction":1,"question_num":11,"has_decoy":false},{"rt":1045.199999999255,"stimulus":"[A] option 1, [L] option 2, [G] neither","key_press":65,"name":"choice","trial_type":"html-keyboard-response","trial_index":32,"time_elapsed":64139,"internal_node_id":"0.0-32.0","subject":"S1C1209","sona":"41429","block":5,"time":"2021-09-08T22:16:56.501Z","response":"1st","certainty":"high","char":"A","transposition":-2,"order":["swapped","shifted"],"probe_pitches":[11,9,6,9,11,4,-1,11,4,9,6,1],"shifted_pitches":[11,9,6,9,11,5,-1,11,4,9,6,1],"swapped_pitches":[11,9,6,9,11,-1,4,11,4,9,6,1],"shift_direction":1,"question_num":21,"has_decoy":false},{"rt":597.5,"stimulus":"[A] option 1, [L] option 2, [G] neither","key_press":65,"name":"choice","trial_type":"html-keyboard-response","trial_index":43,"time_elapsed":83595,"internal_node_id":"0.0-43.0","subject":"S1C1209","sona":"41429","block":5,"time":"2021-09-08T22:16:56.501Z","response":"1st","certainty":"high","char":"A","transposition":1,"order":["swapped","shifted"],"probe_pitches":[-2,1,4,5,-2,0,4,9,0,6,4,0],"shifted_pitches":[-2,1,4,5,-2,-1,4,9,0,6,4,0],"swapped_pitches":[-2,1,4,5,-2,4,0,9,0,6,4,0],"shift_direction":-1,"question_num":31,"has_decoy":false},{"rt":756.3000000007451,"stimulus":"[A] option 1, [L] option 2, [G] neither","key_press":65,"name":"choice","trial_type":"html-keyboard-response","trial_index":54,"time_elapsed":102794,"internal_node_id":"0.0-54.0","subject":"S1C1209","sona":"41429","block":5,"time":"2021-09-08T22:16:56.501Z","response":"1st","certainty":"high","char":"A","transposition":1,"order":["shifted","swapped"],"probe_pitches":[6,1,4,-1,6,-1,4,6,8,4,6,4],"shifted_pitches":[6,1,4,-1,6,-2,4,6,8,4,6,4],"swapped_pitches":[6,1,4,-1,6,4,-1,6,8,4,6,4],"shift_direction":-1,"question_num":41,"has_decoy":false},{"rt":507.40000000037253,"stimulus":"[A] option 1, [L] option 2, [G] neither","key_press":76,"name":"choice","trial_type":"html-keyboard-response","trial_index":65,"time_elapsed":122400,"internal_node_id":"0.0-65.0","subject":"S1C1209","sona":"41429","block":5,"time":"2021-09-08T22:16:56.501Z","response":"2nd","certainty":"high","char":"L","transposition":3,"order":["swapped","shifted"],"probe_pitches":[-2,0,4,8,-1,-2,4,1,9,1,-1,1],"shifted_pitches":[-2,0,4,8,-1,-2,5,1,9,1,-1,1],"swapped_pitches":[-2,0,4,8,-1,4,-2,1,9,1,-1,1],"shift_direction":1,"question_num":51,"has_decoy":false},{"rt":3149.89999999851,"stimulus":"[A] option 1, [L] option 2, [G] neither","key_press":65,"name":"choice","trial_type":"html-keyboard-response","trial_index":76,"time_elapsed":144402,"internal_node_id":"0.0-76.0","subject":"S1C1209","sona":"41429","block":5,"time":"2021-09-08T22:16:56.501Z","response":"1st","certainty":"high","char":"A","transposition":2,"order":["swapped","shifted"],"probe_pitches":[8,6,11,6,3,11,1,8,1,8,3,11],"shifted_pitches":[8,6,11,6,3,11,0,8,1,8,3,11],"swapped_pitches":[8,6,11,6,3,1,11,8,1,8,3,11],"shift_direction":-1,"question_num":61,"has_decoy":false},{"rt":742.7000000011176,"stimulus":"[A] option 1, [L] option 2, [G] neither","key_press":76,"name":"choice","trial_type":"html-keyboard-response","trial_index":87,"time_elapsed":165227,"internal_node_id":"0.0-87.0","subject":"S1C1209","sona":"41429","block":5,"time":"2021-09-08T22:16:56.501Z","response":"2nd","certainty":"high","char":"L","transposition":-2,"order":["swapped","shifted"],"probe_pitches":[-2,3,9,1,-1,9,6,8,5,-2,9,-3],"shifted_pitches":[-2,3,9,1,-1,9,7,8,5,-2,9,-3],"swapped_pitches":[-2,3,9,1,-1,6,9,8,5,-2,9,-3],"shift_direction":1,"question_num":71,"has_decoy":false},{"rt":739.3000000007451,"stimulus":"[A] option 1, [L] option 2, [G] neither","key_press":65,"name":"choice","trial_type":"html-keyboard-response","trial_index":98,"time_elapsed":184935,"internal_node_id":"0.0-98.0","subject":"S1C1209","sona":"41429","block":5,"time":"2021-09-08T22:16:56.501Z","response":"1st","certainty":"high","char":"A","transposition":2,"order":["shifted","swapped"],"probe_pitches":[-2,0,1,0,7,9,0,-3,-2,1,6,-2],"shifted_pitches":[-2,0,1,0,7,8,0,-3,-2,1,6,-2],"swapped_pitches":[-2,0,1,0,7,0,9,-3,-2,1,6,-2],"shift_direction":-1,"question_num":81,"has_decoy":false},{"rt":565.7000000011176,"stimulus":"[A] option 1, [L] option 2, [G] neither","key_press":76,"name":"choice","trial_type":"html-keyboard-response","trial_index":109,"time_elapsed":205065,"internal_node_id":"0.0-109.0","subject":"S1C1209","sona":"41429","block":5,"time":"2021-09-08T22:16:56.501Z","response":"2nd","certainty":"high","char":"L","transposition":0,"order":["shifted","swapped"],"probe_pitches":[-2,1,-3,0,6,5,0,-2,3,-3,-1,-3],"shifted_pitches":[-2,1,-3,0,6,4,0,-2,3,-3,-1,-3],"swapped_pitches":[-2,1,-3,0,6,0,5,-2,3,-3,-1,-3],"shift_direction":-1,"question_num":91,"has_decoy":false},{"rt":772.0999999996275,"stimulus":"[A] option 1, [L] option 2, [G] neither","key_press":76,"name":"choice","trial_type":"html-keyboard-response","trial_index":120,"time_elapsed":224519,"internal_node_id":"0.0-120.0","subject":"S1C1209","sona":"41429","block":5,"time":"2021-09-08T22:16:56.501Z","response":"2nd","certainty":"high","char":"L","transposition":-3,"order":["shifted","swapped"],"probe_pitches":[3,-3,4,0,9,6,1,3,1,9,7,4],"shifted_pitches":[3,-3,4,0,9,6,2,3,1,9,7,4],"swapped_pitches":[3,-3,4,0,9,1,6,3,1,9,7,4],"shift_direction":1,"question_num":101,"has_decoy":false},{"rt":1442.800000000745,"stimulus":"[A] option 1, [L] option 2, [G] neither","key_press":65,"name":"choice","trial_type":"html-keyboard-response","trial_index":131,"time_elapsed":245078,"internal_node_id":"0.0-131.0","subject":"S1C1209","sona":"41429","block":5,"time":"2021-09-08T22:16:56.501Z","response":"1st","certainty":"high","char":"A","transposition":-1,"order":["swapped","shifted"],"probe_pitches":[6,11,4,2,11,4,9,-1,2,4,2,-1],"shifted_pitches":[6,11,4,2,11,4,8,-1,2,4,2,-1],"swapped_pitches":[6,11,4,2,11,9,4,-1,2,4,2,-1],"shift_direction":-1,"question_num":111,"has_decoy":false},{"rt":1350.9000000022352,"stimulus":"[A] option 1, [L] option 2, [G] neither","key_press":65,"name":"choice","trial_type":"html-keyboard-response","trial_index":142,"time_elapsed":268857,"internal_node_id":"0.0-142.0","subject":"S1C1209","sona":"41429","block":5,"time":"2021-09-08T22:16:56.501Z","response":"1st","certainty":"high","char":"A","transposition":-3,"order":["swapped","shifted"],"probe_pitches":[9,3,4,1,3,7,8,-2,4,1,8,3],"shifted_pitches":[9,3,4,1,3,6,8,-2,4,1,8,3],"swapped_pitches":[9,3,4,1,3,8,7,-2,4,1,8,3],"shift_direction":-1,"question_num":121,"has_decoy":false},{"rt":756,"stimulus":"[A] option 1, [L] option 2, [G] neither","key_press":76,"name":"choice","trial_type":"html-keyboard-response","trial_index":153,"time_elapsed":290214,"internal_node_id":"0.0-153.0","subject":"S1C1209","sona":"41429","block":5,"time":"2021-09-08T22:16:56.501Z","response":"2nd","certainty":"high","char":"L","transposition":-1,"order":["swapped","shifted"],"probe_pitches":[1,3,1,6,3,1,-1,6,-1,6,3,8],"shifted_pitches":[1,3,1,6,3,1,0,6,-1,6,3,8],"swapped_pitches":[1,3,1,6,3,-1,1,6,-1,6,3,8],"shift_direction":1,"question_num":131,"has_decoy":false},{"rt":582.7000000029802,"stimulus":"[A] option 1, [L] option 2, [G] neither","key_press":65,"name":"choice","trial_type":"html-keyboard-response","trial_index":164,"time_elapsed":310328,"internal_node_id":"0.0-164.0","subject":"S1C1209","sona":"41429","block":5,"time":"2021-09-08T22:16:56.501Z","response":"1st","certainty":"high","char":"A","transposition":-3,"order":["shifted","swapped"],"probe_pitches":[9,4,11,9,11,9,-1,6,1,11,9,-1],"shifted_pitches":[9,4,11,9,11,8,-1,6,1,11,9,-1],"swapped_pitches":[9,4,11,9,11,-1,9,6,1,11,9,-1],"shift_direction":-1,"question_num":141,"has_decoy":false},{"rt":774,"stimulus":"[A] option 1, [L] option 2, [G] neither","key_press":65,"name":"choice","trial_type":"html-keyboard-response","trial_index":175,"time_elapsed":329751,"internal_node_id":"0.0-175.0","subject":"S1C1209","sona":"41429","block":5,"time":"2021-09-08T22:16:56.501Z","response":"1st","certainty":"high","char":"A","transposition":-3,"order":["swapped","shifted"],"probe_pitches":[-1,4,2,7,-1,9,4,7,-1,9,7,2],"shifted_pitches":[-1,4,2,7,-1,9,5,7,-1,9,7,2],"swapped_pitches":[-1,4,2,7,-1,4,9,7,-1,9,7,2],"shift_direction":1,"question_num":151,"has_decoy":false},{"rt":656.8000000007451,"stimulus":"[A] option 1, [L] option 2, [G] neither","key_press":76,"name":"choice","trial_type":"html-keyboard-response","trial_index":186,"time_elapsed":349169,"internal_node_id":"0.0-186.0","subject":"S1C1209","sona":"41429","block":5,"time":"2021-09-08T22:16:56.501Z","response":"2nd","certainty":"high","char":"L","transposition":-1,"order":["shifted","swapped"],"probe_pitches":[-2,2,5,4,-3,6,0,2,8,6,0,5],"shifted_pitches":[-2,2,5,4,-3,6,1,2,8,6,0,5],"swapped_pitches":[-2,2,5,4,-3,0,6,2,8,6,0,5],"shift_direction":1,"question_num":161,"has_decoy":false},{"rt":819.6000000014901,"stimulus":"[A] option 1, [L] option 2, [G] neither","key_press":65,"name":"choice","trial_type":"html-keyboard-response","trial_index":197,"time_elapsed":368548,"internal_node_id":"0.0-197.0","subject":"S1C1209","sona":"41429","block":5,"time":"2021-09-08T22:16:56.501Z","response":"1st","certainty":"high","char":"A","transposition":-2,"order":["shifted","swapped"],"probe_pitches":[1,-1,1,4,6,8,-1,4,11,-1,6,4],"shifted_pitches":[1,-1,1,4,6,8,0,4,11,-1,6,4],"swapped_pitches":[1,-1,1,4,6,-1,8,4,11,-1,6,4],"shift_direction":1,"question_num":171,"has_decoy":false},{"rt":584.9000000022352,"stimulus":"[A] option 1, [L] option 2, [G] neither","key_press":65,"name":"choice","trial_type":"html-keyboard-response","trial_index":208,"time_elapsed":387865,"internal_node_id":"0.0-208.0","subject":"S1C1209","sona":"41429","block":5,"time":"2021-09-08T22:16:56.501Z","response":"1st","certainty":"high","char":"A","transposition":-2,"order":["shifted","swapped"],"probe_pitches":[7,5,0,2,-2,-1,4,9,6,4,8,7],"shifted_pitches":[7,5,0,2,-2,-1,3,9,6,4,8,7],"swapped_pitches":[7,5,0,2,-2,4,-1,9,6,4,8,7],"shift_direction":-1,"question_num":181,"has_decoy":false},{"rt":3436.5,"stimulus":"[A] option 1, [L] option 2, [G] neither","key_press":76,"name":"choice","trial_type":"html-keyboard-response","trial_index":219,"time_elapsed":409836,"internal_node_id":"0.0-219.0","subject":"S1C1209","sona":"41429","block":5,"time":"2021-09-08T22:16:56.501Z","response":"2nd","certainty":"high","char":"L","transposition":0,"order":["shifted","swapped"],"probe_pitches":[4,6,9,11,6,-1,2,6,-1,2,6,2],"shifted_pitches":[4,6,9,11,6,-2,2,6,-1,2,6,2],"swapped_pitches":[4,6,9,11,6,2,-1,6,-1,2,6,2],"shift_direction":-1,"question_num":191,"has_decoy":false}]