[{"rt":8385.5,"stimulus":"[A] option 1, [L] option 2, [G] neither","key_press":76,"name":"choice","trial_type":"html-keyboard-response","trial_index":15,"time_elapsed":214824,"internal_node_id":"0.0-15.0","response":"2nd","certainty":"high","char":"L","transposition":0,"order":["shifted","swapped"],"probe_pitches":[10,6,-1,0,6,8,-2,6,5,-2,4,0],"shifted_pitches":[10,6,-1,0,6,7,-2,6,5,-2,4,0],"swapped_pitches":[10,6,-1,0,6,-2,8,6,5,-2,4,0],"shift_direction":-1,"question_num":1,"has_decoy":false,"subject":"S1C1209","sona":"41429","block":1,"time":"2021-09-08T21:42:36.026Z"},{"rt":3612.199999999255,"stimulus":"[A] option 1, [L] option 2, [G] neither","key_press":76,"name":"choice","trial_type":"html-keyboard-response","trial_index":26,"time_elapsed":239426,"internal_node_id":"0.0-26.0","response":"2nd","certainty":"high","char":"L","transposition":-1,"order":["shifted","swapped"],"probe_pitches":[8,7,0,3,-2,2,9,8,-1,3,6,4],"shifted_pitches":[8,7,0,3,-2,1,9,8,-1,3,6,4],"swapped_pitches":[8,7,0,3,-2,9,2,8,-1,3,6,4],"shift_direction":-1,"question_num":11,"has_decoy":false,"subject":"S1C1209","sona":"41429","block":1,"time":"2021-09-08T21:42:36.026Z"},{"rt":2102.10000000149,"stimulus":"[A] option 1, [L] option 2, [G] neither","key_press":76,"name":"choice","trial_type":"html-keyboard-response","trial_index":37,"time_elapsed":302794,"internal_node_id":"0.0-37.0","response":"2nd","certainty":"high","char":"L","transposition":-2,"order":["swapped","shifted"],"probe_pitches":[1,6,3,1,3,13,8,6,10,3,13,8],"shifted_pitches":[1,6,3,1,3,12,8,6,10,3,13,8],"swapped_pitches":[1,6,3,1,3,8,13,6,10,3,13,8],"shift_direction":-1,"question_num":21,"has_decoy":false,"subject":"S1C1209","sona":"41429","block":1,"time":"2021-09-08T21:42:36.026Z"},{"rt":11296.5,"stimulus":"[A] option 1, [L] option 2, [G] neither","key_press":65,"name":"choice","trial_type":"html-keyboard-response","trial_index":48,"time_elapsed":404995,"internal_node_id":"0.0-48.0","response":"1st","certainty":"high","char":"A","transposition":-3,"order":["shifted","swapped"],"probe_pitches":[13,11,8,3,8,3,6,8,13,3,13,1],"shifted_pitches":[13,11,8,3,8,4,6,8,13,3,13,1],"swapped_pitches":[13,11,8,3,8,6,3,8,13,3,13,1],"shift_direction":1,"question_num":31,"has_decoy":false,"subject":"S1C1209","sona":"41429","block":1,"time":"2021-09-08T21:42:36.026Z"},{"rt":24098,"stimulus":"[A] option 1, [L] option 2, [G] neither","key_press":71,"name":"choice","trial_type":"html-keyboard-response","trial_index":59,"time_elapsed":480195,"internal_node_id":"0.0-59.0","response":"neither","certainty":"high","char":"G","transposition":0,"order":["swapped","shifted"],"probe_pitches":[4,6,11,6,1,4,9,11,13,11,6,1],"shifted_pitches":[4,6,11,6,1,4,8,11,13,11,6,1],"swapped_pitches":[4,6,11,6,1,9,4,11,13,11,6,1],"shift_direction":-1,"question_num":41,"has_decoy":false,"subject":"S1C1209","sona":"41429","block":1,"time":"2021-09-08T21:42:36.026Z"},{"rt":13130.199999999255,"stimulus":"[A] option 1, [L] option 2, [G] neither","key_press":65,"name":"choice","trial_type":"html-keyboard-response","trial_index":70,"time_elapsed":530700,"internal_node_id":"0.0-70.0","response":"1st","certainty":"high","char":"A","transposition":1,"order":["swapped","shifted"],"probe_pitches":[5,2,-1,3,2,-1,1,2,3,8,6,3],"shifted_pitches":[5,2,-1,3,2,-1,0,2,3,8,6,3],"swapped_pitches":[5,2,-1,3,2,1,-1,2,3,8,6,3],"shift_direction":-1,"question_num":51,"has_decoy":false,"subject":"S1C1209","sona":"41429","block":1,"time":"2021-09-08T21:42:36.026Z"},{"rt":1425.7999999988824,"stimulus":"[A] option 1, [L] option 2, [G] neither","key_press":76,"name":"choice","trial_type":"html-keyboard-response","trial_index":81,"time_elapsed":559681,"internal_node_id":"0.0-81.0","response":"2nd","certainty":"high","char":"L","transposition":-3,"order":["shifted","swapped"],"probe_pitches":[7,1,8,3,0,-1,3,6,-1,-2,6,0],"shifted_pitches":[7,1,8,3,0,-1,4,6,-1,-2,6,0],"swapped_pitches":[7,1,8,3,0,3,-1,6,-1,-2,6,0],"shift_direction":1,"question_num":61,"has_decoy":false,"subject":"S1C1209","sona":"41429","block":1,"time":"2021-09-08T21:42:36.026Z"},{"rt":13420.799999998882,"stimulus":"[A] option 1, [L] option 2, [G] neither","key_press":65,"name":"choice","trial_type":"html-keyboard-response","trial_index":92,"time_elapsed":592779,"internal_node_id":"0.0-92.0","response":"1st","certainty":"high","char":"A","transposition":-3,"order":["shifted","swapped"],"probe_pitches":[3,1,5,1,8,10,13,8,1,5,8,10],"shifted_pitches":[3,1,5,1,8,11,13,8,1,5,8,10],"swapped_pitches":[3,1,5,1,8,13,10,8,1,5,8,10],"shift_direction":1,"question_num":71,"has_decoy":false,"subject":"S1C1209","sona":"41429","block":1,"time":"2021-09-08T21:42:36.026Z"},{"rt":1360.5999999996275,"stimulus":"[A] option 1, [L] option 2, [G] neither","key_press":65,"name":"choice","trial_type":"html-keyboard-response","trial_index":103,"time_elapsed":640910,"internal_node_id":"0.0-103.0","response":"1st","certainty":"high","char":"A","transposition":1,"order":["swapped","shifted"],"probe_pitches":[10,13,6,3,10,13,6,8,10,8,13,10],"shifted_pitches":[10,13,6,3,10,13,5,8,10,8,13,10],"swapped_pitches":[10,13,6,3,10,6,13,8,10,8,13,10],"shift_direction":-1,"question_num":81,"has_decoy":false,"subject":"S1C1209","sona":"41429","block":1,"time":"2021-09-08T21:42:36.026Z"},{"rt":672,"stimulus":"[A] option 1, [L] option 2, [G] neither","key_press":76,"name":"choice","trial_type":"html-keyboard-response","trial_index":114,"time_elapsed":660861,"internal_node_id":"0.0-114.0","response":"2nd","certainty":"high","char":"L","transposition":-2,"order":["shifted","swapped"],"probe_pitches":[4,5,0,4,9,7,1,0,9,10,5,2],"shifted_pitches":[4,5,0,4,9,6,1,0,9,10,5,2],"swapped_pitches":[4,5,0,4,9,1,7,0,9,10,5,2],"shift_direction":-1,"question_num":91,"has_decoy":false,"subject":"S1C1209","sona":"41429","block":1,"time":"2021-09-08T21:42:36.026Z"},{"rt":4536.9000000003725,"stimulus":"[A] option 1, [L] option 2, [G] neither","key_press":65,"name":"choice","trial_type":"html-keyboard-response","trial_index":125,"time_elapsed":684966,"internal_node_id":"0.0-125.0","response":"1st","certainty":"high","char":"A","transposition":-1,"order":["shifted","swapped"],"probe_pitches":[11,9,13,9,6,4,13,9,6,4,9,6],"shifted_pitches":[11,9,13,9,6,4,14,9,6,4,9,6],"swapped_pitches":[11,9,13,9,6,13,4,9,6,4,9,6],"shift_direction":1,"question_num":101,"has_decoy":false,"subject":"S1C1209","sona":"41429","block":1,"time":"2021-09-08T21:42:36.026Z"},{"rt":768.9000000003725,"stimulus":"[A] option 1, [L] option 2, [G] neither","key_press":76,"name":"choice","trial_type":"html-keyboard-response","trial_index":136,"time_elapsed":705037,"internal_node_id":"0.0-136.0","response":"2nd","certainty":"high","char":"L","transposition":2,"order":["swapped","shifted"],"probe_pitches":[8,2,4,10,7,1,4,3,1,9,8,3],"shifted_pitches":[8,2,4,10,7,1,5,3,1,9,8,3],"swapped_pitches":[8,2,4,10,7,4,1,3,1,9,8,3],"shift_direction":1,"question_num":111,"has_decoy":false,"subject":"S1C1209","sona":"41429","block":1,"time":"2021-09-08T21:42:36.026Z"},{"rt":1139.199999999255,"stimulus":"[A] option 1, [L] option 2, [G] neither","key_press":65,"name":"choice","trial_type":"html-keyboard-response","trial_index":147,"time_elapsed":725887,"internal_node_id":"0.0-147.0","response":"1st","certainty":"high","char":"A","transposition":-1,"order":["swapped","shifted"],"probe_pitches":[0,3,0,-1,-2,1,7,-1,0,-1,5,0],"shifted_pitches":[0,3,0,-1,-2,2,7,-1,0,-1,5,0],"swapped_pitches":[0,3,0,-1,-2,7,1,-1,0,-1,5,0],"shift_direction":1,"question_num":121,"has_decoy":false,"subject":"S1C1209","sona":"41429","block":1,"time":"2021-09-08T21:42:36.026Z"},{"rt":838.0999999996275,"stimulus":"[A] option 1, [L] option 2, [G] neither","key_press":76,"name":"choice","trial_type":"html-keyboard-response","trial_index":158,"time_elapsed":745954,"internal_node_id":"0.0-158.0","response":"2nd","certainty":"high","char":"L","transposition":3,"order":["swapped","shifted"],"probe_pitches":[7,6,8,2,1,4,8,10,-2,3,5,6],"shifted_pitches":[7,6,8,2,1,4,9,10,-2,3,5,6],"swapped_pitches":[7,6,8,2,1,8,4,10,-2,3,5,6],"shift_direction":1,"question_num":131,"has_decoy":false,"subject":"S1C1209","sona":"41429","block":1,"time":"2021-09-08T21:42:36.026Z"},{"rt":2092.9000000003725,"stimulus":"[A] option 1, [L] option 2, [G] neither","key_press":65,"name":"choice","trial_type":"html-keyboard-response","trial_index":169,"time_elapsed":767352,"internal_node_id":"0.0-169.0","response":"1st","certainty":"high","char":"A","transposition":-1,"order":["shifted","swapped"],"probe_pitches":[11,6,13,6,11,6,13,1,6,3,8,1],"shifted_pitches":[11,6,13,6,11,6,12,1,6,3,8,1],"swapped_pitches":[11,6,13,6,11,13,6,1,6,3,8,1],"shift_direction":-1,"question_num":141,"has_decoy":false,"subject":"S1C1209","sona":"41429","block":1,"time":"2021-09-08T21:42:36.026Z"},{"rt":1333,"stimulus":"[A] option 1, [L] option 2, [G] neither","key_press":76,"name":"choice","trial_type":"html-keyboard-response","trial_index":180,"time_elapsed":788768,"internal_node_id":"0.0-180.0","response":"2nd","certainty":"high","char":"L","transposition":3,"order":["shifted","swapped"],"probe_pitches":[8,6,11,6,1,4,8,13,11,1,8,1],"shifted_pitches":[8,6,11,6,1,3,8,13,11,1,8,1],"swapped_pitches":[8,6,11,6,1,8,4,13,11,1,8,1],"shift_direction":-1,"question_num":151,"has_decoy":false,"subject":"S1C1209","sona":"41429","block":1,"time":"2021-09-08T21:42:36.026Z"},{"rt":3532.9000000003725,"stimulus":"[A] option 1, [L] option 2, [G] neither","key_press":65,"name":"choice","trial_type":"html-keyboard-response","trial_index":191,"time_elapsed":812023,"internal_node_id":"0.0-191.0","response":"1st","certainty":"high","char":"A","transposition":-2,"order":["swapped","shifted"],"probe_pitches":[6,5,2,0,-1,2,4,0,8,-2,6,-1],"shifted_pitches":[6,5,2,0,-1,2,3,0,8,-2,6,-1],"swapped_pitches":[6,5,2,0,-1,4,2,0,8,-2,6,-1],"shift_direction":-1,"question_num":161,"has_decoy":false,"subject":"S1C1209","sona":"41429","block":1,"time":"2021-09-08T21:42:36.026Z"},{"rt":1514.800000000745,"stimulus":"[A] option 1, [L] option 2, [G] neither","key_press":76,"name":"choice","trial_type":"html-keyboard-response","trial_index":202,"time_elapsed":832757,"internal_node_id":"0.0-202.0","response":"2nd","certainty":"high","char":"L","transposition":2,"order":["swapped","shifted"],"probe_pitches":[8,6,4,6,13,11,6,13,11,8,11,4],"shifted_pitches":[8,6,4,6,13,11,7,13,11,8,11,4],"swapped_pitches":[8,6,4,6,13,6,11,13,11,8,11,4],"shift_direction":1,"question_num":171,"has_decoy":false,"subject":"S1C1209","sona":"41429","block":1,"time":"2021-09-08T21:42:36.026Z"},{"rt":1405.800000000745,"stimulus":"[A] option 1, [L] option 2, [G] neither","key_press":76,"name":"choice","trial_type":"html-keyboard-response","trial_index":213,"time_elapsed":853543,"internal_node_id":"0.0-213.0","response":"2nd","certainty":"high","char":"L","transposition":-2,"order":["swapped","shifted"],"probe_pitches":[8,10,3,8,1,5,3,10,8,1,8,5],"shifted_pitches":[8,10,3,8,1,6,3,10,8,1,8,5],"swapped_pitches":[8,10,3,8,1,3,5,10,8,1,8,5],"shift_direction":1,"question_num":181,"has_decoy":false,"subject":"S1C1209","sona":"41429","block":1,"time":"2021-09-08T21:42:36.026Z"},{"rt":1453.800000000745,"stimulus":"[A] option 1, [L] option 2, [G] neither","key_press":71,"name":"choice","trial_type":"html-keyboard-response","trial_index":224,"time_elapsed":873687,"internal_node_id":"0.0-224.0","response":"neither","certainty":"high","char":"G","transposition":-3,"order":["shifted","swapped"],"probe_pitches":[1,7,0,-2,5,7,-1,9,0,6,1,4],"shifted_pitches":[1,7,0,-2,5,8,-1,9,0,6,1,4],"swapped_pitches":[1,7,0,-2,5,-1,7,9,0,6,1,4],"shift_direction":1,"question_num":191,"has_decoy":false,"subject":"S1C1209","sona":"41429","block":1,"time":"2021-09-08T21:42:36.026Z"}]