[{"rt":6185,"stimulus":"[A] option 1, [L] option 2, [G] neither","key_press":65,"name":"choice","trial_type":"html-keyboard-response","trial_index":10,"time_elapsed":43453,"internal_node_id":"0.0-10.0","subject":"S1C1673","sona":"41764","block":6,"time":"2021-09-27T20:20:01.875Z","response":"1st","certainty":"high","char":"A","transposition":3,"order":["shifted","swapped"],"probe_pitches":[2,6,4,6,11,2,6,9,2,6,-1,6,4,6,2,11],"shifted_pitches":[2,6,4,6,11,2,6,8,2,6,-1,6,4,6,2,11],"swapped_pitches":[2,6,4,6,11,2,6,2,9,6,-1,6,4,6,2,11],"shift_direction":-1,"question_num":1,"has_decoy":false},{"rt":20347.099999964237,"stimulus":"[A] option 1, [L] option 2, [G] neither","key_press":65,"name":"choice","trial_type":"html-keyboard-response","trial_index":21,"time_elapsed":88164,"internal_node_id":"0.0-21.0","subject":"S1C1673","sona":"41764","block":6,"time":"2021-09-27T20:20:01.875Z","response":"1st","certainty":"high","char":"A","transposition":-1,"order":["swapped","shifted"],"probe_pitches":[4,7,5,7,0,5,12,10,11,0,7,12,0,5,3,1],"shifted_pitches":[4,7,5,7,0,5,12,9,11,0,7,12,0,5,3,1],"swapped_pitches":[4,7,5,7,0,5,12,11,10,0,7,12,0,5,3,1],"shift_direction":-1,"question_num":11,"has_decoy":false},{"rt":7164.200000047684,"stimulus":"[A] option 1, [L] option 2, [G] neither","key_press":71,"name":"choice","trial_type":"html-keyboard-response","trial_index":32,"time_elapsed":144277,"internal_node_id":"0.0-32.0","subject":"S1C1673","sona":"41764","block":6,"time":"2021-09-27T20:20:01.875Z","response":"neither","certainty":"high","char":"G","transposition":1,"order":["swapped","shifted"],"probe_pitches":[8,11,4,6,1,2,5,2,7,12,2,8,5,10,12,10],"shifted_pitches":[8,11,4,6,1,2,5,3,7,12,2,8,5,10,12,10],"swapped_pitches":[8,11,4,6,1,2,5,7,2,12,2,8,5,10,12,10],"shift_direction":1,"question_num":21,"has_decoy":false},{"rt":5099.100000023842,"stimulus":"[A] option 1, [L] option 2, [G] neither","key_press":71,"name":"choice","trial_type":"html-keyboard-response","trial_index":43,"time_elapsed":172147,"internal_node_id":"0.0-43.0","subject":"S1C1673","sona":"41764","block":6,"time":"2021-09-27T20:20:01.875Z","response":"neither","certainty":"high","char":"G","transposition":-3,"order":["shifted","swapped"],"probe_pitches":[10,4,10,8,3,11,0,6,2,4,1,8,7,2,7,10],"shifted_pitches":[10,4,10,8,3,11,0,5,2,4,1,8,7,2,7,10],"swapped_pitches":[10,4,10,8,3,11,0,2,6,4,1,8,7,2,7,10],"shift_direction":-1,"question_num":31,"has_decoy":false},{"rt":4496.899999976158,"stimulus":"[A] option 1, [L] option 2, [G] neither","key_press":65,"name":"choice","trial_type":"html-keyboard-response","trial_index":54,"time_elapsed":200478,"internal_node_id":"0.0-54.0","subject":"S1C1673","sona":"41764","block":6,"time":"2021-09-27T20:20:01.875Z","response":"1st","certainty":"high","char":"A","transposition":2,"order":["shifted","swapped"],"probe_pitches":[4,1,-1,1,-1,9,4,6,1,4,6,4,6,-1,4,-1],"shifted_pitches":[4,1,-1,1,-1,9,4,7,1,4,6,4,6,-1,4,-1],"swapped_pitches":[4,1,-1,1,-1,9,4,1,6,4,6,4,6,-1,4,-1],"shift_direction":1,"question_num":41,"has_decoy":false},{"rt":1950.7999999523163,"stimulus":"[A] option 1, [L] option 2, [G] neither","key_press":76,"name":"choice","trial_type":"html-keyboard-response","trial_index":65,"time_elapsed":225699,"internal_node_id":"0.0-65.0","subject":"S1C1673","sona":"41764","block":6,"time":"2021-09-27T20:20:01.875Z","response":"2nd","certainty":"high","char":"L","transposition":2,"order":["shifted","swapped"],"probe_pitches":[0,3,9,2,9,3,5,12,6,4,8,5,12,4,2,0],"shifted_pitches":[0,3,9,2,9,3,5,12,7,4,8,5,12,4,2,0],"swapped_pitches":[0,3,9,2,9,3,5,6,12,4,8,5,12,4,2,0],"shift_direction":1,"question_num":51,"has_decoy":false},{"rt":2663.5,"stimulus":"[A] option 1, [L] option 2, [G] neither","key_press":76,"name":"choice","trial_type":"html-keyboard-response","trial_index":76,"time_elapsed":251372,"internal_node_id":"0.0-76.0","subject":"S1C1673","sona":"41764","block":6,"time":"2021-09-27T20:20:01.875Z","response":"2nd","certainty":"high","char":"L","transposition":-1,"order":["shifted","swapped"],"probe_pitches":[11,8,1,8,11,6,-1,6,3,11,1,6,11,1,11,3],"shifted_pitches":[11,8,1,8,11,6,-1,6,2,11,1,6,11,1,11,3],"swapped_pitches":[11,8,1,8,11,6,-1,3,6,11,1,6,11,1,11,3],"shift_direction":-1,"question_num":61,"has_decoy":false},{"rt":4301.800000011921,"stimulus":"[A] option 1, [L] option 2, [G] neither","key_press":65,"name":"choice","trial_type":"html-keyboard-response","trial_index":87,"time_elapsed":283660,"internal_node_id":"0.0-87.0","subject":"S1C1673","sona":"41764","block":6,"time":"2021-09-27T20:20:01.875Z","response":"1st","certainty":"high","char":"A","transposition":-2,"order":["swapped","shifted"],"probe_pitches":[6,9,2,4,6,4,-1,11,2,9,-1,4,6,2,4,-1],"shifted_pitches":[6,9,2,4,6,4,-1,12,2,9,-1,4,6,2,4,-1],"swapped_pitches":[6,9,2,4,6,4,-1,2,11,9,-1,4,6,2,4,-1],"shift_direction":1,"question_num":71,"has_decoy":false},{"rt":19105.69999998808,"stimulus":"[A] option 1, [L] option 2, [G] neither","key_press":71,"name":"choice","trial_type":"html-keyboard-response","trial_index":98,"time_elapsed":328522,"internal_node_id":"0.0-98.0","subject":"S1C1673","sona":"41764","block":6,"time":"2021-09-27T20:20:01.875Z","response":"neither","certainty":"high","char":"G","transposition":0,"order":["swapped","shifted"],"probe_pitches":[-1,2,4,7,2,11,7,11,4,9,-1,4,2,9,4,2],"shifted_pitches":[-1,2,4,7,2,11,7,10,4,9,-1,4,2,9,4,2],"swapped_pitches":[-1,2,4,7,2,11,7,4,11,9,-1,4,2,9,4,2],"shift_direction":-1,"question_num":81,"has_decoy":false},{"rt":23012,"stimulus":"[A] option 1, [L] option 2, [G] neither","key_press":65,"name":"choice","trial_type":"html-keyboard-response","trial_index":109,"time_elapsed":384707,"internal_node_id":"0.0-109.0","subject":"S1C1673","sona":"41764","block":6,"time":"2021-09-27T20:20:01.875Z","response":"1st","certainty":"high","char":"A","transposition":-2,"order":["shifted","swapped"],"probe_pitches":[3,1,0,7,2,4,3,2,10,4,6,1,6,0,1,0],"shifted_pitches":[3,1,0,7,2,4,3,2,11,4,6,1,6,0,1,0],"swapped_pitches":[3,1,0,7,2,4,3,10,2,4,6,1,6,0,1,0],"shift_direction":1,"question_num":91,"has_decoy":false},{"rt":14968.899999976158,"stimulus":"[A] option 1, [L] option 2, [G] neither","key_press":65,"name":"choice","trial_type":"html-keyboard-response","trial_index":120,"time_elapsed":423795,"internal_node_id":"0.0-120.0","subject":"S1C1673","sona":"41764","block":6,"time":"2021-09-27T20:20:01.875Z","response":"1st","certainty":"high","char":"A","transposition":-3,"order":["shifted","swapped"],"probe_pitches":[1,3,4,8,0,4,11,1,3,5,6,4,6,8,11,9],"shifted_pitches":[1,3,4,8,0,4,11,1,2,5,6,4,6,8,11,9],"swapped_pitches":[1,3,4,8,0,4,11,3,1,5,6,4,6,8,11,9],"shift_direction":-1,"question_num":101,"has_decoy":false},{"rt":7505.599999964237,"stimulus":"[A] option 1, [L] option 2, [G] neither","key_press":76,"name":"choice","trial_type":"html-keyboard-response","trial_index":131,"time_elapsed":454993,"internal_node_id":"0.0-131.0","subject":"S1C1673","sona":"41764","block":6,"time":"2021-09-27T20:20:01.875Z","response":"2nd","certainty":"high","char":"L","transposition":-1,"order":["swapped","shifted"],"probe_pitches":[9,7,4,9,2,4,11,9,4,7,11,2,11,4,-1,7],"shifted_pitches":[9,7,4,9,2,4,11,9,5,7,11,2,11,4,-1,7],"swapped_pitches":[9,7,4,9,2,4,11,4,9,7,11,2,11,4,-1,7],"shift_direction":1,"question_num":111,"has_decoy":false},{"rt":5167.300000011921,"stimulus":"[A] option 1, [L] option 2, [G] neither","key_press":71,"name":"choice","trial_type":"html-keyboard-response","trial_index":142,"time_elapsed":482425,"internal_node_id":"0.0-142.0","subject":"S1C1673","sona":"41764","block":6,"time":"2021-09-27T20:20:01.875Z","response":"neither","certainty":"high","char":"G","transposition":-2,"order":["swapped","shifted"],"probe_pitches":[6,1,6,0,5,2,4,9,5,3,4,7,5,12,11,2],"shifted_pitches":[6,1,6,0,5,2,4,8,5,3,4,7,5,12,11,2],"swapped_pitches":[6,1,6,0,5,2,4,5,9,3,4,7,5,12,11,2],"shift_direction":-1,"question_num":121,"has_decoy":false},{"rt":5378,"stimulus":"[A] option 1, [L] option 2, [G] neither","key_press":76,"name":"choice","trial_type":"html-keyboard-response","trial_index":153,"time_elapsed":512108,"internal_node_id":"0.0-153.0","subject":"S1C1673","sona":"41764","block":6,"time":"2021-09-27T20:20:01.875Z","response":"2nd","certainty":"high","char":"L","transposition":-2,"order":["shifted","swapped"],"probe_pitches":[8,11,6,-1,1,11,6,8,4,11,8,6,11,8,11,-1],"shifted_pitches":[8,11,6,-1,1,11,6,8,3,11,8,6,11,8,11,-1],"swapped_pitches":[8,11,6,-1,1,11,6,4,8,11,8,6,11,8,11,-1],"shift_direction":-1,"question_num":131,"has_decoy":false},{"rt":2525.699999988079,"stimulus":"[A] option 1, [L] option 2, [G] neither","key_press":76,"name":"choice","trial_type":"html-keyboard-response","trial_index":164,"time_elapsed":540093,"internal_node_id":"0.0-164.0","subject":"S1C1673","sona":"41764","block":6,"time":"2021-09-27T20:20:01.875Z","response":"2nd","certainty":"high","char":"L","transposition":-3,"order":["swapped","shifted"],"probe_pitches":[1,6,8,1,-1,6,3,8,1,11,8,11,6,11,6,11],"shifted_pitches":[1,6,8,1,-1,6,3,8,2,11,8,11,6,11,6,11],"swapped_pitches":[1,6,8,1,-1,6,3,1,8,11,8,11,6,11,6,11],"shift_direction":1,"question_num":141,"has_decoy":false},{"rt":3017.5,"stimulus":"[A] option 1, [L] option 2, [G] neither","key_press":76,"name":"choice","trial_type":"html-keyboard-response","trial_index":175,"time_elapsed":566334,"internal_node_id":"0.0-175.0","subject":"S1C1673","sona":"41764","block":6,"time":"2021-09-27T20:20:01.875Z","response":"2nd","certainty":"high","char":"L","transposition":-1,"order":["shifted","swapped"],"probe_pitches":[1,2,4,8,1,10,7,5,10,3,1,5,2,0,10,11],"shifted_pitches":[1,2,4,8,1,10,7,6,10,3,1,5,2,0,10,11],"swapped_pitches":[1,2,4,8,1,10,7,10,5,3,1,5,2,0,10,11],"shift_direction":1,"question_num":151,"has_decoy":false},{"rt":26455.600000023842,"stimulus":"[A] option 1, [L] option 2, [G] neither","key_press":65,"name":"choice","trial_type":"html-keyboard-response","trial_index":186,"time_elapsed":738123,"internal_node_id":"0.0-186.0","subject":"S1C1673","sona":"41764","block":6,"time":"2021-09-27T20:20:01.875Z","response":"1st","certainty":"high","char":"A","transposition":3,"order":["swapped","shifted"],"probe_pitches":[0,2,3,8,12,7,11,1,3,11,12,3,9,10,8,7],"shifted_pitches":[0,2,3,8,12,7,11,1,4,11,12,3,9,10,8,7],"swapped_pitches":[0,2,3,8,12,7,11,3,1,11,12,3,9,10,8,7],"shift_direction":1,"question_num":161,"has_decoy":false},{"rt":3516.100000023842,"stimulus":"[A] option 1, [L] option 2, [G] neither","key_press":76,"name":"choice","trial_type":"html-keyboard-response","trial_index":197,"time_elapsed":764652,"internal_node_id":"0.0-197.0","subject":"S1C1673","sona":"41764","block":6,"time":"2021-09-27T20:20:01.875Z","response":"2nd","certainty":"high","char":"L","transposition":-3,"order":["shifted","swapped"],"probe_pitches":[11,8,6,4,6,11,6,8,-1,6,1,-1,6,-1,4,6],"shifted_pitches":[11,8,6,4,6,11,6,9,-1,6,1,-1,6,-1,4,6],"swapped_pitches":[11,8,6,4,6,11,6,-1,8,6,1,-1,6,-1,4,6],"shift_direction":1,"question_num":171,"has_decoy":false},{"rt":1928.1000000238419,"stimulus":"[A] option 1, [L] option 2, [G] neither","key_press":65,"name":"choice","trial_type":"html-keyboard-response","trial_index":208,"time_elapsed":796514,"internal_node_id":"0.0-208.0","subject":"S1C1673","sona":"41764","block":6,"time":"2021-09-27T20:20:01.875Z","response":"1st","certainty":"high","char":"A","transposition":0,"order":["swapped","shifted"],"probe_pitches":[5,7,0,1,8,12,2,0,11,3,12,3,11,9,11,1],"shifted_pitches":[5,7,0,1,8,12,2,0,10,3,12,3,11,9,11,1],"swapped_pitches":[5,7,0,1,8,12,2,11,0,3,12,3,11,9,11,1],"shift_direction":-1,"question_num":181,"has_decoy":false},{"rt":6654.800000011921,"stimulus":"[A] option 1, [L] option 2, [G] neither","key_press":71,"name":"choice","trial_type":"html-keyboard-response","trial_index":219,"time_elapsed":832714,"internal_node_id":"0.0-219.0","subject":"S1C1673","sona":"41764","block":6,"time":"2021-09-27T20:20:01.875Z","response":"neither","certainty":"high","char":"G","transposition":1,"order":["swapped","shifted"],"probe_pitches":[1,4,11,9,11,1,9,1,-1,11,-1,11,6,-1,6,1],"shifted_pitches":[1,4,11,9,11,1,9,1,-2,11,-1,11,6,-1,6,1],"swapped_pitches":[1,4,11,9,11,1,9,-1,1,11,-1,11,6,-1,6,1],"shift_direction":-1,"question_num":191,"has_decoy":false}]