[{"rt":4106.199999988079,"stimulus":"[A] option 1, [L] option 2, [G] neither","key_press":76,"name":"choice","trial_type":"html-keyboard-response","trial_index":10,"time_elapsed":43601,"internal_node_id":"0.0-10.0","subject":"S1C1673","sona":"41764","block":3,"time":"2021-09-27T19:37:13.645Z","response":"2nd","certainty":"high","char":"L","transposition":2,"order":["swapped","shifted"],"probe_pitches":[7,9,3,-3,6,-3,8,2,1,8,2,-1,6,3,5,8],"shifted_pitches":[7,9,3,-3,6,-3,8,2,0,8,2,-1,6,3,5,8],"swapped_pitches":[7,9,3,-3,6,-3,8,1,2,8,2,-1,6,3,5,8],"shift_direction":-1,"question_num":1,"has_decoy":false},{"rt":1718.300000011921,"stimulus":"[A] option 1, [L] option 2, [G] neither","key_press":65,"name":"choice","trial_type":"html-keyboard-response","trial_index":21,"time_elapsed":73790,"internal_node_id":"0.0-21.0","subject":"S1C1673","sona":"41764","block":3,"time":"2021-09-27T19:37:13.645Z","response":"1st","certainty":"high","char":"A","transposition":3,"order":["shifted","swapped"],"probe_pitches":[9,5,2,5,0,-3,0,7,9,5,9,-3,9,2,-3,9],"shifted_pitches":[9,5,2,5,0,-3,0,7,8,5,9,-3,9,2,-3,9],"swapped_pitches":[9,5,2,5,0,-3,0,9,7,5,9,-3,9,2,-3,9],"shift_direction":-1,"question_num":11,"has_decoy":false},{"rt":6396.399999976158,"stimulus":"[A] option 1, [L] option 2, [G] neither","key_press":76,"name":"choice","trial_type":"html-keyboard-response","trial_index":32,"time_elapsed":104244,"internal_node_id":"0.0-32.0","subject":"S1C1673","sona":"41764","block":3,"time":"2021-09-27T19:37:13.645Z","response":"2nd","certainty":"high","char":"L","transposition":-2,"order":["shifted","swapped"],"probe_pitches":[1,5,-2,6,7,-2,2,0,5,-3,-2,9,8,0,-2,-1],"shifted_pitches":[1,5,-2,6,7,-2,2,0,4,-3,-2,9,8,0,-2,-1],"swapped_pitches":[1,5,-2,6,7,-2,2,5,0,-3,-2,9,8,0,-2,-1],"shift_direction":-1,"question_num":21,"has_decoy":false},{"rt":2120.2999999523163,"stimulus":"[A] option 1, [L] option 2, [G] neither","key_press":65,"name":"choice","trial_type":"html-keyboard-response","trial_index":43,"time_elapsed":133211,"internal_node_id":"0.0-43.0","subject":"S1C1673","sona":"41764","block":3,"time":"2021-09-27T19:37:13.645Z","response":"1st","certainty":"high","char":"A","transposition":-2,"order":["swapped","shifted"],"probe_pitches":[5,2,-1,-2,5,-2,0,5,3,1,-3,7,0,-3,9,5],"shifted_pitches":[5,2,-1,-2,5,-2,0,6,3,1,-3,7,0,-3,9,5],"swapped_pitches":[5,2,-1,-2,5,-2,0,3,5,1,-3,7,0,-3,9,5],"shift_direction":1,"question_num":31,"has_decoy":false},{"rt":3241.900000035763,"stimulus":"[A] option 1, [L] option 2, [G] neither","key_press":65,"name":"choice","trial_type":"html-keyboard-response","trial_index":54,"time_elapsed":160370,"internal_node_id":"0.0-54.0","subject":"S1C1673","sona":"41764","block":3,"time":"2021-09-27T19:37:13.645Z","response":"1st","certainty":"high","char":"A","transposition":2,"order":["swapped","shifted"],"probe_pitches":[4,-1,2,6,4,-1,2,-3,-1,6,-3,-1,4,9,6,-3],"shifted_pitches":[4,-1,2,6,4,-1,2,-2,-1,6,-3,-1,4,9,6,-3],"swapped_pitches":[4,-1,2,6,4,-1,2,-1,-3,6,-3,-1,4,9,6,-3],"shift_direction":1,"question_num":41,"has_decoy":false},{"rt":1573.5,"stimulus":"[A] option 1, [L] option 2, [G] neither","key_press":76,"name":"choice","trial_type":"html-keyboard-response","trial_index":65,"time_elapsed":185086,"internal_node_id":"0.0-65.0","subject":"S1C1673","sona":"41764","block":3,"time":"2021-09-27T19:37:13.645Z","response":"2nd","certainty":"high","char":"L","transposition":-3,"order":["swapped","shifted"],"probe_pitches":[-1,4,7,9,2,-3,4,9,7,2,-1,-3,2,-1,-3,-1],"shifted_pitches":[-1,4,7,9,2,-3,4,10,7,2,-1,-3,2,-1,-3,-1],"swapped_pitches":[-1,4,7,9,2,-3,4,7,9,2,-1,-3,2,-1,-3,-1],"shift_direction":1,"question_num":51,"has_decoy":false},{"rt":586.8000000119209,"stimulus":"[A] option 1, [L] option 2, [G] neither","key_press":71,"name":"choice","trial_type":"html-keyboard-response","trial_index":76,"time_elapsed":210344,"internal_node_id":"0.0-76.0","subject":"S1C1673","sona":"41764","block":3,"time":"2021-09-27T19:37:13.645Z","response":"neither","certainty":"high","char":"G","transposition":1,"order":["swapped","shifted"],"probe_pitches":[7,1,-3,3,-2,8,-2,1,7,9,-3,9,1,7,9,1],"shifted_pitches":[7,1,-3,3,-2,8,-2,2,7,9,-3,9,1,7,9,1],"swapped_pitches":[7,1,-3,3,-2,8,-2,7,1,9,-3,9,1,7,9,1],"shift_direction":1,"question_num":61,"has_decoy":false},{"rt":3056.399999976158,"stimulus":"[A] option 1, [L] option 2, [G] neither","key_press":65,"name":"choice","trial_type":"html-keyboard-response","trial_index":87,"time_elapsed":238841,"internal_node_id":"0.0-87.0","subject":"S1C1673","sona":"41764","block":3,"time":"2021-09-27T19:37:13.645Z","response":"1st","certainty":"high","char":"A","transposition":-1,"order":["shifted","swapped"],"probe_pitches":[7,8,4,1,-2,2,8,9,4,7,2,9,8,7,2,7],"shifted_pitches":[7,8,4,1,-2,2,8,9,3,7,2,9,8,7,2,7],"swapped_pitches":[7,8,4,1,-2,2,8,4,9,7,2,9,8,7,2,7],"shift_direction":-1,"question_num":71,"has_decoy":false},{"rt":3600.400000035763,"stimulus":"[A] option 1, [L] option 2, [G] neither","key_press":71,"name":"choice","trial_type":"html-keyboard-response","trial_index":98,"time_elapsed":269028,"internal_node_id":"0.0-98.0","subject":"S1C1673","sona":"41764","block":3,"time":"2021-09-27T19:37:13.645Z","response":"neither","certainty":"high","char":"G","transposition":-2,"order":["shifted","swapped"],"probe_pitches":[4,2,9,7,9,4,-3,4,-1,9,-1,7,4,-3,-1,4],"shifted_pitches":[4,2,9,7,9,4,-3,5,-1,9,-1,7,4,-3,-1,4],"swapped_pitches":[4,2,9,7,9,4,-3,-1,4,9,-1,7,4,-3,-1,4],"shift_direction":1,"question_num":81,"has_decoy":false},{"rt":2603,"stimulus":"[A] option 1, [L] option 2, [G] neither","key_press":76,"name":"choice","trial_type":"html-keyboard-response","trial_index":109,"time_elapsed":296451,"internal_node_id":"0.0-109.0","subject":"S1C1673","sona":"41764","block":3,"time":"2021-09-27T19:37:13.645Z","response":"2nd","certainty":"high","char":"L","transposition":-1,"order":["shifted","swapped"],"probe_pitches":[-3,2,-1,-3,4,9,2,4,-1,2,9,6,-1,4,9,4],"shifted_pitches":[-3,2,-1,-3,4,9,2,4,-2,2,9,6,-1,4,9,4],"swapped_pitches":[-3,2,-1,-3,4,9,2,-1,4,2,9,6,-1,4,9,4],"shift_direction":-1,"question_num":91,"has_decoy":false},{"rt":3461,"stimulus":"[A] option 1, [L] option 2, [G] neither","key_press":76,"name":"choice","trial_type":"html-keyboard-response","trial_index":120,"time_elapsed":325396,"internal_node_id":"0.0-120.0","subject":"S1C1673","sona":"41764","block":3,"time":"2021-09-27T19:37:13.645Z","response":"2nd","certainty":"high","char":"L","transposition":1,"order":["swapped","shifted"],"probe_pitches":[9,4,7,4,9,7,2,-3,7,4,7,-3,2,7,4,0],"shifted_pitches":[9,4,7,4,9,7,2,-3,8,4,7,-3,2,7,4,0],"swapped_pitches":[9,4,7,4,9,7,2,7,-3,4,7,-3,2,7,4,0],"shift_direction":1,"question_num":101,"has_decoy":false},{"rt":1850,"stimulus":"[A] option 1, [L] option 2, [G] neither","key_press":65,"name":"choice","trial_type":"html-keyboard-response","trial_index":131,"time_elapsed":352532,"internal_node_id":"0.0-131.0","subject":"S1C1673","sona":"41764","block":3,"time":"2021-09-27T19:37:13.645Z","response":"1st","certainty":"high","char":"A","transposition":-3,"order":["shifted","swapped"],"probe_pitches":[9,3,2,5,6,5,-3,5,-2,-3,8,0,-3,1,5,7],"shifted_pitches":[9,3,2,5,6,5,-3,5,-1,-3,8,0,-3,1,5,7],"swapped_pitches":[9,3,2,5,6,5,-3,-2,5,-3,8,0,-3,1,5,7],"shift_direction":1,"question_num":111,"has_decoy":false},{"rt":1080.2000000476837,"stimulus":"[A] option 1, [L] option 2, [G] neither","key_press":71,"name":"choice","trial_type":"html-keyboard-response","trial_index":142,"time_elapsed":377901,"internal_node_id":"0.0-142.0","subject":"S1C1673","sona":"41764","block":3,"time":"2021-09-27T19:37:13.645Z","response":"neither","certainty":"high","char":"G","transposition":3,"order":["shifted","swapped"],"probe_pitches":[7,2,8,4,7,9,7,2,-3,6,7,6,-3,-1,4,-3],"shifted_pitches":[7,2,8,4,7,9,7,1,-3,6,7,6,-3,-1,4,-3],"swapped_pitches":[7,2,8,4,7,9,7,-3,2,6,7,6,-3,-1,4,-3],"shift_direction":-1,"question_num":121,"has_decoy":false},{"rt":723.6999999880791,"stimulus":"[A] option 1, [L] option 2, [G] neither","key_press":65,"name":"choice","trial_type":"html-keyboard-response","trial_index":153,"time_elapsed":402265,"internal_node_id":"0.0-153.0","subject":"S1C1673","sona":"41764","block":3,"time":"2021-09-27T19:37:13.645Z","response":"1st","certainty":"high","char":"A","transposition":-1,"order":["swapped","shifted"],"probe_pitches":[0,1,0,4,-1,2,0,6,-3,2,4,1,7,1,4,-1],"shifted_pitches":[0,1,0,4,-1,2,0,5,-3,2,4,1,7,1,4,-1],"swapped_pitches":[0,1,0,4,-1,2,0,-3,6,2,4,1,7,1,4,-1],"shift_direction":-1,"question_num":131,"has_decoy":false},{"rt":3678.300000011921,"stimulus":"[A] option 1, [L] option 2, [G] neither","key_press":76,"name":"choice","trial_type":"html-keyboard-response","trial_index":164,"time_elapsed":441753,"internal_node_id":"0.0-164.0","subject":"S1C1673","sona":"41764","block":3,"time":"2021-09-27T19:37:13.645Z","response":"2nd","certainty":"high","char":"L","transposition":-3,"order":["swapped","shifted"],"probe_pitches":[-1,-3,1,9,4,-1,5,3,6,1,-1,1,4,2,3,0],"shifted_pitches":[-1,-3,1,9,4,-1,5,3,7,1,-1,1,4,2,3,0],"swapped_pitches":[-1,-3,1,9,4,-1,5,6,3,1,-1,1,4,2,3,0],"shift_direction":1,"question_num":141,"has_decoy":false},{"rt":3086.199999988079,"stimulus":"[A] option 1, [L] option 2, [G] neither","key_press":65,"name":"choice","trial_type":"html-keyboard-response","trial_index":175,"time_elapsed":468654,"internal_node_id":"0.0-175.0","subject":"S1C1673","sona":"41764","block":3,"time":"2021-09-27T19:37:13.645Z","response":"1st","certainty":"high","char":"A","transposition":-2,"order":["swapped","shifted"],"probe_pitches":[2,7,4,9,4,7,-3,9,2,0,7,0,-3,0,9,4],"shifted_pitches":[2,7,4,9,4,7,-3,9,1,0,7,0,-3,0,9,4],"swapped_pitches":[2,7,4,9,4,7,-3,2,9,0,7,0,-3,0,9,4],"shift_direction":-1,"question_num":151,"has_decoy":false},{"rt":5761.699999988079,"stimulus":"[A] option 1, [L] option 2, [G] neither","key_press":71,"name":"choice","trial_type":"html-keyboard-response","trial_index":186,"time_elapsed":501724,"internal_node_id":"0.0-186.0","subject":"S1C1673","sona":"41764","block":3,"time":"2021-09-27T19:37:13.645Z","response":"neither","certainty":"high","char":"G","transposition":-3,"order":["swapped","shifted"],"probe_pitches":[1,-3,4,1,9,4,1,6,-1,-3,4,-3,9,-3,9,6],"shifted_pitches":[1,-3,4,1,9,4,1,5,-1,-3,4,-3,9,-3,9,6],"swapped_pitches":[1,-3,4,1,9,4,1,-1,6,-3,4,-3,9,-3,9,6],"shift_direction":-1,"question_num":161,"has_decoy":false},{"rt":1652.5,"stimulus":"[A] option 1, [L] option 2, [G] neither","key_press":71,"name":"choice","trial_type":"html-keyboard-response","trial_index":197,"time_elapsed":528789,"internal_node_id":"0.0-197.0","subject":"S1C1673","sona":"41764","block":3,"time":"2021-09-27T19:37:13.645Z","response":"neither","certainty":"high","char":"G","transposition":0,"order":["shifted","swapped"],"probe_pitches":[-3,-1,4,-1,4,1,9,6,1,9,-3,-1,1,-1,4,-3],"shifted_pitches":[-3,-1,4,-1,4,1,9,6,2,9,-3,-1,1,-1,4,-3],"swapped_pitches":[-3,-1,4,-1,4,1,9,1,6,9,-3,-1,1,-1,4,-3],"shift_direction":1,"question_num":171,"has_decoy":false},{"rt":10344.800000011921,"stimulus":"[A] option 1, [L] option 2, [G] neither","key_press":65,"name":"choice","trial_type":"html-keyboard-response","trial_index":208,"time_elapsed":563503,"internal_node_id":"0.0-208.0","subject":"S1C1673","sona":"41764","block":3,"time":"2021-09-27T19:37:13.645Z","response":"1st","certainty":"high","char":"A","transposition":-1,"order":["shifted","swapped"],"probe_pitches":[7,9,2,9,5,0,5,7,-3,0,7,9,7,0,2,7],"shifted_pitches":[7,9,2,9,5,0,5,6,-3,0,7,9,7,0,2,7],"swapped_pitches":[7,9,2,9,5,0,5,-3,7,0,7,9,7,0,2,7],"shift_direction":-1,"question_num":181,"has_decoy":false},{"rt":2339.300000011921,"stimulus":"[A] option 1, [L] option 2, [G] neither","key_press":65,"name":"choice","trial_type":"html-keyboard-response","trial_index":219,"time_elapsed":603336,"internal_node_id":"0.0-219.0","subject":"S1C1673","sona":"41764","block":3,"time":"2021-09-27T19:37:13.645Z","response":"1st","certainty":"high","char":"A","transposition":0,"order":["shifted","swapped"],"probe_pitches":[1,6,-1,4,0,2,-1,7,4,-1,6,5,7,-3,3,1],"shifted_pitches":[1,6,-1,4,0,2,-1,8,4,-1,6,5,7,-3,3,1],"swapped_pitches":[1,6,-1,4,0,2,-1,4,7,-1,6,5,7,-3,3,1],"shift_direction":1,"question_num":191,"has_decoy":false}]