[{"rt":976.5,"stimulus":"[A] option 1, [L] option 2, [G] neither","key_press":65,"name":"choice","trial_type":"html-keyboard-response","trial_index":10,"time_elapsed":24155,"internal_node_id":"0.0-10.0","subject":"S1C1673","sona":"41764","block":5,"time":"2021-09-27T20:06:00.309Z","response":"1st","certainty":"high","char":"A","transposition":-1,"order":["shifted","swapped"],"probe_pitches":[1,4,1,6,-1,1,9,-1,4,1,4,-1,9,11,4,6],"shifted_pitches":[1,4,1,6,-1,1,9,0,4,1,4,-1,9,11,4,6],"swapped_pitches":[1,4,1,6,-1,1,9,4,-1,1,4,-1,9,11,4,6],"shift_direction":1,"question_num":1,"has_decoy":false},{"rt":19935.400000035763,"stimulus":"[A] option 1, [L] option 2, [G] neither","key_press":76,"name":"choice","trial_type":"html-keyboard-response","trial_index":21,"time_elapsed":66805,"internal_node_id":"0.0-21.0","subject":"S1C1673","sona":"41764","block":5,"time":"2021-09-27T20:06:00.309Z","response":"2nd","certainty":"high","char":"L","transposition":2,"order":["shifted","swapped"],"probe_pitches":[12,15,11,15,8,11,9,13,12,6,7,9,15,6,13,7],"shifted_pitches":[12,15,11,15,8,11,9,14,12,6,7,9,15,6,13,7],"swapped_pitches":[12,15,11,15,8,11,9,12,13,6,7,9,15,6,13,7],"shift_direction":1,"question_num":11,"has_decoy":false},{"rt":3089.5,"stimulus":"[A] option 1, [L] option 2, [G] neither","key_press":65,"name":"choice","trial_type":"html-keyboard-response","trial_index":32,"time_elapsed":103466,"internal_node_id":"0.0-32.0","subject":"S1C1673","sona":"41764","block":5,"time":"2021-09-27T20:06:00.309Z","response":"1st","certainty":"high","char":"A","transposition":-1,"order":["shifted","swapped"],"probe_pitches":[13,14,12,11,13,4,5,11,3,15,5,7,4,13,6,8],"shifted_pitches":[13,14,12,11,13,4,5,10,3,15,5,7,4,13,6,8],"swapped_pitches":[13,14,12,11,13,4,5,3,11,15,5,7,4,13,6,8],"shift_direction":-1,"question_num":21,"has_decoy":false},{"rt":5166.699999988079,"stimulus":"[A] option 1, [L] option 2, [G] neither","key_press":71,"name":"choice","trial_type":"html-keyboard-response","trial_index":43,"time_elapsed":144070,"internal_node_id":"0.0-43.0","subject":"S1C1673","sona":"41764","block":5,"time":"2021-09-27T20:06:00.309Z","response":"neither","certainty":"high","char":"G","transposition":1,"order":["shifted","swapped"],"probe_pitches":[7,10,3,8,7,12,13,10,12,4,10,14,8,4,5,7],"shifted_pitches":[7,10,3,8,7,12,13,11,12,4,10,14,8,4,5,7],"swapped_pitches":[7,10,3,8,7,12,13,12,10,4,10,14,8,4,5,7],"shift_direction":1,"question_num":31,"has_decoy":false},{"rt":2914.900000035763,"stimulus":"[A] option 1, [L] option 2, [G] neither","key_press":65,"name":"choice","trial_type":"html-keyboard-response","trial_index":54,"time_elapsed":170198,"internal_node_id":"0.0-54.0","subject":"S1C1673","sona":"41764","block":5,"time":"2021-09-27T20:06:00.309Z","response":"1st","certainty":"high","char":"A","transposition":3,"order":["shifted","swapped"],"probe_pitches":[3,7,11,8,12,3,8,10,11,14,7,5,12,8,3,10],"shifted_pitches":[3,7,11,8,12,3,8,9,11,14,7,5,12,8,3,10],"swapped_pitches":[3,7,11,8,12,3,8,11,10,14,7,5,12,8,3,10],"shift_direction":-1,"question_num":41,"has_decoy":false},{"rt":14216.899999976158,"stimulus":"[A] option 1, [L] option 2, [G] neither","key_press":71,"name":"choice","trial_type":"html-keyboard-response","trial_index":65,"time_elapsed":208263,"internal_node_id":"0.0-65.0","subject":"S1C1673","sona":"41764","block":5,"time":"2021-09-27T20:06:00.309Z","response":"neither","certainty":"high","char":"G","transposition":-3,"order":["swapped","shifted"],"probe_pitches":[8,4,11,8,6,-1,1,8,6,4,-1,1,11,8,4,8],"shifted_pitches":[8,4,11,8,6,-1,1,9,6,4,-1,1,11,8,4,8],"swapped_pitches":[8,4,11,8,6,-1,1,6,8,4,-1,1,11,8,4,8],"shift_direction":1,"question_num":51,"has_decoy":false},{"rt":3972.5,"stimulus":"[A] option 1, [L] option 2, [G] neither","key_press":65,"name":"choice","trial_type":"html-keyboard-response","trial_index":76,"time_elapsed":237160,"internal_node_id":"0.0-76.0","subject":"S1C1673","sona":"41764","block":5,"time":"2021-09-27T20:06:00.309Z","response":"1st","certainty":"high","char":"A","transposition":-3,"order":["swapped","shifted"],"probe_pitches":[5,3,8,12,9,8,14,7,13,9,10,15,3,12,15,11],"shifted_pitches":[5,3,8,12,9,8,14,6,13,9,10,15,3,12,15,11],"swapped_pitches":[5,3,8,12,9,8,14,13,7,9,10,15,3,12,15,11],"shift_direction":-1,"question_num":61,"has_decoy":false},{"rt":5006.5,"stimulus":"[A] option 1, [L] option 2, [G] neither","key_press":65,"name":"choice","trial_type":"html-keyboard-response","trial_index":87,"time_elapsed":268301,"internal_node_id":"0.0-87.0","subject":"S1C1673","sona":"41764","block":5,"time":"2021-09-27T20:06:00.309Z","response":"1st","certainty":"high","char":"A","transposition":-2,"order":["swapped","shifted"],"probe_pitches":[1,6,8,1,-1,1,11,1,8,3,1,11,6,8,1,6],"shifted_pitches":[1,6,8,1,-1,1,11,1,7,3,1,11,6,8,1,6],"swapped_pitches":[1,6,8,1,-1,1,11,8,1,3,1,11,6,8,1,6],"shift_direction":-1,"question_num":71,"has_decoy":false},{"rt":5295.300000011921,"stimulus":"[A] option 1, [L] option 2, [G] neither","key_press":71,"name":"choice","trial_type":"html-keyboard-response","trial_index":98,"time_elapsed":296073,"internal_node_id":"0.0-98.0","subject":"S1C1673","sona":"41764","block":5,"time":"2021-09-27T20:06:00.309Z","response":"neither","certainty":"high","char":"G","transposition":3,"order":["shifted","swapped"],"probe_pitches":[6,11,8,6,-1,1,-1,11,1,4,11,-1,4,6,11,-1],"shifted_pitches":[6,11,8,6,-1,1,-1,12,1,4,11,-1,4,6,11,-1],"swapped_pitches":[6,11,8,6,-1,1,-1,1,11,4,11,-1,4,6,11,-1],"shift_direction":1,"question_num":81,"has_decoy":false},{"rt":33718.59999996424,"stimulus":"[A] option 1, [L] option 2, [G] neither","key_press":65,"name":"choice","trial_type":"html-keyboard-response","trial_index":109,"time_elapsed":357979,"internal_node_id":"0.0-109.0","subject":"S1C1673","sona":"41764","block":5,"time":"2021-09-27T20:06:00.309Z","response":"1st","certainty":"high","char":"A","transposition":-2,"order":["shifted","swapped"],"probe_pitches":[2,4,7,11,2,9,2,-1,4,2,9,2,4,7,9,4],"shifted_pitches":[2,4,7,11,2,9,2,-1,3,2,9,2,4,7,9,4],"swapped_pitches":[2,4,7,11,2,9,2,4,-1,2,9,2,4,7,9,4],"shift_direction":-1,"question_num":91,"has_decoy":false},{"rt":2455.099999964237,"stimulus":"[A] option 1, [L] option 2, [G] neither","key_press":76,"name":"choice","trial_type":"html-keyboard-response","trial_index":120,"time_elapsed":384257,"internal_node_id":"0.0-120.0","subject":"S1C1673","sona":"41764","block":5,"time":"2021-09-27T20:06:00.309Z","response":"2nd","certainty":"high","char":"L","transposition":1,"order":["swapped","shifted"],"probe_pitches":[1,6,-1,3,8,11,8,1,3,-1,11,6,3,11,1,3],"shifted_pitches":[1,6,-1,3,8,11,8,2,3,-1,11,6,3,11,1,3],"swapped_pitches":[1,6,-1,3,8,11,8,3,1,-1,11,6,3,11,1,3],"shift_direction":1,"question_num":101,"has_decoy":false},{"rt":21793.899999976158,"stimulus":"[A] option 1, [L] option 2, [G] neither","key_press":71,"name":"choice","trial_type":"html-keyboard-response","trial_index":131,"time_elapsed":432812,"internal_node_id":"0.0-131.0","subject":"S1C1673","sona":"41764","block":5,"time":"2021-09-27T20:06:00.309Z","response":"neither","certainty":"high","char":"G","transposition":2,"order":["swapped","shifted"],"probe_pitches":[9,6,9,2,11,9,4,2,6,-1,2,-1,9,-1,2,6],"shifted_pitches":[9,6,9,2,11,9,4,2,5,-1,2,-1,9,-1,2,6],"swapped_pitches":[9,6,9,2,11,9,4,6,2,-1,2,-1,9,-1,2,6],"shift_direction":-1,"question_num":111,"has_decoy":false},{"rt":7158,"stimulus":"[A] option 1, [L] option 2, [G] neither","key_press":71,"name":"choice","trial_type":"html-keyboard-response","trial_index":142,"time_elapsed":469075,"internal_node_id":"0.0-142.0","subject":"S1C1673","sona":"41764","block":5,"time":"2021-09-27T20:06:00.309Z","response":"neither","certainty":"high","char":"G","transposition":0,"order":["swapped","shifted"],"probe_pitches":[13,8,6,11,9,8,10,4,6,14,7,8,10,6,15,14],"shifted_pitches":[13,8,6,11,9,8,10,4,5,14,7,8,10,6,15,14],"swapped_pitches":[13,8,6,11,9,8,10,6,4,14,7,8,10,6,15,14],"shift_direction":-1,"question_num":121,"has_decoy":false},{"rt":6224,"stimulus":"[A] option 1, [L] option 2, [G] neither","key_press":65,"name":"choice","trial_type":"html-keyboard-response","trial_index":153,"time_elapsed":502889,"internal_node_id":"0.0-153.0","subject":"S1C1673","sona":"41764","block":5,"time":"2021-09-27T20:06:00.309Z","response":"1st","certainty":"high","char":"A","transposition":-1,"order":["swapped","shifted"],"probe_pitches":[3,9,14,6,12,3,4,9,12,7,11,15,10,15,9,6],"shifted_pitches":[3,9,14,6,12,3,4,9,13,7,11,15,10,15,9,6],"swapped_pitches":[3,9,14,6,12,3,4,12,9,7,11,15,10,15,9,6],"shift_direction":1,"question_num":131,"has_decoy":false},{"rt":3605.599999964237,"stimulus":"[A] option 1, [L] option 2, [G] neither","key_press":71,"name":"choice","trial_type":"html-keyboard-response","trial_index":164,"time_elapsed":529391,"internal_node_id":"0.0-164.0","subject":"S1C1673","sona":"41764","block":5,"time":"2021-09-27T20:06:00.309Z","response":"neither","certainty":"high","char":"G","transposition":0,"order":["shifted","swapped"],"probe_pitches":[11,9,11,4,2,11,7,9,2,4,2,4,7,11,2,11],"shifted_pitches":[11,9,11,4,2,11,7,9,3,4,2,4,7,11,2,11],"swapped_pitches":[11,9,11,4,2,11,7,2,9,4,2,4,7,11,2,11],"shift_direction":1,"question_num":141,"has_decoy":false},{"rt":7186.5,"stimulus":"[A] option 1, [L] option 2, [G] neither","key_press":76,"name":"choice","trial_type":"html-keyboard-response","trial_index":175,"time_elapsed":559548,"internal_node_id":"0.0-175.0","subject":"S1C1673","sona":"41764","block":5,"time":"2021-09-27T20:06:00.309Z","response":"2nd","certainty":"high","char":"L","transposition":-3,"order":["swapped","shifted"],"probe_pitches":[4,10,8,10,13,7,5,10,11,3,10,3,14,7,9,10],"shifted_pitches":[4,10,8,10,13,7,5,10,12,3,10,3,14,7,9,10],"swapped_pitches":[4,10,8,10,13,7,5,11,10,3,10,3,14,7,9,10],"shift_direction":1,"question_num":151,"has_decoy":false},{"rt":3216.899999976158,"stimulus":"[A] option 1, [L] option 2, [G] neither","key_press":76,"name":"choice","trial_type":"html-keyboard-response","trial_index":186,"time_elapsed":589184,"internal_node_id":"0.0-186.0","subject":"S1C1673","sona":"41764","block":5,"time":"2021-09-27T20:06:00.309Z","response":"2nd","certainty":"high","char":"L","transposition":-2,"order":["shifted","swapped"],"probe_pitches":[14,13,9,14,5,3,9,11,7,10,11,3,12,7,4,6],"shifted_pitches":[14,13,9,14,5,3,9,11,8,10,11,3,12,7,4,6],"swapped_pitches":[14,13,9,14,5,3,9,7,11,10,11,3,12,7,4,6],"shift_direction":1,"question_num":161,"has_decoy":false},{"rt":4933.800000011921,"stimulus":"[A] option 1, [L] option 2, [G] neither","key_press":65,"name":"choice","trial_type":"html-keyboard-response","trial_index":197,"time_elapsed":628080,"internal_node_id":"0.0-197.0","subject":"S1C1673","sona":"41764","block":5,"time":"2021-09-27T20:06:00.309Z","response":"1st","certainty":"high","char":"A","transposition":-2,"order":["swapped","shifted"],"probe_pitches":[10,5,10,8,9,15,14,3,8,12,14,13,15,14,9,4],"shifted_pitches":[10,5,10,8,9,15,14,3,7,12,14,13,15,14,9,4],"swapped_pitches":[10,5,10,8,9,15,14,8,3,12,14,13,15,14,9,4],"shift_direction":-1,"question_num":171,"has_decoy":false},{"rt":6057.100000023842,"stimulus":"[A] option 1, [L] option 2, [G] neither","key_press":65,"name":"choice","trial_type":"html-keyboard-response","trial_index":208,"time_elapsed":656644,"internal_node_id":"0.0-208.0","subject":"S1C1673","sona":"41764","block":5,"time":"2021-09-27T20:06:00.309Z","response":"1st","certainty":"high","char":"A","transposition":-1,"order":["swapped","shifted"],"probe_pitches":[9,11,4,11,6,11,4,9,1,-1,6,9,-1,1,-1,6],"shifted_pitches":[9,11,4,11,6,11,4,8,1,-1,6,9,-1,1,-1,6],"swapped_pitches":[9,11,4,11,6,11,4,1,9,-1,6,9,-1,1,-1,6],"shift_direction":-1,"question_num":181,"has_decoy":false},{"rt":3570,"stimulus":"[A] option 1, [L] option 2, [G] neither","key_press":65,"name":"choice","trial_type":"html-keyboard-response","trial_index":219,"time_elapsed":687234,"internal_node_id":"0.0-219.0","subject":"S1C1673","sona":"41764","block":5,"time":"2021-09-27T20:06:00.309Z","response":"1st","certainty":"high","char":"A","transposition":-3,"order":["shifted","swapped"],"probe_pitches":[4,9,4,6,4,-1,6,11,4,-1,11,2,-1,4,9,4],"shifted_pitches":[4,9,4,6,4,-1,6,11,3,-1,11,2,-1,4,9,4],"swapped_pitches":[4,9,4,6,4,-1,6,4,11,-1,11,2,-1,4,9,4],"shift_direction":-1,"question_num":191,"has_decoy":false}]