[{"rt":9944.100000023842,"stimulus":"[A] option 1, [L] option 2, [G] neither","key_press":76,"name":"choice","trial_type":"html-keyboard-response","trial_index":15,"time_elapsed":103444,"internal_node_id":"0.0-15.0","response":"2nd","certainty":"high","char":"L","transposition":-1,"order":["shifted","swapped"],"probe_pitches":[10,11,10,7,0,10,6,1,5,3,9,7,3,10,1,6],"shifted_pitches":[10,11,10,7,0,10,6,2,5,3,9,7,3,10,1,6],"swapped_pitches":[10,11,10,7,0,10,6,5,1,3,9,7,3,10,1,6],"shift_direction":1,"question_num":1,"has_decoy":false,"subject":"S1C1673","sona":"41764","block":1,"time":"2021-09-27T19:15:36.548Z"},{"rt":1493,"stimulus":"[A] option 1, [L] option 2, [G] neither","key_press":76,"name":"choice","trial_type":"html-keyboard-response","trial_index":26,"time_elapsed":130289,"internal_node_id":"0.0-26.0","response":"2nd","certainty":"high","char":"L","transposition":-3,"order":["shifted","swapped"],"probe_pitches":[13,10,3,5,3,10,13,15,8,3,10,5,15,3,8,15],"shifted_pitches":[13,10,3,5,3,10,13,14,8,3,10,5,15,3,8,15],"swapped_pitches":[13,10,3,5,3,10,13,8,15,3,10,5,15,3,8,15],"shift_direction":-1,"question_num":11,"has_decoy":false,"subject":"S1C1673","sona":"41764","block":1,"time":"2021-09-27T19:15:36.548Z"},{"rt":5585.600000023842,"stimulus":"[A] option 1, [L] option 2, [G] neither","key_press":76,"name":"choice","trial_type":"html-keyboard-response","trial_index":37,"time_elapsed":159214,"internal_node_id":"0.0-37.0","response":"2nd","certainty":"high","char":"L","transposition":-1,"order":["swapped","shifted"],"probe_pitches":[7,5,3,10,7,15,10,5,7,15,3,5,12,5,12,10],"shifted_pitches":[7,5,3,10,7,15,10,5,8,15,3,5,12,5,12,10],"swapped_pitches":[7,5,3,10,7,15,10,7,5,15,3,5,12,5,12,10],"shift_direction":1,"question_num":21,"has_decoy":false,"subject":"S1C1673","sona":"41764","block":1,"time":"2021-09-27T19:15:36.548Z"},{"rt":1319.199999988079,"stimulus":"[A] option 1, [L] option 2, [G] neither","key_press":65,"name":"choice","trial_type":"html-keyboard-response","trial_index":48,"time_elapsed":183843,"internal_node_id":"0.0-48.0","response":"1st","certainty":"high","char":"A","transposition":-2,"order":["swapped","shifted"],"probe_pitches":[12,7,12,15,12,15,10,7,12,10,7,10,3,5,10,3],"shifted_pitches":[12,7,12,15,12,15,10,7,13,10,7,10,3,5,10,3],"swapped_pitches":[12,7,12,15,12,15,10,12,7,10,7,10,3,5,10,3],"shift_direction":1,"question_num":31,"has_decoy":false,"subject":"S1C1673","sona":"41764","block":1,"time":"2021-09-27T19:15:36.548Z"},{"rt":1041.800000011921,"stimulus":"[A] option 1, [L] option 2, [G] neither","key_press":76,"name":"choice","trial_type":"html-keyboard-response","trial_index":59,"time_elapsed":208136,"internal_node_id":"0.0-59.0","response":"2nd","certainty":"high","char":"L","transposition":-3,"order":["swapped","shifted"],"probe_pitches":[2,7,0,5,6,4,10,7,5,9,1,4,10,2,0,4],"shifted_pitches":[2,7,0,5,6,4,10,8,5,9,1,4,10,2,0,4],"swapped_pitches":[2,7,0,5,6,4,10,5,7,9,1,4,10,2,0,4],"shift_direction":1,"question_num":41,"has_decoy":false,"subject":"S1C1673","sona":"41764","block":1,"time":"2021-09-27T19:15:36.548Z"},{"rt":1264.800000011921,"stimulus":"[A] option 1, [L] option 2, [G] neither","key_press":65,"name":"choice","trial_type":"html-keyboard-response","trial_index":70,"time_elapsed":232873,"internal_node_id":"0.0-70.0","response":"1st","certainty":"high","char":"A","transposition":2,"order":["shifted","swapped"],"probe_pitches":[15,13,6,11,3,13,8,13,15,11,8,13,11,8,6,13],"shifted_pitches":[15,13,6,11,3,13,8,12,15,11,8,13,11,8,6,13],"swapped_pitches":[15,13,6,11,3,13,8,15,13,11,8,13,11,8,6,13],"shift_direction":-1,"question_num":51,"has_decoy":false,"subject":"S1C1673","sona":"41764","block":1,"time":"2021-09-27T19:15:36.548Z"},{"rt":878.8000000119209,"stimulus":"[A] option 1, [L] option 2, [G] neither","key_press":76,"name":"choice","trial_type":"html-keyboard-response","trial_index":81,"time_elapsed":257279,"internal_node_id":"0.0-81.0","response":"2nd","certainty":"high","char":"L","transposition":2,"order":["shifted","swapped"],"probe_pitches":[7,2,1,3,5,11,3,9,11,1,2,12,1,12,3,8],"shifted_pitches":[7,2,1,3,5,11,3,10,11,1,2,12,1,12,3,8],"swapped_pitches":[7,2,1,3,5,11,3,11,9,1,2,12,1,12,3,8],"shift_direction":1,"question_num":61,"has_decoy":false,"subject":"S1C1673","sona":"41764","block":1,"time":"2021-09-27T19:15:36.548Z"},{"rt":2692.699999988079,"stimulus":"[A] option 1, [L] option 2, [G] neither","key_press":65,"name":"choice","trial_type":"html-keyboard-response","trial_index":92,"time_elapsed":283688,"internal_node_id":"0.0-92.0","response":"1st","certainty":"high","char":"A","transposition":1,"order":["swapped","shifted"],"probe_pitches":[0,1,4,12,5,7,1,2,10,0,11,4,10,0,8,4],"shifted_pitches":[0,1,4,12,5,7,1,2,9,0,11,4,10,0,8,4],"swapped_pitches":[0,1,4,12,5,7,1,10,2,0,11,4,10,0,8,4],"shift_direction":-1,"question_num":71,"has_decoy":false,"subject":"S1C1673","sona":"41764","block":1,"time":"2021-09-27T19:15:36.548Z"},{"rt":1225.800000011921,"stimulus":"[A] option 1, [L] option 2, [G] neither","key_press":76,"name":"choice","trial_type":"html-keyboard-response","trial_index":103,"time_elapsed":308050,"internal_node_id":"0.0-103.0","response":"2nd","certainty":"high","char":"L","transposition":-2,"order":["swapped","shifted"],"probe_pitches":[5,10,3,10,8,5,8,10,15,3,10,15,13,15,3,15],"shifted_pitches":[5,10,3,10,8,5,8,9,15,3,10,15,13,15,3,15],"swapped_pitches":[5,10,3,10,8,5,8,15,10,3,10,15,13,15,3,15],"shift_direction":-1,"question_num":81,"has_decoy":false,"subject":"S1C1673","sona":"41764","block":1,"time":"2021-09-27T19:15:36.548Z"},{"rt":806.9000000357628,"stimulus":"[A] option 1, [L] option 2, [G] neither","key_press":76,"name":"choice","trial_type":"html-keyboard-response","trial_index":114,"time_elapsed":332470,"internal_node_id":"0.0-114.0","response":"2nd","certainty":"high","char":"L","transposition":0,"order":["shifted","swapped"],"probe_pitches":[2,5,0,4,1,10,5,9,8,11,1,12,4,10,2,0],"shifted_pitches":[2,5,0,4,1,10,5,9,7,11,1,12,4,10,2,0],"swapped_pitches":[2,5,0,4,1,10,5,8,9,11,1,12,4,10,2,0],"shift_direction":-1,"question_num":91,"has_decoy":false,"subject":"S1C1673","sona":"41764","block":1,"time":"2021-09-27T19:15:36.548Z"},{"rt":1365,"stimulus":"[A] option 1, [L] option 2, [G] neither","key_press":65,"name":"choice","trial_type":"html-keyboard-response","trial_index":125,"time_elapsed":357033,"internal_node_id":"0.0-125.0","response":"1st","certainty":"high","char":"A","transposition":-3,"order":["swapped","shifted"],"probe_pitches":[11,7,12,5,10,1,3,12,5,1,8,9,3,12,0,7],"shifted_pitches":[11,7,12,5,10,1,3,12,6,1,8,9,3,12,0,7],"swapped_pitches":[11,7,12,5,10,1,3,5,12,1,8,9,3,12,0,7],"shift_direction":1,"question_num":101,"has_decoy":false,"subject":"S1C1673","sona":"41764","block":1,"time":"2021-09-27T19:15:36.548Z"},{"rt":632.8999999761581,"stimulus":"[A] option 1, [L] option 2, [G] neither","key_press":65,"name":"choice","trial_type":"html-keyboard-response","trial_index":136,"time_elapsed":380930,"internal_node_id":"0.0-136.0","response":"1st","certainty":"high","char":"A","transposition":-2,"order":["shifted","swapped"],"probe_pitches":[7,10,5,12,4,9,3,5,0,6,10,2,6,3,12,5],"shifted_pitches":[7,10,5,12,4,9,3,5,-1,6,10,2,6,3,12,5],"swapped_pitches":[7,10,5,12,4,9,3,0,5,6,10,2,6,3,12,5],"shift_direction":-1,"question_num":111,"has_decoy":false,"subject":"S1C1673","sona":"41764","block":1,"time":"2021-09-27T19:15:36.548Z"},{"rt":2098.199999988079,"stimulus":"[A] option 1, [L] option 2, [G] neither","key_press":76,"name":"choice","trial_type":"html-keyboard-response","trial_index":147,"time_elapsed":406364,"internal_node_id":"0.0-147.0","response":"2nd","certainty":"high","char":"L","transposition":-3,"order":["shifted","swapped"],"probe_pitches":[15,10,8,13,10,3,8,13,10,8,13,3,8,15,13,6],"shifted_pitches":[15,10,8,13,10,3,8,14,10,8,13,3,8,15,13,6],"swapped_pitches":[15,10,8,13,10,3,8,10,13,8,13,3,8,15,13,6],"shift_direction":1,"question_num":121,"has_decoy":false,"subject":"S1C1673","sona":"41764","block":1,"time":"2021-09-27T19:15:36.548Z"},{"rt":3260.399999976158,"stimulus":"[A] option 1, [L] option 2, [G] neither","key_press":71,"name":"choice","trial_type":"html-keyboard-response","trial_index":158,"time_elapsed":434903,"internal_node_id":"0.0-158.0","response":"neither","certainty":"high","char":"G","transposition":3,"order":["shifted","swapped"],"probe_pitches":[6,3,8,6,15,8,10,8,3,13,15,10,8,13,3,8],"shifted_pitches":[6,3,8,6,15,8,10,8,4,13,15,10,8,13,3,8],"swapped_pitches":[6,3,8,6,15,8,10,3,8,13,15,10,8,13,3,8],"shift_direction":1,"question_num":131,"has_decoy":false,"subject":"S1C1673","sona":"41764","block":1,"time":"2021-09-27T19:15:36.548Z"},{"rt":1288.5,"stimulus":"[A] option 1, [L] option 2, [G] neither","key_press":76,"name":"choice","trial_type":"html-keyboard-response","trial_index":169,"time_elapsed":460483,"internal_node_id":"0.0-169.0","response":"2nd","certainty":"high","char":"L","transposition":-1,"order":["swapped","shifted"],"probe_pitches":[8,4,6,10,5,9,4,5,2,12,2,9,8,11,12,2],"shifted_pitches":[8,4,6,10,5,9,4,5,3,12,2,9,8,11,12,2],"swapped_pitches":[8,4,6,10,5,9,4,2,5,12,2,9,8,11,12,2],"shift_direction":1,"question_num":141,"has_decoy":false,"subject":"S1C1673","sona":"41764","block":1,"time":"2021-09-27T19:15:36.548Z"},{"rt":2488.199999988079,"stimulus":"[A] option 1, [L] option 2, [G] neither","key_press":65,"name":"choice","trial_type":"html-keyboard-response","trial_index":180,"time_elapsed":486963,"internal_node_id":"0.0-180.0","response":"1st","certainty":"high","char":"A","transposition":-2,"order":["shifted","swapped"],"probe_pitches":[0,4,11,8,0,10,0,6,8,10,1,11,12,0,6,12],"shifted_pitches":[0,4,11,8,0,10,0,5,8,10,1,11,12,0,6,12],"swapped_pitches":[0,4,11,8,0,10,0,8,6,10,1,11,12,0,6,12],"shift_direction":-1,"question_num":151,"has_decoy":false,"subject":"S1C1673","sona":"41764","block":1,"time":"2021-09-27T19:15:36.548Z"},{"rt":1033,"stimulus":"[A] option 1, [L] option 2, [G] neither","key_press":76,"name":"choice","trial_type":"html-keyboard-response","trial_index":191,"time_elapsed":511593,"internal_node_id":"0.0-191.0","response":"2nd","certainty":"high","char":"L","transposition":1,"order":["swapped","shifted"],"probe_pitches":[15,12,15,10,15,8,15,8,5,10,3,15,10,5,8,3],"shifted_pitches":[15,12,15,10,15,8,15,7,5,10,3,15,10,5,8,3],"swapped_pitches":[15,12,15,10,15,8,15,5,8,10,3,15,10,5,8,3],"shift_direction":-1,"question_num":161,"has_decoy":false,"subject":"S1C1673","sona":"41764","block":1,"time":"2021-09-27T19:15:36.548Z"},{"rt":2459.199999988079,"stimulus":"[A] option 1, [L] option 2, [G] neither","key_press":76,"name":"choice","trial_type":"html-keyboard-response","trial_index":202,"time_elapsed":537996,"internal_node_id":"0.0-202.0","response":"2nd","certainty":"high","char":"L","transposition":0,"order":["swapped","shifted"],"probe_pitches":[3,6,13,8,3,8,3,15,6,13,3,15,8,6,11,15],"shifted_pitches":[3,6,13,8,3,8,3,15,7,13,3,15,8,6,11,15],"swapped_pitches":[3,6,13,8,3,8,3,6,15,13,3,15,8,6,11,15],"shift_direction":1,"question_num":171,"has_decoy":false,"subject":"S1C1673","sona":"41764","block":1,"time":"2021-09-27T19:15:36.548Z"},{"rt":2226.5,"stimulus":"[A] option 1, [L] option 2, [G] neither","key_press":71,"name":"choice","trial_type":"html-keyboard-response","trial_index":213,"time_elapsed":563385,"internal_node_id":"0.0-213.0","response":"neither","certainty":"high","char":"G","transposition":3,"order":["swapped","shifted"],"probe_pitches":[9,7,10,5,12,8,2,5,6,3,9,12,6,12,6,2],"shifted_pitches":[9,7,10,5,12,8,2,4,6,3,9,12,6,12,6,2],"swapped_pitches":[9,7,10,5,12,8,2,6,5,3,9,12,6,12,6,2],"shift_direction":-1,"question_num":181,"has_decoy":false,"subject":"S1C1673","sona":"41764","block":1,"time":"2021-09-27T19:15:36.548Z"},{"rt":2016.8999999761581,"stimulus":"[A] option 1, [L] option 2, [G] neither","key_press":65,"name":"choice","trial_type":"html-keyboard-response","trial_index":224,"time_elapsed":588642,"internal_node_id":"0.0-224.0","response":"1st","certainty":"high","char":"A","transposition":-1,"order":["shifted","swapped"],"probe_pitches":[10,5,12,15,10,12,5,8,10,3,15,3,12,8,15,8],"shifted_pitches":[10,5,12,15,10,12,5,8,9,3,15,3,12,8,15,8],"swapped_pitches":[10,5,12,15,10,12,5,10,8,3,15,3,12,8,15,8],"shift_direction":-1,"question_num":191,"has_decoy":false,"subject":"S1C1673","sona":"41764","block":1,"time":"2021-09-27T19:15:36.548Z"}]