[{"rt":8947,"stimulus":"[A] option 1, [L] option 2, [G] neither","key_press":76,"name":"choice","trial_type":"html-keyboard-response","trial_index":10,"time_elapsed":32847,"internal_node_id":"0.0-10.0","subject":"S1C1673","sona":"41764","block":4,"time":"2021-09-27T19:54:11.187Z","response":"2nd","certainty":"high","char":"L","transposition":-1,"order":["shifted","swapped"],"probe_pitches":[9,4,2,9,11,9,2,-1,11,7,11,4,2,-1,11,2],"shifted_pitches":[9,4,2,9,11,9,2,-2,11,7,11,4,2,-1,11,2],"swapped_pitches":[9,4,2,9,11,9,2,11,-1,7,11,4,2,-1,11,2],"shift_direction":-1,"question_num":1,"has_decoy":false},{"rt":2821.100000023842,"stimulus":"[A] option 1, [L] option 2, [G] neither","key_press":65,"name":"choice","trial_type":"html-keyboard-response","trial_index":21,"time_elapsed":70523,"internal_node_id":"0.0-21.0","subject":"S1C1673","sona":"41764","block":4,"time":"2021-09-27T19:54:11.187Z","response":"1st","certainty":"high","char":"A","transposition":3,"order":["swapped","shifted"],"probe_pitches":[8,4,9,13,9,12,7,5,3,14,3,12,15,4,14,9],"shifted_pitches":[8,4,9,13,9,12,7,6,3,14,3,12,15,4,14,9],"swapped_pitches":[8,4,9,13,9,12,7,3,5,14,3,12,15,4,14,9],"shift_direction":1,"question_num":11,"has_decoy":false},{"rt":1743.300000011921,"stimulus":"[A] option 1, [L] option 2, [G] neither","key_press":65,"name":"choice","trial_type":"html-keyboard-response","trial_index":32,"time_elapsed":103972,"internal_node_id":"0.0-32.0","subject":"S1C1673","sona":"41764","block":4,"time":"2021-09-27T19:54:11.187Z","response":"1st","certainty":"high","char":"A","transposition":-3,"order":["swapped","shifted"],"probe_pitches":[4,1,4,9,11,9,6,1,9,4,1,11,9,11,6,-1],"shifted_pitches":[4,1,4,9,11,9,6,1,10,4,1,11,9,11,6,-1],"swapped_pitches":[4,1,4,9,11,9,6,9,1,4,1,11,9,11,6,-1],"shift_direction":1,"question_num":21,"has_decoy":false},{"rt":4169.900000035763,"stimulus":"[A] option 1, [L] option 2, [G] neither","key_press":76,"name":"choice","trial_type":"html-keyboard-response","trial_index":43,"time_elapsed":143871,"internal_node_id":"0.0-43.0","subject":"S1C1673","sona":"41764","block":4,"time":"2021-09-27T19:54:11.187Z","response":"2nd","certainty":"high","char":"L","transposition":1,"order":["shifted","swapped"],"probe_pitches":[15,10,8,6,7,15,12,14,9,7,4,10,9,6,14,11],"shifted_pitches":[15,10,8,6,7,15,12,13,9,7,4,10,9,6,14,11],"swapped_pitches":[15,10,8,6,7,15,12,9,14,7,4,10,9,6,14,11],"shift_direction":-1,"question_num":31,"has_decoy":false},{"rt":2333.600000023842,"stimulus":"[A] option 1, [L] option 2, [G] neither","key_press":65,"name":"choice","trial_type":"html-keyboard-response","trial_index":54,"time_elapsed":181938,"internal_node_id":"0.0-54.0","subject":"S1C1673","sona":"41764","block":4,"time":"2021-09-27T19:54:11.187Z","response":"1st","certainty":"high","char":"A","transposition":-3,"order":["swapped","shifted"],"probe_pitches":[8,3,1,6,8,3,11,-1,6,8,6,-1,6,8,11,6],"shifted_pitches":[8,3,1,6,8,3,11,-1,7,8,6,-1,6,8,11,6],"swapped_pitches":[8,3,1,6,8,3,11,6,-1,8,6,-1,6,8,11,6],"shift_direction":1,"question_num":41,"has_decoy":false},{"rt":12248.199999988079,"stimulus":"[A] option 1, [L] option 2, [G] neither","key_press":65,"name":"choice","trial_type":"html-keyboard-response","trial_index":65,"time_elapsed":217623,"internal_node_id":"0.0-65.0","subject":"S1C1673","sona":"41764","block":4,"time":"2021-09-27T19:54:11.187Z","response":"1st","certainty":"high","char":"A","transposition":-3,"order":["shifted","swapped"],"probe_pitches":[15,13,10,4,7,9,15,3,6,15,14,12,8,6,7,4],"shifted_pitches":[15,13,10,4,7,9,15,3,5,15,14,12,8,6,7,4],"swapped_pitches":[15,13,10,4,7,9,15,6,3,15,14,12,8,6,7,4],"shift_direction":-1,"question_num":51,"has_decoy":false},{"rt":10804.399999976158,"stimulus":"[A] option 1, [L] option 2, [G] neither","key_press":71,"name":"choice","trial_type":"html-keyboard-response","trial_index":76,"time_elapsed":257593,"internal_node_id":"0.0-76.0","subject":"S1C1673","sona":"41764","block":4,"time":"2021-09-27T19:54:11.187Z","response":"neither","certainty":"high","char":"G","transposition":-3,"order":["shifted","swapped"],"probe_pitches":[4,3,6,13,9,8,6,7,10,12,8,12,5,13,5,13],"shifted_pitches":[4,3,6,13,9,8,6,7,11,12,8,12,5,13,5,13],"swapped_pitches":[4,3,6,13,9,8,6,10,7,12,8,12,5,13,5,13],"shift_direction":1,"question_num":61,"has_decoy":false},{"rt":4149.5,"stimulus":"[A] option 1, [L] option 2, [G] neither","key_press":65,"name":"choice","trial_type":"html-keyboard-response","trial_index":87,"time_elapsed":291866,"internal_node_id":"0.0-87.0","subject":"S1C1673","sona":"41764","block":4,"time":"2021-09-27T19:54:11.187Z","response":"1st","certainty":"high","char":"A","transposition":0,"order":["swapped","shifted"],"probe_pitches":[5,8,12,10,11,5,12,8,3,4,14,5,15,6,10,4],"shifted_pitches":[5,8,12,10,11,5,12,7,3,4,14,5,15,6,10,4],"swapped_pitches":[5,8,12,10,11,5,12,3,8,4,14,5,15,6,10,4],"shift_direction":-1,"question_num":71,"has_decoy":false},{"rt":7419.099999964237,"stimulus":"[A] option 1, [L] option 2, [G] neither","key_press":71,"name":"choice","trial_type":"html-keyboard-response","trial_index":98,"time_elapsed":332944,"internal_node_id":"0.0-98.0","subject":"S1C1673","sona":"41764","block":4,"time":"2021-09-27T19:54:11.187Z","response":"neither","certainty":"high","char":"G","transposition":-2,"order":["shifted","swapped"],"probe_pitches":[4,-1,4,1,8,1,11,1,6,-1,1,8,6,11,4,11],"shifted_pitches":[4,-1,4,1,8,1,11,0,6,-1,1,8,6,11,4,11],"swapped_pitches":[4,-1,4,1,8,1,11,6,1,-1,1,8,6,11,4,11],"shift_direction":-1,"question_num":81,"has_decoy":false},{"rt":2199.599999964237,"stimulus":"[A] option 1, [L] option 2, [G] neither","key_press":65,"name":"choice","trial_type":"html-keyboard-response","trial_index":109,"time_elapsed":358263,"internal_node_id":"0.0-109.0","subject":"S1C1673","sona":"41764","block":4,"time":"2021-09-27T19:54:11.187Z","response":"1st","certainty":"high","char":"A","transposition":2,"order":["swapped","shifted"],"probe_pitches":[15,12,8,6,15,13,8,13,15,7,15,6,4,12,6,12],"shifted_pitches":[15,12,8,6,15,13,8,13,14,7,15,6,4,12,6,12],"swapped_pitches":[15,12,8,6,15,13,8,15,13,7,15,6,4,12,6,12],"shift_direction":-1,"question_num":91,"has_decoy":false},{"rt":4918,"stimulus":"[A] option 1, [L] option 2, [G] neither","key_press":76,"name":"choice","trial_type":"html-keyboard-response","trial_index":120,"time_elapsed":388315,"internal_node_id":"0.0-120.0","subject":"S1C1673","sona":"41764","block":4,"time":"2021-09-27T19:54:11.187Z","response":"2nd","certainty":"high","char":"L","transposition":0,"order":["shifted","swapped"],"probe_pitches":[11,8,6,11,4,11,1,8,-1,11,4,-1,11,6,-1,6],"shifted_pitches":[11,8,6,11,4,11,1,7,-1,11,4,-1,11,6,-1,6],"swapped_pitches":[11,8,6,11,4,11,1,-1,8,11,4,-1,11,6,-1,6],"shift_direction":-1,"question_num":101,"has_decoy":false},{"rt":3172,"stimulus":"[A] option 1, [L] option 2, [G] neither","key_press":76,"name":"choice","trial_type":"html-keyboard-response","trial_index":131,"time_elapsed":424041,"internal_node_id":"0.0-131.0","subject":"S1C1673","sona":"41764","block":4,"time":"2021-09-27T19:54:11.187Z","response":"2nd","certainty":"high","char":"L","transposition":3,"order":["swapped","shifted"],"probe_pitches":[9,11,4,11,9,11,9,-1,4,11,9,2,11,-1,6,-1],"shifted_pitches":[9,11,4,11,9,11,9,-1,3,11,9,2,11,-1,6,-1],"swapped_pitches":[9,11,4,11,9,11,9,4,-1,11,9,2,11,-1,6,-1],"shift_direction":-1,"question_num":111,"has_decoy":false},{"rt":4428.199999988079,"stimulus":"[A] option 1, [L] option 2, [G] neither","key_press":65,"name":"choice","trial_type":"html-keyboard-response","trial_index":142,"time_elapsed":453041,"internal_node_id":"0.0-142.0","subject":"S1C1673","sona":"41764","block":4,"time":"2021-09-27T19:54:11.187Z","response":"1st","certainty":"high","char":"A","transposition":-2,"order":["swapped","shifted"],"probe_pitches":[6,4,10,14,13,5,6,8,14,4,3,5,11,8,11,5],"shifted_pitches":[6,4,10,14,13,5,6,9,14,4,3,5,11,8,11,5],"swapped_pitches":[6,4,10,14,13,5,6,14,8,4,3,5,11,8,11,5],"shift_direction":1,"question_num":121,"has_decoy":false},{"rt":4192.699999988079,"stimulus":"[A] option 1, [L] option 2, [G] neither","key_press":76,"name":"choice","trial_type":"html-keyboard-response","trial_index":153,"time_elapsed":480539,"internal_node_id":"0.0-153.0","subject":"S1C1673","sona":"41764","block":4,"time":"2021-09-27T19:54:11.187Z","response":"2nd","certainty":"high","char":"L","transposition":2,"order":["swapped","shifted"],"probe_pitches":[3,-1,6,8,6,8,3,-1,11,8,11,1,3,8,11,-1],"shifted_pitches":[3,-1,6,8,6,8,3,0,11,8,11,1,3,8,11,-1],"swapped_pitches":[3,-1,6,8,6,8,3,11,-1,8,11,1,3,8,11,-1],"shift_direction":1,"question_num":131,"has_decoy":false},{"rt":3843.699999988079,"stimulus":"[A] option 1, [L] option 2, [G] neither","key_press":65,"name":"choice","trial_type":"html-keyboard-response","trial_index":164,"time_elapsed":518500,"internal_node_id":"0.0-164.0","subject":"S1C1673","sona":"41764","block":4,"time":"2021-09-27T19:54:11.187Z","response":"1st","certainty":"high","char":"A","transposition":-1,"order":["shifted","swapped"],"probe_pitches":[12,11,5,9,7,6,10,5,7,6,13,6,9,5,9,12],"shifted_pitches":[12,11,5,9,7,6,10,5,8,6,13,6,9,5,9,12],"swapped_pitches":[12,11,5,9,7,6,10,7,5,6,13,6,9,5,9,12],"shift_direction":1,"question_num":141,"has_decoy":false},{"rt":5919,"stimulus":"[A] option 1, [L] option 2, [G] neither","key_press":71,"name":"choice","trial_type":"html-keyboard-response","trial_index":175,"time_elapsed":565269,"internal_node_id":"0.0-175.0","subject":"S1C1673","sona":"41764","block":4,"time":"2021-09-27T19:54:11.187Z","response":"neither","certainty":"high","char":"G","transposition":-1,"order":["shifted","swapped"],"probe_pitches":[4,9,6,4,11,2,9,2,4,6,11,2,6,-1,4,11],"shifted_pitches":[4,9,6,4,11,2,9,2,5,6,11,2,6,-1,4,11],"swapped_pitches":[4,9,6,4,11,2,9,4,2,6,11,2,6,-1,4,11],"shift_direction":1,"question_num":151,"has_decoy":false},{"rt":5571.599999964237,"stimulus":"[A] option 1, [L] option 2, [G] neither","key_press":71,"name":"choice","trial_type":"html-keyboard-response","trial_index":186,"time_elapsed":597155,"internal_node_id":"0.0-186.0","subject":"S1C1673","sona":"41764","block":4,"time":"2021-09-27T19:54:11.187Z","response":"neither","certainty":"high","char":"G","transposition":-2,"order":["swapped","shifted"],"probe_pitches":[-1,4,-1,4,9,11,6,9,11,6,1,9,-1,6,-1,11],"shifted_pitches":[-1,4,-1,4,9,11,6,9,12,6,1,9,-1,6,-1,11],"swapped_pitches":[-1,4,-1,4,9,11,6,11,9,6,1,9,-1,6,-1,11],"shift_direction":1,"question_num":161,"has_decoy":false},{"rt":8114.299999952316,"stimulus":"[A] option 1, [L] option 2, [G] neither","key_press":76,"name":"choice","trial_type":"html-keyboard-response","trial_index":197,"time_elapsed":629587,"internal_node_id":"0.0-197.0","subject":"S1C1673","sona":"41764","block":4,"time":"2021-09-27T19:54:11.187Z","response":"2nd","certainty":"high","char":"L","transposition":-2,"order":["shifted","swapped"],"probe_pitches":[7,6,10,14,8,5,8,15,11,14,10,14,13,4,8,5],"shifted_pitches":[7,6,10,14,8,5,8,15,12,14,10,14,13,4,8,5],"swapped_pitches":[7,6,10,14,8,5,8,11,15,14,10,14,13,4,8,5],"shift_direction":1,"question_num":171,"has_decoy":false},{"rt":6194.300000011921,"stimulus":"[A] option 1, [L] option 2, [G] neither","key_press":65,"name":"choice","trial_type":"html-keyboard-response","trial_index":208,"time_elapsed":660424,"internal_node_id":"0.0-208.0","subject":"S1C1673","sona":"41764","block":4,"time":"2021-09-27T19:54:11.187Z","response":"1st","certainty":"high","char":"A","transposition":1,"order":["shifted","swapped"],"probe_pitches":[11,7,9,7,11,4,7,4,2,7,4,2,9,11,2,-1],"shifted_pitches":[11,7,9,7,11,4,7,3,2,7,4,2,9,11,2,-1],"swapped_pitches":[11,7,9,7,11,4,7,2,4,7,4,2,9,11,2,-1],"shift_direction":-1,"question_num":181,"has_decoy":false},{"rt":2022.1000000238419,"stimulus":"[A] option 1, [L] option 2, [G] neither","key_press":71,"name":"choice","trial_type":"html-keyboard-response","trial_index":219,"time_elapsed":694647,"internal_node_id":"0.0-219.0","subject":"S1C1673","sona":"41764","block":4,"time":"2021-09-27T19:54:11.187Z","response":"neither","certainty":"high","char":"G","transposition":-1,"order":["swapped","shifted"],"probe_pitches":[7,5,4,12,14,11,5,11,13,6,7,5,11,9,7,3],"shifted_pitches":[7,5,4,12,14,11,5,10,13,6,7,5,11,9,7,3],"swapped_pitches":[7,5,4,12,14,11,5,13,11,6,7,5,11,9,7,3],"shift_direction":-1,"question_num":191,"has_decoy":false}]