[{"rt":2044.5999999642372,"stimulus":"[A] option 1, [L] option 2, [G] neither","key_press":65,"name":"choice","trial_type":"html-keyboard-response","trial_index":10,"time_elapsed":26673,"internal_node_id":"0.0-10.0","subject":"S1C1673","sona":"41764","block":2,"time":"2021-09-27T19:26:20.503Z","response":"1st","certainty":"high","char":"A","transposition":-1,"order":["swapped","shifted"],"probe_pitches":[3,-2,5,10,5,0,-2,8,3,5,8,-2,8,-2,3,-2],"shifted_pitches":[3,-2,5,10,5,0,-2,8,4,5,8,-2,8,-2,3,-2],"swapped_pitches":[3,-2,5,10,5,0,-2,3,8,5,8,-2,8,-2,3,-2],"shift_direction":1,"question_num":1,"has_decoy":false},{"rt":3509.100000023842,"stimulus":"[A] option 1, [L] option 2, [G] neither","key_press":76,"name":"choice","trial_type":"html-keyboard-response","trial_index":21,"time_elapsed":54148,"internal_node_id":"0.0-21.0","subject":"S1C1673","sona":"41764","block":2,"time":"2021-09-27T19:26:20.503Z","response":"2nd","certainty":"high","char":"L","transposition":-3,"order":["swapped","shifted"],"probe_pitches":[5,11,9,10,9,0,8,5,9,3,0,5,9,7,2,9],"shifted_pitches":[5,11,9,10,9,0,8,4,9,3,0,5,9,7,2,9],"swapped_pitches":[5,11,9,10,9,0,8,9,5,3,0,5,9,7,2,9],"shift_direction":-1,"question_num":11,"has_decoy":false},{"rt":1602.8999999761581,"stimulus":"[A] option 1, [L] option 2, [G] neither","key_press":71,"name":"choice","trial_type":"html-keyboard-response","trial_index":32,"time_elapsed":79842,"internal_node_id":"0.0-32.0","subject":"S1C1673","sona":"41764","block":2,"time":"2021-09-27T19:26:20.503Z","response":"neither","certainty":"high","char":"G","transposition":-2,"order":["shifted","swapped"],"probe_pitches":[8,2,8,4,10,0,10,0,6,-1,3,5,8,9,0,11],"shifted_pitches":[8,2,8,4,10,0,10,0,7,-1,3,5,8,9,0,11],"swapped_pitches":[8,2,8,4,10,0,10,6,0,-1,3,5,8,9,0,11],"shift_direction":1,"question_num":21,"has_decoy":false},{"rt":3359.800000011921,"stimulus":"[A] option 1, [L] option 2, [G] neither","key_press":71,"name":"choice","trial_type":"html-keyboard-response","trial_index":43,"time_elapsed":108666,"internal_node_id":"0.0-43.0","subject":"S1C1673","sona":"41764","block":2,"time":"2021-09-27T19:26:20.503Z","response":"neither","certainty":"high","char":"G","transposition":-3,"order":["shifted","swapped"],"probe_pitches":[-2,2,5,10,2,0,10,-2,0,2,10,-2,2,10,7,0],"shifted_pitches":[-2,2,5,10,2,0,10,-1,0,2,10,-2,2,10,7,0],"swapped_pitches":[-2,2,5,10,2,0,10,0,-2,2,10,-2,2,10,7,0],"shift_direction":1,"question_num":31,"has_decoy":false},{"rt":3384.699999988079,"stimulus":"[A] option 1, [L] option 2, [G] neither","key_press":71,"name":"choice","trial_type":"html-keyboard-response","trial_index":54,"time_elapsed":136589,"internal_node_id":"0.0-54.0","subject":"S1C1673","sona":"41764","block":2,"time":"2021-09-27T19:26:20.503Z","response":"neither","certainty":"high","char":"G","transposition":-1,"order":["shifted","swapped"],"probe_pitches":[-2,3,-2,0,7,5,0,7,10,5,10,0,3,5,10,0],"shifted_pitches":[-2,3,-2,0,7,5,0,7,11,5,10,0,3,5,10,0],"swapped_pitches":[-2,3,-2,0,7,5,0,10,7,5,10,0,3,5,10,0],"shift_direction":1,"question_num":41,"has_decoy":false},{"rt":10400.599999964237,"stimulus":"[A] option 1, [L] option 2, [G] neither","key_press":76,"name":"choice","trial_type":"html-keyboard-response","trial_index":65,"time_elapsed":172647,"internal_node_id":"0.0-65.0","subject":"S1C1673","sona":"41764","block":2,"time":"2021-09-27T19:26:20.503Z","response":"2nd","certainty":"high","char":"L","transposition":-1,"order":["shifted","swapped"],"probe_pitches":[1,-1,4,5,7,-1,7,9,3,5,7,4,0,5,3,1],"shifted_pitches":[1,-1,4,5,7,-1,7,9,2,5,7,4,0,5,3,1],"swapped_pitches":[1,-1,4,5,7,-1,7,3,9,5,7,4,0,5,3,1],"shift_direction":-1,"question_num":51,"has_decoy":false},{"rt":2749.800000011921,"stimulus":"[A] option 1, [L] option 2, [G] neither","key_press":71,"name":"choice","trial_type":"html-keyboard-response","trial_index":76,"time_elapsed":212478,"internal_node_id":"0.0-76.0","subject":"S1C1673","sona":"41764","block":2,"time":"2021-09-27T19:26:20.503Z","response":"neither","certainty":"high","char":"G","transposition":-2,"order":["swapped","shifted"],"probe_pitches":[7,10,5,10,5,3,-2,7,3,5,0,-2,10,7,0,10],"shifted_pitches":[7,10,5,10,5,3,-2,6,3,5,0,-2,10,7,0,10],"swapped_pitches":[7,10,5,10,5,3,-2,3,7,5,0,-2,10,7,0,10],"shift_direction":-1,"question_num":61,"has_decoy":false},{"rt":1876.199999988079,"stimulus":"[A] option 1, [L] option 2, [G] neither","key_press":76,"name":"choice","trial_type":"html-keyboard-response","trial_index":87,"time_elapsed":247461,"internal_node_id":"0.0-87.0","subject":"S1C1673","sona":"41764","block":2,"time":"2021-09-27T19:26:20.503Z","response":"2nd","certainty":"high","char":"L","transposition":1,"order":["shifted","swapped"],"probe_pitches":[7,9,6,2,6,2,10,6,9,2,3,7,8,11,7,9],"shifted_pitches":[7,9,6,2,6,2,10,5,9,2,3,7,8,11,7,9],"swapped_pitches":[7,9,6,2,6,2,10,9,6,2,3,7,8,11,7,9],"shift_direction":-1,"question_num":71,"has_decoy":false},{"rt":1446.8999999761581,"stimulus":"[A] option 1, [L] option 2, [G] neither","key_press":76,"name":"choice","trial_type":"html-keyboard-response","trial_index":98,"time_elapsed":276145,"internal_node_id":"0.0-98.0","subject":"S1C1673","sona":"41764","block":2,"time":"2021-09-27T19:26:20.503Z","response":"2nd","certainty":"high","char":"L","transposition":3,"order":["swapped","shifted"],"probe_pitches":[-1,3,5,7,8,7,1,9,8,4,5,-1,11,8,11,5],"shifted_pitches":[-1,3,5,7,8,7,1,10,8,4,5,-1,11,8,11,5],"swapped_pitches":[-1,3,5,7,8,7,1,8,9,4,5,-1,11,8,11,5],"shift_direction":1,"question_num":81,"has_decoy":false},{"rt":1553.800000011921,"stimulus":"[A] option 1, [L] option 2, [G] neither","key_press":65,"name":"choice","trial_type":"html-keyboard-response","trial_index":109,"time_elapsed":304008,"internal_node_id":"0.0-109.0","subject":"S1C1673","sona":"41764","block":2,"time":"2021-09-27T19:26:20.503Z","response":"1st","certainty":"high","char":"A","transposition":0,"order":["swapped","shifted"],"probe_pitches":[-2,3,5,1,3,-2,5,10,3,1,3,1,3,-2,8,5],"shifted_pitches":[-2,3,5,1,3,-2,5,9,3,1,3,1,3,-2,8,5],"swapped_pitches":[-2,3,5,1,3,-2,5,3,10,1,3,1,3,-2,8,5],"shift_direction":-1,"question_num":91,"has_decoy":false},{"rt":9555.800000011921,"stimulus":"[A] option 1, [L] option 2, [G] neither","key_press":71,"name":"choice","trial_type":"html-keyboard-response","trial_index":120,"time_elapsed":339673,"internal_node_id":"0.0-120.0","subject":"S1C1673","sona":"41764","block":2,"time":"2021-09-27T19:26:20.503Z","response":"neither","certainty":"high","char":"G","transposition":-3,"order":["shifted","swapped"],"probe_pitches":[3,-2,3,5,3,5,8,5,-2,8,3,5,0,3,-2,3],"shifted_pitches":[3,-2,3,5,3,5,8,4,-2,8,3,5,0,3,-2,3],"swapped_pitches":[3,-2,3,5,3,5,8,-2,5,8,3,5,0,3,-2,3],"shift_direction":-1,"question_num":101,"has_decoy":false},{"rt":5523.800000011921,"stimulus":"[A] option 1, [L] option 2, [G] neither","key_press":65,"name":"choice","trial_type":"html-keyboard-response","trial_index":131,"time_elapsed":369897,"internal_node_id":"0.0-131.0","subject":"S1C1673","sona":"41764","block":2,"time":"2021-09-27T19:26:20.503Z","response":"1st","certainty":"high","char":"A","transposition":0,"order":["swapped","shifted"],"probe_pitches":[10,6,10,4,7,4,6,8,0,4,8,1,-1,4,-1,8],"shifted_pitches":[10,6,10,4,7,4,6,9,0,4,8,1,-1,4,-1,8],"swapped_pitches":[10,6,10,4,7,4,6,0,8,4,8,1,-1,4,-1,8],"shift_direction":1,"question_num":111,"has_decoy":false},{"rt":4559,"stimulus":"[A] option 1, [L] option 2, [G] neither","key_press":76,"name":"choice","trial_type":"html-keyboard-response","trial_index":142,"time_elapsed":409577,"internal_node_id":"0.0-142.0","subject":"S1C1673","sona":"41764","block":2,"time":"2021-09-27T19:26:20.503Z","response":"2nd","certainty":"high","char":"L","transposition":-2,"order":["shifted","swapped"],"probe_pitches":[-2,0,5,7,5,-2,2,7,5,2,10,5,0,2,0,7],"shifted_pitches":[-2,0,5,7,5,-2,2,7,4,2,10,5,0,2,0,7],"swapped_pitches":[-2,0,5,7,5,-2,2,5,7,2,10,5,0,2,0,7],"shift_direction":-1,"question_num":121,"has_decoy":false},{"rt":2502.800000011921,"stimulus":"[A] option 1, [L] option 2, [G] neither","key_press":71,"name":"choice","trial_type":"html-keyboard-response","trial_index":153,"time_elapsed":435963,"internal_node_id":"0.0-153.0","subject":"S1C1673","sona":"41764","block":2,"time":"2021-09-27T19:26:20.503Z","response":"neither","certainty":"high","char":"G","transposition":-2,"order":["shifted","swapped"],"probe_pitches":[11,6,10,6,7,2,5,1,4,6,10,5,8,-1,9,-1],"shifted_pitches":[11,6,10,6,7,2,5,1,3,6,10,5,8,-1,9,-1],"swapped_pitches":[11,6,10,6,7,2,5,4,1,6,10,5,8,-1,9,-1],"shift_direction":-1,"question_num":131,"has_decoy":false},{"rt":10863.5,"stimulus":"[A] option 1, [L] option 2, [G] neither","key_press":71,"name":"choice","trial_type":"html-keyboard-response","trial_index":164,"time_elapsed":472149,"internal_node_id":"0.0-164.0","subject":"S1C1673","sona":"41764","block":2,"time":"2021-09-27T19:26:20.503Z","response":"neither","certainty":"high","char":"G","transposition":2,"order":["swapped","shifted"],"probe_pitches":[11,9,8,2,-1,4,0,2,7,3,0,4,-1,5,0,10],"shifted_pitches":[11,9,8,2,-1,4,0,1,7,3,0,4,-1,5,0,10],"swapped_pitches":[11,9,8,2,-1,4,0,7,2,3,0,4,-1,5,0,10],"shift_direction":-1,"question_num":141,"has_decoy":false},{"rt":3291,"stimulus":"[A] option 1, [L] option 2, [G] neither","key_press":65,"name":"choice","trial_type":"html-keyboard-response","trial_index":175,"time_elapsed":503750,"internal_node_id":"0.0-175.0","subject":"S1C1673","sona":"41764","block":2,"time":"2021-09-27T19:26:20.503Z","response":"1st","certainty":"high","char":"A","transposition":-1,"order":["swapped","shifted"],"probe_pitches":[2,-1,5,10,11,6,0,-1,7,6,4,-1,3,7,2,11],"shifted_pitches":[2,-1,5,10,11,6,0,-1,8,6,4,-1,3,7,2,11],"swapped_pitches":[2,-1,5,10,11,6,0,7,-1,6,4,-1,3,7,2,11],"shift_direction":1,"question_num":151,"has_decoy":false},{"rt":1605.8999999761581,"stimulus":"[A] option 1, [L] option 2, [G] neither","key_press":76,"name":"choice","trial_type":"html-keyboard-response","trial_index":186,"time_elapsed":528049,"internal_node_id":"0.0-186.0","subject":"S1C1673","sona":"41764","block":2,"time":"2021-09-27T19:26:20.503Z","response":"2nd","certainty":"high","char":"L","transposition":1,"order":["swapped","shifted"],"probe_pitches":[-2,3,-2,1,3,8,3,-2,8,1,10,3,-2,6,8,6],"shifted_pitches":[-2,3,-2,1,3,8,3,-2,9,1,10,3,-2,6,8,6],"swapped_pitches":[-2,3,-2,1,3,8,3,8,-2,1,10,3,-2,6,8,6],"shift_direction":1,"question_num":161,"has_decoy":false},{"rt":1633.6000000238419,"stimulus":"[A] option 1, [L] option 2, [G] neither","key_press":76,"name":"choice","trial_type":"html-keyboard-response","trial_index":197,"time_elapsed":555837,"internal_node_id":"0.0-197.0","subject":"S1C1673","sona":"41764","block":2,"time":"2021-09-27T19:26:20.503Z","response":"2nd","certainty":"high","char":"L","transposition":2,"order":["swapped","shifted"],"probe_pitches":[10,5,1,5,8,3,-2,3,1,5,10,8,10,5,10,8],"shifted_pitches":[10,5,1,5,8,3,-2,4,1,5,10,8,10,5,10,8],"swapped_pitches":[10,5,1,5,8,3,-2,1,3,5,10,8,10,5,10,8],"shift_direction":1,"question_num":171,"has_decoy":false},{"rt":9129.800000011921,"stimulus":"[A] option 1, [L] option 2, [G] neither","key_press":71,"name":"choice","trial_type":"html-keyboard-response","trial_index":208,"time_elapsed":590282,"internal_node_id":"0.0-208.0","subject":"S1C1673","sona":"41764","block":2,"time":"2021-09-27T19:26:20.503Z","response":"neither","certainty":"high","char":"G","transposition":-3,"order":["shifted","swapped"],"probe_pitches":[1,5,4,3,-1,0,-1,4,5,0,10,5,8,5,-1,9],"shifted_pitches":[1,5,4,3,-1,0,-1,4,6,0,10,5,8,5,-1,9],"swapped_pitches":[1,5,4,3,-1,0,-1,5,4,0,10,5,8,5,-1,9],"shift_direction":1,"question_num":181,"has_decoy":false},{"rt":11463.5,"stimulus":"[A] option 1, [L] option 2, [G] neither","key_press":76,"name":"choice","trial_type":"html-keyboard-response","trial_index":219,"time_elapsed":628339,"internal_node_id":"0.0-219.0","subject":"S1C1673","sona":"41764","block":2,"time":"2021-09-27T19:26:20.503Z","response":"2nd","certainty":"high","char":"L","transposition":3,"order":["shifted","swapped"],"probe_pitches":[10,8,3,-2,6,10,6,-2,3,10,3,-2,8,3,1,6],"shifted_pitches":[10,8,3,-2,6,10,6,-2,2,10,3,-2,8,3,1,6],"swapped_pitches":[10,8,3,-2,6,10,6,3,-2,10,3,-2,8,3,1,6],"shift_direction":-1,"question_num":191,"has_decoy":false}]