[{"rt":3193.6999999999534,"stimulus":"[A] option 1, [L] option 2, [G] neither","key_press":65,"name":"choice","trial_type":"html-keyboard-response","trial_index":10,"time_elapsed":28604,"internal_node_id":"0.0-10.0","subject":"S1C1612","sona":"41770","block":3,"time":"2021-09-15T18:30:52.084Z","response":"1st","certainty":"high","char":"A","transposition":0,"order":["swapped","shifted"],"probe_pitches":[0,2,5,10,12,5,12,5,7,0,7,10,5,2,10,7],"shifted_pitches":[0,2,5,10,12,5,12,5,6,0,7,10,5,2,10,7],"swapped_pitches":[0,2,5,10,12,5,12,7,5,0,7,10,5,2,10,7],"shift_direction":-1,"question_num":1,"has_decoy":false},{"rt":4229.199999999953,"stimulus":"[A] option 1, [L] option 2, [G] neither","key_press":65,"name":"choice","trial_type":"html-keyboard-response","trial_index":21,"time_elapsed":55107,"internal_node_id":"0.0-21.0","subject":"S1C1612","sona":"41770","block":3,"time":"2021-09-15T18:30:52.084Z","response":"1st","certainty":"high","char":"A","transposition":-2,"order":["shifted","swapped"],"probe_pitches":[12,10,5,0,5,3,7,0,3,7,12,5,10,5,10,7],"shifted_pitches":[12,10,5,0,5,3,7,1,3,7,12,5,10,5,10,7],"swapped_pitches":[12,10,5,0,5,3,7,3,0,7,12,5,10,5,10,7],"shift_direction":1,"question_num":11,"has_decoy":false},{"rt":2410.3000000000466,"stimulus":"[A] option 1, [L] option 2, [G] neither","key_press":76,"name":"choice","trial_type":"html-keyboard-response","trial_index":32,"time_elapsed":80339,"internal_node_id":"0.0-32.0","subject":"S1C1612","sona":"41770","block":3,"time":"2021-09-15T18:30:52.084Z","response":"2nd","certainty":"high","char":"L","transposition":-3,"order":["swapped","shifted"],"probe_pitches":[0,5,10,12,10,12,5,10,2,0,12,2,0,12,10,7],"shifted_pitches":[0,5,10,12,10,12,5,9,2,0,12,2,0,12,10,7],"swapped_pitches":[0,5,10,12,10,12,5,2,10,0,12,2,0,12,10,7],"shift_direction":-1,"question_num":21,"has_decoy":false},{"rt":2317.7000000001863,"stimulus":"[A] option 1, [L] option 2, [G] neither","key_press":65,"name":"choice","trial_type":"html-keyboard-response","trial_index":43,"time_elapsed":104920,"internal_node_id":"0.0-43.0","subject":"S1C1612","sona":"41770","block":3,"time":"2021-09-15T18:30:52.084Z","response":"1st","certainty":"high","char":"A","transposition":3,"order":["swapped","shifted"],"probe_pitches":[-2,3,-1,1,6,0,3,4,6,9,7,8,9,4,-1,-2],"shifted_pitches":[-2,3,-1,1,6,0,3,5,6,9,7,8,9,4,-1,-2],"swapped_pitches":[-2,3,-1,1,6,0,3,6,4,9,7,8,9,4,-1,-2],"shift_direction":1,"question_num":31,"has_decoy":false},{"rt":3393.600000000093,"stimulus":"[A] option 1, [L] option 2, [G] neither","key_press":76,"name":"choice","trial_type":"html-keyboard-response","trial_index":54,"time_elapsed":134305,"internal_node_id":"0.0-54.0","subject":"S1C1612","sona":"41770","block":3,"time":"2021-09-15T18:30:52.084Z","response":"2nd","certainty":"high","char":"L","transposition":-3,"order":["swapped","shifted"],"probe_pitches":[3,5,0,5,10,5,3,0,10,5,12,5,8,3,8,12],"shifted_pitches":[3,5,0,5,10,5,3,-1,10,5,12,5,8,3,8,12],"swapped_pitches":[3,5,0,5,10,5,3,10,0,5,12,5,8,3,8,12],"shift_direction":-1,"question_num":41,"has_decoy":false},{"rt":1405.3999999999069,"stimulus":"[A] option 1, [L] option 2, [G] neither","key_press":76,"name":"choice","trial_type":"html-keyboard-response","trial_index":65,"time_elapsed":158627,"internal_node_id":"0.0-65.0","subject":"S1C1612","sona":"41770","block":3,"time":"2021-09-15T18:30:52.084Z","response":"2nd","certainty":"high","char":"L","transposition":-2,"order":["shifted","swapped"],"probe_pitches":[9,4,6,8,9,-1,-2,0,2,4,-3,7,-3,4,2,9],"shifted_pitches":[9,4,6,8,9,-1,-2,1,2,4,-3,7,-3,4,2,9],"swapped_pitches":[9,4,6,8,9,-1,-2,2,0,4,-3,7,-3,4,2,9],"shift_direction":1,"question_num":51,"has_decoy":false},{"rt":420.19999999995343,"stimulus":"[A] option 1, [L] option 2, [G] neither","key_press":65,"name":"choice","trial_type":"html-keyboard-response","trial_index":76,"time_elapsed":187659,"internal_node_id":"0.0-76.0","subject":"S1C1612","sona":"41770","block":3,"time":"2021-09-15T18:30:52.084Z","response":"1st","certainty":"high","char":"A","transposition":-1,"order":["shifted","swapped"],"probe_pitches":[5,3,0,-3,2,1,4,2,8,0,5,6,4,-1,1,5],"shifted_pitches":[5,3,0,-3,2,1,4,2,7,0,5,6,4,-1,1,5],"swapped_pitches":[5,3,0,-3,2,1,4,8,2,0,5,6,4,-1,1,5],"shift_direction":-1,"question_num":61,"has_decoy":false},{"rt":2004.1000000000931,"stimulus":"[A] option 1, [L] option 2, [G] neither","key_press":76,"name":"choice","trial_type":"html-keyboard-response","trial_index":87,"time_elapsed":212006,"internal_node_id":"0.0-87.0","subject":"S1C1612","sona":"41770","block":3,"time":"2021-09-15T18:30:52.084Z","response":"2nd","certainty":"high","char":"L","transposition":1,"order":["shifted","swapped"],"probe_pitches":[12,9,4,9,7,9,12,4,7,0,4,9,12,2,9,4],"shifted_pitches":[12,9,4,9,7,9,12,4,8,0,4,9,12,2,9,4],"swapped_pitches":[12,9,4,9,7,9,12,7,4,0,4,9,12,2,9,4],"shift_direction":1,"question_num":71,"has_decoy":false},{"rt":10004.5,"stimulus":"[A] option 1, [L] option 2, [G] neither","key_press":65,"name":"choice","trial_type":"html-keyboard-response","trial_index":98,"time_elapsed":244376,"internal_node_id":"0.0-98.0","subject":"S1C1612","sona":"41770","block":3,"time":"2021-09-15T18:30:52.084Z","response":"1st","certainty":"high","char":"A","transposition":-1,"order":["shifted","swapped"],"probe_pitches":[0,2,4,2,4,12,9,7,2,9,2,12,2,7,12,0],"shifted_pitches":[0,2,4,2,4,12,9,6,2,9,2,12,2,7,12,0],"swapped_pitches":[0,2,4,2,4,12,9,2,7,9,2,12,2,7,12,0],"shift_direction":-1,"question_num":81,"has_decoy":false},{"rt":9170,"stimulus":"[A] option 1, [L] option 2, [G] neither","key_press":76,"name":"choice","trial_type":"html-keyboard-response","trial_index":109,"time_elapsed":276332,"internal_node_id":"0.0-109.0","subject":"S1C1612","sona":"41770","block":3,"time":"2021-09-15T18:30:52.084Z","response":"2nd","certainty":"high","char":"L","transposition":0,"order":["swapped","shifted"],"probe_pitches":[-3,-1,-2,0,-3,2,8,-2,7,5,-2,7,0,4,1,2],"shifted_pitches":[-3,-1,-2,0,-3,2,8,-2,6,5,-2,7,0,4,1,2],"swapped_pitches":[-3,-1,-2,0,-3,2,8,7,-2,5,-2,7,0,4,1,2],"shift_direction":-1,"question_num":91,"has_decoy":false},{"rt":3910.399999999907,"stimulus":"[A] option 1, [L] option 2, [G] neither","key_press":65,"name":"choice","trial_type":"html-keyboard-response","trial_index":120,"time_elapsed":302806,"internal_node_id":"0.0-120.0","subject":"S1C1612","sona":"41770","block":3,"time":"2021-09-15T18:30:52.084Z","response":"1st","certainty":"high","char":"A","transposition":1,"order":["shifted","swapped"],"probe_pitches":[1,6,1,3,6,-1,6,-3,-1,0,-3,9,6,-1,-3,7],"shifted_pitches":[1,6,1,3,6,-1,6,-4,-1,0,-3,9,6,-1,-3,7],"swapped_pitches":[1,6,1,3,6,-1,6,-1,-3,0,-3,9,6,-1,-3,7],"shift_direction":-1,"question_num":101,"has_decoy":false},{"rt":6845.199999999953,"stimulus":"[A] option 1, [L] option 2, [G] neither","key_press":76,"name":"choice","trial_type":"html-keyboard-response","trial_index":131,"time_elapsed":332483,"internal_node_id":"0.0-131.0","subject":"S1C1612","sona":"41770","block":3,"time":"2021-09-15T18:30:52.084Z","response":"2nd","certainty":"high","char":"L","transposition":3,"order":["swapped","shifted"],"probe_pitches":[12,7,5,10,5,12,3,5,7,12,7,10,7,3,0,3],"shifted_pitches":[12,7,5,10,5,12,3,5,8,12,7,10,7,3,0,3],"swapped_pitches":[12,7,5,10,5,12,3,7,5,12,7,10,7,3,0,3],"shift_direction":1,"question_num":111,"has_decoy":false},{"rt":398.30000000004657,"stimulus":"[A] option 1, [L] option 2, [G] neither","key_press":65,"name":"choice","trial_type":"html-keyboard-response","trial_index":142,"time_elapsed":364853,"internal_node_id":"0.0-142.0","subject":"S1C1612","sona":"41770","block":3,"time":"2021-09-15T18:30:52.084Z","response":"1st","certainty":"high","char":"A","transposition":-1,"order":["swapped","shifted"],"probe_pitches":[8,3,-1,-2,7,5,-3,-1,1,5,1,6,0,3,5,-3],"shifted_pitches":[8,3,-1,-2,7,5,-3,-1,2,5,1,6,0,3,5,-3],"swapped_pitches":[8,3,-1,-2,7,5,-3,1,-1,5,1,6,0,3,5,-3],"shift_direction":1,"question_num":121,"has_decoy":false},{"rt":3260.899999999907,"stimulus":"[A] option 1, [L] option 2, [G] neither","key_press":65,"name":"choice","trial_type":"html-keyboard-response","trial_index":153,"time_elapsed":390655,"internal_node_id":"0.0-153.0","subject":"S1C1612","sona":"41770","block":3,"time":"2021-09-15T18:30:52.084Z","response":"1st","certainty":"high","char":"A","transposition":2,"order":["shifted","swapped"],"probe_pitches":[2,7,9,7,0,9,12,0,7,12,2,12,5,9,0,5],"shifted_pitches":[2,7,9,7,0,9,12,0,8,12,2,12,5,9,0,5],"swapped_pitches":[2,7,9,7,0,9,12,7,0,12,2,12,5,9,0,5],"shift_direction":1,"question_num":131,"has_decoy":false},{"rt":4161,"stimulus":"[A] option 1, [L] option 2, [G] neither","key_press":76,"name":"choice","trial_type":"html-keyboard-response","trial_index":164,"time_elapsed":419087,"internal_node_id":"0.0-164.0","subject":"S1C1612","sona":"41770","block":3,"time":"2021-09-15T18:30:52.084Z","response":"2nd","certainty":"high","char":"L","transposition":-2,"order":["swapped","shifted"],"probe_pitches":[12,9,2,9,12,9,5,7,9,12,7,0,2,7,2,5],"shifted_pitches":[12,9,2,9,12,9,5,7,10,12,7,0,2,7,2,5],"swapped_pitches":[12,9,2,9,12,9,5,9,7,12,7,0,2,7,2,5],"shift_direction":1,"question_num":141,"has_decoy":false},{"rt":1714.5,"stimulus":"[A] option 1, [L] option 2, [G] neither","key_press":76,"name":"choice","trial_type":"html-keyboard-response","trial_index":175,"time_elapsed":444135,"internal_node_id":"0.0-175.0","subject":"S1C1612","sona":"41770","block":3,"time":"2021-09-15T18:30:52.084Z","response":"2nd","certainty":"high","char":"L","transposition":-3,"order":["shifted","swapped"],"probe_pitches":[-3,3,-3,5,-2,-1,7,1,4,-1,9,2,8,3,7,5],"shifted_pitches":[-3,3,-3,5,-2,-1,7,0,4,-1,9,2,8,3,7,5],"swapped_pitches":[-3,3,-3,5,-2,-1,7,4,1,-1,9,2,8,3,7,5],"shift_direction":-1,"question_num":151,"has_decoy":false},{"rt":601.5,"stimulus":"[A] option 1, [L] option 2, [G] neither","key_press":76,"name":"choice","trial_type":"html-keyboard-response","trial_index":186,"time_elapsed":468830,"internal_node_id":"0.0-186.0","subject":"S1C1612","sona":"41770","block":3,"time":"2021-09-15T18:30:52.084Z","response":"2nd","certainty":"high","char":"L","transposition":-1,"order":["shifted","swapped"],"probe_pitches":[12,8,10,5,0,10,8,12,5,10,0,3,10,5,0,12],"shifted_pitches":[12,8,10,5,0,10,8,11,5,10,0,3,10,5,0,12],"swapped_pitches":[12,8,10,5,0,10,8,5,12,10,0,3,10,5,0,12],"shift_direction":-1,"question_num":161,"has_decoy":false},{"rt":6944.699999999953,"stimulus":"[A] option 1, [L] option 2, [G] neither","key_press":65,"name":"choice","trial_type":"html-keyboard-response","trial_index":197,"time_elapsed":498166,"internal_node_id":"0.0-197.0","subject":"S1C1612","sona":"41770","block":3,"time":"2021-09-15T18:30:52.084Z","response":"1st","certainty":"high","char":"A","transposition":-2,"order":["shifted","swapped"],"probe_pitches":[5,7,8,9,1,-3,4,3,-2,5,-3,2,7,-3,1,6],"shifted_pitches":[5,7,8,9,1,-3,4,3,-1,5,-3,2,7,-3,1,6],"swapped_pitches":[5,7,8,9,1,-3,4,-2,3,5,-3,2,7,-3,1,6],"shift_direction":1,"question_num":171,"has_decoy":false},{"rt":1924.5999999998603,"stimulus":"[A] option 1, [L] option 2, [G] neither","key_press":76,"name":"choice","trial_type":"html-keyboard-response","trial_index":208,"time_elapsed":522784,"internal_node_id":"0.0-208.0","subject":"S1C1612","sona":"41770","block":3,"time":"2021-09-15T18:30:52.084Z","response":"2nd","certainty":"high","char":"L","transposition":-3,"order":["swapped","shifted"],"probe_pitches":[5,2,0,-2,6,-1,-2,9,5,1,-3,5,0,8,2,3],"shifted_pitches":[5,2,0,-2,6,-1,-2,9,4,1,-3,5,0,8,2,3],"swapped_pitches":[5,2,0,-2,6,-1,-2,5,9,1,-3,5,0,8,2,3],"shift_direction":-1,"question_num":181,"has_decoy":false},{"rt":540.3000000000466,"stimulus":"[A] option 1, [L] option 2, [G] neither","key_press":76,"name":"choice","trial_type":"html-keyboard-response","trial_index":219,"time_elapsed":552521,"internal_node_id":"0.0-219.0","subject":"S1C1612","sona":"41770","block":3,"time":"2021-09-15T18:30:52.084Z","response":"2nd","certainty":"high","char":"L","transposition":2,"order":["swapped","shifted"],"probe_pitches":[0,6,2,6,0,4,6,2,-3,1,2,-2,7,5,0,4],"shifted_pitches":[0,6,2,6,0,4,6,3,-3,1,2,-2,7,5,0,4],"swapped_pitches":[0,6,2,6,0,4,6,-3,2,1,2,-2,7,5,0,4],"shift_direction":1,"question_num":191,"has_decoy":false}]