[{"rt":1192.5,"stimulus":"[A] option 1, [L] option 2, [G] neither","key_press":76,"name":"choice","trial_type":"html-keyboard-response","trial_index":10,"time_elapsed":40436,"internal_node_id":"0.0-10.0","subject":"S1C1612","sona":"41770","block":2,"time":"2021-09-15T18:21:30.492Z","response":"2nd","certainty":"high","char":"L","transposition":2,"order":["shifted","swapped"],"probe_pitches":[10,8,10,8,10,1,8,1,-2,10,3,1,-2,6,-2,10],"shifted_pitches":[10,8,10,8,10,1,8,1,-1,10,3,1,-2,6,-2,10],"swapped_pitches":[10,8,10,8,10,1,8,-2,1,10,3,1,-2,6,-2,10],"shift_direction":1,"question_num":1,"has_decoy":false},{"rt":1747.5,"stimulus":"[A] option 1, [L] option 2, [G] neither","key_press":76,"name":"choice","trial_type":"html-keyboard-response","trial_index":21,"time_elapsed":66031,"internal_node_id":"0.0-21.0","subject":"S1C1612","sona":"41770","block":2,"time":"2021-09-15T18:21:30.492Z","response":"2nd","certainty":"high","char":"L","transposition":-1,"order":["shifted","swapped"],"probe_pitches":[3,8,10,8,1,10,1,10,5,3,10,1,10,-2,5,-2],"shifted_pitches":[3,8,10,8,1,10,1,9,5,3,10,1,10,-2,5,-2],"swapped_pitches":[3,8,10,8,1,10,1,5,10,3,10,1,10,-2,5,-2],"shift_direction":-1,"question_num":11,"has_decoy":false},{"rt":1440,"stimulus":"[A] option 1, [L] option 2, [G] neither","key_press":65,"name":"choice","trial_type":"html-keyboard-response","trial_index":32,"time_elapsed":90353,"internal_node_id":"0.0-32.0","subject":"S1C1612","sona":"41770","block":2,"time":"2021-09-15T18:21:30.492Z","response":"1st","certainty":"high","char":"A","transposition":2,"order":["shifted","swapped"],"probe_pitches":[13,9,2,3,5,3,13,4,11,14,5,11,4,9,11,2],"shifted_pitches":[13,9,2,3,5,3,13,4,10,14,5,11,4,9,11,2],"swapped_pitches":[13,9,2,3,5,3,13,11,4,14,5,11,4,9,11,2],"shift_direction":-1,"question_num":21,"has_decoy":false},{"rt":6174.300000000047,"stimulus":"[A] option 1, [L] option 2, [G] neither","key_press":71,"name":"choice","trial_type":"html-keyboard-response","trial_index":43,"time_elapsed":118964,"internal_node_id":"0.0-43.0","subject":"S1C1612","sona":"41770","block":2,"time":"2021-09-15T18:21:30.492Z","response":"neither","certainty":"high","char":"G","transposition":-3,"order":["shifted","swapped"],"probe_pitches":[10,9,10,2,7,10,7,11,8,5,4,8,7,9,14,11],"shifted_pitches":[10,9,10,2,7,10,7,12,8,5,4,8,7,9,14,11],"swapped_pitches":[10,9,10,2,7,10,7,8,11,5,4,8,7,9,14,11],"shift_direction":1,"question_num":31,"has_decoy":false},{"rt":2938.6999999999534,"stimulus":"[A] option 1, [L] option 2, [G] neither","key_press":76,"name":"choice","trial_type":"html-keyboard-response","trial_index":54,"time_elapsed":145136,"internal_node_id":"0.0-54.0","subject":"S1C1612","sona":"41770","block":2,"time":"2021-09-15T18:21:30.492Z","response":"2nd","certainty":"high","char":"L","transposition":-2,"order":["shifted","swapped"],"probe_pitches":[12,7,12,8,7,10,3,8,7,4,13,6,4,6,3,6],"shifted_pitches":[12,7,12,8,7,10,3,9,7,4,13,6,4,6,3,6],"swapped_pitches":[12,7,12,8,7,10,3,7,8,4,13,6,4,6,3,6],"shift_direction":1,"question_num":41,"has_decoy":false},{"rt":1807.5,"stimulus":"[A] option 1, [L] option 2, [G] neither","key_press":65,"name":"choice","trial_type":"html-keyboard-response","trial_index":65,"time_elapsed":169319,"internal_node_id":"0.0-65.0","subject":"S1C1612","sona":"41770","block":2,"time":"2021-09-15T18:21:30.492Z","response":"1st","certainty":"high","char":"A","transposition":3,"order":["shifted","swapped"],"probe_pitches":[14,12,13,8,10,8,11,3,7,10,4,11,9,3,5,3],"shifted_pitches":[14,12,13,8,10,8,11,3,6,10,4,11,9,3,5,3],"swapped_pitches":[14,12,13,8,10,8,11,7,3,10,4,11,9,3,5,3],"shift_direction":-1,"question_num":51,"has_decoy":false},{"rt":1708.9000000000233,"stimulus":"[A] option 1, [L] option 2, [G] neither","key_press":76,"name":"choice","trial_type":"html-keyboard-response","trial_index":76,"time_elapsed":193416,"internal_node_id":"0.0-76.0","subject":"S1C1612","sona":"41770","block":2,"time":"2021-09-15T18:21:30.492Z","response":"2nd","certainty":"high","char":"L","transposition":-1,"order":["swapped","shifted"],"probe_pitches":[7,6,2,8,10,9,14,8,12,9,5,7,5,12,10,2],"shifted_pitches":[7,6,2,8,10,9,14,8,11,9,5,7,5,12,10,2],"swapped_pitches":[7,6,2,8,10,9,14,12,8,9,5,7,5,12,10,2],"shift_direction":-1,"question_num":61,"has_decoy":false},{"rt":673.6999999999534,"stimulus":"[A] option 1, [L] option 2, [G] neither","key_press":76,"name":"choice","trial_type":"html-keyboard-response","trial_index":87,"time_elapsed":217432,"internal_node_id":"0.0-87.0","subject":"S1C1612","sona":"41770","block":2,"time":"2021-09-15T18:21:30.492Z","response":"2nd","certainty":"high","char":"L","transposition":-1,"order":["swapped","shifted"],"probe_pitches":[3,-2,5,-2,7,-2,3,10,0,7,3,7,10,5,3,10],"shifted_pitches":[3,-2,5,-2,7,-2,3,9,0,7,3,7,10,5,3,10],"swapped_pitches":[3,-2,5,-2,7,-2,3,0,10,7,3,7,10,5,3,10],"shift_direction":-1,"question_num":71,"has_decoy":false},{"rt":5310.800000000047,"stimulus":"[A] option 1, [L] option 2, [G] neither","key_press":65,"name":"choice","trial_type":"html-keyboard-response","trial_index":98,"time_elapsed":245407,"internal_node_id":"0.0-98.0","subject":"S1C1612","sona":"41770","block":2,"time":"2021-09-15T18:21:30.492Z","response":"1st","certainty":"high","char":"A","transposition":0,"order":["shifted","swapped"],"probe_pitches":[5,3,0,-2,5,10,0,5,10,0,7,5,10,7,3,-2],"shifted_pitches":[5,3,0,-2,5,10,0,5,9,0,7,5,10,7,3,-2],"swapped_pitches":[5,3,0,-2,5,10,0,10,5,0,7,5,10,7,3,-2],"shift_direction":-1,"question_num":81,"has_decoy":false},{"rt":2121.100000000093,"stimulus":"[A] option 1, [L] option 2, [G] neither","key_press":76,"name":"choice","trial_type":"html-keyboard-response","trial_index":109,"time_elapsed":273247,"internal_node_id":"0.0-109.0","subject":"S1C1612","sona":"41770","block":2,"time":"2021-09-15T18:21:30.492Z","response":"2nd","certainty":"high","char":"L","transposition":-1,"order":["swapped","shifted"],"probe_pitches":[9,8,11,5,11,12,7,12,8,5,11,2,12,14,2,14],"shifted_pitches":[9,8,11,5,11,12,7,13,8,5,11,2,12,14,2,14],"swapped_pitches":[9,8,11,5,11,12,7,8,12,5,11,2,12,14,2,14],"shift_direction":1,"question_num":91,"has_decoy":false},{"rt":5440,"stimulus":"[A] option 1, [L] option 2, [G] neither","key_press":76,"name":"choice","trial_type":"html-keyboard-response","trial_index":120,"time_elapsed":306619,"internal_node_id":"0.0-120.0","subject":"S1C1612","sona":"41770","block":2,"time":"2021-09-15T18:21:30.492Z","response":"2nd","certainty":"high","char":"L","transposition":-3,"order":["swapped","shifted"],"probe_pitches":[8,5,8,10,3,0,3,8,10,-2,3,10,5,8,-2,10],"shifted_pitches":[8,5,8,10,3,0,3,8,9,-2,3,10,5,8,-2,10],"swapped_pitches":[8,5,8,10,3,0,3,10,8,-2,3,10,5,8,-2,10],"shift_direction":-1,"question_num":101,"has_decoy":false},{"rt":4017.100000000093,"stimulus":"[A] option 1, [L] option 2, [G] neither","key_press":76,"name":"choice","trial_type":"html-keyboard-response","trial_index":131,"time_elapsed":337856,"internal_node_id":"0.0-131.0","subject":"S1C1612","sona":"41770","block":2,"time":"2021-09-15T18:21:30.492Z","response":"2nd","certainty":"high","char":"L","transposition":1,"order":["shifted","swapped"],"probe_pitches":[4,8,3,9,8,3,4,6,2,14,11,8,14,9,11,9],"shifted_pitches":[4,8,3,9,8,3,4,5,2,14,11,8,14,9,11,9],"swapped_pitches":[4,8,3,9,8,3,4,2,6,14,11,8,14,9,11,9],"shift_direction":-1,"question_num":111,"has_decoy":false},{"rt":5467.800000000047,"stimulus":"[A] option 1, [L] option 2, [G] neither","key_press":76,"name":"choice","trial_type":"html-keyboard-response","trial_index":142,"time_elapsed":374951,"internal_node_id":"0.0-142.0","subject":"S1C1612","sona":"41770","block":2,"time":"2021-09-15T18:21:30.492Z","response":"2nd","certainty":"high","char":"L","transposition":-3,"order":["swapped","shifted"],"probe_pitches":[7,5,2,5,6,14,4,11,7,12,2,11,13,9,12,6],"shifted_pitches":[7,5,2,5,6,14,4,11,8,12,2,11,13,9,12,6],"swapped_pitches":[7,5,2,5,6,14,4,7,11,12,2,11,13,9,12,6],"shift_direction":1,"question_num":121,"has_decoy":false},{"rt":406.19999999995343,"stimulus":"[A] option 1, [L] option 2, [G] neither","key_press":76,"name":"choice","trial_type":"html-keyboard-response","trial_index":153,"time_elapsed":403554,"internal_node_id":"0.0-153.0","subject":"S1C1612","sona":"41770","block":2,"time":"2021-09-15T18:21:30.492Z","response":"2nd","certainty":"high","char":"L","transposition":1,"order":["swapped","shifted"],"probe_pitches":[5,10,7,0,5,10,5,-2,0,7,2,-2,2,5,0,5],"shifted_pitches":[5,10,7,0,5,10,5,-1,0,7,2,-2,2,5,0,5],"swapped_pitches":[5,10,7,0,5,10,5,0,-2,7,2,-2,2,5,0,5],"shift_direction":1,"question_num":131,"has_decoy":false},{"rt":3858.8000000000466,"stimulus":"[A] option 1, [L] option 2, [G] neither","key_press":65,"name":"choice","trial_type":"html-keyboard-response","trial_index":164,"time_elapsed":430597,"internal_node_id":"0.0-164.0","subject":"S1C1612","sona":"41770","block":2,"time":"2021-09-15T18:21:30.492Z","response":"1st","certainty":"high","char":"A","transposition":0,"order":["swapped","shifted"],"probe_pitches":[8,2,5,8,13,11,5,12,6,14,8,3,13,3,9,4],"shifted_pitches":[8,2,5,8,13,11,5,12,7,14,8,3,13,3,9,4],"swapped_pitches":[8,2,5,8,13,11,5,6,12,14,8,3,13,3,9,4],"shift_direction":1,"question_num":141,"has_decoy":false},{"rt":3087.100000000093,"stimulus":"[A] option 1, [L] option 2, [G] neither","key_press":76,"name":"choice","trial_type":"html-keyboard-response","trial_index":175,"time_elapsed":457314,"internal_node_id":"0.0-175.0","subject":"S1C1612","sona":"41770","block":2,"time":"2021-09-15T18:21:30.492Z","response":"2nd","certainty":"high","char":"L","transposition":-3,"order":["swapped","shifted"],"probe_pitches":[10,5,8,5,1,10,5,8,-2,3,1,-2,10,-2,10,3],"shifted_pitches":[10,5,8,5,1,10,5,9,-2,3,1,-2,10,-2,10,3],"swapped_pitches":[10,5,8,5,1,10,5,-2,8,3,1,-2,10,-2,10,3],"shift_direction":1,"question_num":151,"has_decoy":false},{"rt":5028.59999999986,"stimulus":"[A] option 1, [L] option 2, [G] neither","key_press":76,"name":"choice","trial_type":"html-keyboard-response","trial_index":186,"time_elapsed":484600,"internal_node_id":"0.0-186.0","subject":"S1C1612","sona":"41770","block":2,"time":"2021-09-15T18:21:30.492Z","response":"2nd","certainty":"high","char":"L","transposition":-2,"order":["swapped","shifted"],"probe_pitches":[8,6,7,8,11,2,9,5,12,14,6,3,10,9,5,2],"shifted_pitches":[8,6,7,8,11,2,9,4,12,14,6,3,10,9,5,2],"swapped_pitches":[8,6,7,8,11,2,9,12,5,14,6,3,10,9,5,2],"shift_direction":-1,"question_num":161,"has_decoy":false},{"rt":2119.1999999999534,"stimulus":"[A] option 1, [L] option 2, [G] neither","key_press":65,"name":"choice","trial_type":"html-keyboard-response","trial_index":197,"time_elapsed":510566,"internal_node_id":"0.0-197.0","subject":"S1C1612","sona":"41770","block":2,"time":"2021-09-15T18:21:30.492Z","response":"1st","certainty":"high","char":"A","transposition":3,"order":["shifted","swapped"],"probe_pitches":[0,5,-2,2,0,7,2,7,10,5,-2,5,2,-2,2,7],"shifted_pitches":[0,5,-2,2,0,7,2,7,9,5,-2,5,2,-2,2,7],"swapped_pitches":[0,5,-2,2,0,7,2,10,7,5,-2,5,2,-2,2,7],"shift_direction":-1,"question_num":171,"has_decoy":false},{"rt":1808,"stimulus":"[A] option 1, [L] option 2, [G] neither","key_press":76,"name":"choice","trial_type":"html-keyboard-response","trial_index":208,"time_elapsed":535045,"internal_node_id":"0.0-208.0","subject":"S1C1612","sona":"41770","block":2,"time":"2021-09-15T18:21:30.492Z","response":"2nd","certainty":"high","char":"L","transposition":-2,"order":["shifted","swapped"],"probe_pitches":[6,10,6,8,3,1,10,6,1,-2,3,1,6,1,10,3],"shifted_pitches":[6,10,6,8,3,1,10,7,1,-2,3,1,6,1,10,3],"swapped_pitches":[6,10,6,8,3,1,10,1,6,-2,3,1,6,1,10,3],"shift_direction":1,"question_num":181,"has_decoy":false},{"rt":2872,"stimulus":"[A] option 1, [L] option 2, [G] neither","key_press":65,"name":"choice","trial_type":"html-keyboard-response","trial_index":219,"time_elapsed":565870,"internal_node_id":"0.0-219.0","subject":"S1C1612","sona":"41770","block":2,"time":"2021-09-15T18:21:30.492Z","response":"1st","certainty":"high","char":"A","transposition":-2,"order":["swapped","shifted"],"probe_pitches":[-2,3,8,0,3,5,10,8,3,5,8,5,3,8,5,8],"shifted_pitches":[-2,3,8,0,3,5,10,8,4,5,8,5,3,8,5,8],"swapped_pitches":[-2,3,8,0,3,5,10,3,8,5,8,5,3,8,5,8],"shift_direction":1,"question_num":191,"has_decoy":false}]