[{"rt":1210.8999999999069,"stimulus":"[A] option 1, [L] option 2, [G] neither","key_press":76,"name":"choice","trial_type":"html-keyboard-response","trial_index":10,"time_elapsed":25697,"internal_node_id":"0.0-10.0","subject":"S1C1612","sona":"41770","block":4,"time":"2021-09-15T18:40:27.224Z","response":"2nd","certainty":"high","char":"L","transposition":3,"order":["swapped","shifted"],"probe_pitches":[-1,3,5,0,3,-1,6,1,5,-1,3,-1,9,2,6,3],"shifted_pitches":[-1,3,5,0,3,-1,6,1,4,-1,3,-1,9,2,6,3],"swapped_pitches":[-1,3,5,0,3,-1,6,5,1,-1,3,-1,9,2,6,3],"shift_direction":-1,"question_num":1,"has_decoy":false},{"rt":590.3999999999069,"stimulus":"[A] option 1, [L] option 2, [G] neither","key_press":76,"name":"choice","trial_type":"html-keyboard-response","trial_index":21,"time_elapsed":48362,"internal_node_id":"0.0-21.0","subject":"S1C1612","sona":"41770","block":4,"time":"2021-09-15T18:40:27.224Z","response":"2nd","certainty":"high","char":"L","transposition":-1,"order":["swapped","shifted"],"probe_pitches":[1,5,-2,3,5,-2,5,8,1,-2,1,3,-2,3,5,1],"shifted_pitches":[1,5,-2,3,5,-2,5,9,1,-2,1,3,-2,3,5,1],"swapped_pitches":[1,5,-2,3,5,-2,5,1,8,-2,1,3,-2,3,5,1],"shift_direction":1,"question_num":11,"has_decoy":false},{"rt":9395.300000000047,"stimulus":"[A] option 1, [L] option 2, [G] neither","key_press":76,"name":"choice","trial_type":"html-keyboard-response","trial_index":32,"time_elapsed":85574,"internal_node_id":"0.0-32.0","subject":"S1C1612","sona":"41770","block":4,"time":"2021-09-15T18:40:27.224Z","response":"2nd","certainty":"high","char":"L","transposition":-3,"order":["shifted","swapped"],"probe_pitches":[3,0,7,10,5,3,5,3,7,-2,0,3,7,3,0,5],"shifted_pitches":[3,0,7,10,5,3,5,2,7,-2,0,3,7,3,0,5],"swapped_pitches":[3,0,7,10,5,3,5,7,3,-2,0,3,7,3,0,5],"shift_direction":-1,"question_num":21,"has_decoy":false},{"rt":823.5,"stimulus":"[A] option 1, [L] option 2, [G] neither","key_press":76,"name":"choice","trial_type":"html-keyboard-response","trial_index":43,"time_elapsed":108768,"internal_node_id":"0.0-43.0","subject":"S1C1612","sona":"41770","block":4,"time":"2021-09-15T18:40:27.224Z","response":"2nd","certainty":"high","char":"L","transposition":-3,"order":["shifted","swapped"],"probe_pitches":[0,6,10,8,3,1,-1,2,8,4,6,0,3,2,9,2],"shifted_pitches":[0,6,10,8,3,1,-1,2,7,4,6,0,3,2,9,2],"swapped_pitches":[0,6,10,8,3,1,-1,8,2,4,6,0,3,2,9,2],"shift_direction":-1,"question_num":31,"has_decoy":false},{"rt":2522.2999999998137,"stimulus":"[A] option 1, [L] option 2, [G] neither","key_press":76,"name":"choice","trial_type":"html-keyboard-response","trial_index":54,"time_elapsed":133598,"internal_node_id":"0.0-54.0","subject":"S1C1612","sona":"41770","block":4,"time":"2021-09-15T18:40:27.224Z","response":"2nd","certainty":"high","char":"L","transposition":2,"order":["swapped","shifted"],"probe_pitches":[0,1,6,4,6,1,11,2,-1,5,7,6,9,7,2,6],"shifted_pitches":[0,1,6,4,6,1,11,3,-1,5,7,6,9,7,2,6],"swapped_pitches":[0,1,6,4,6,1,11,-1,2,5,7,6,9,7,2,6],"shift_direction":1,"question_num":41,"has_decoy":false},{"rt":3418.7000000001863,"stimulus":"[A] option 1, [L] option 2, [G] neither","key_press":76,"name":"choice","trial_type":"html-keyboard-response","trial_index":65,"time_elapsed":159770,"internal_node_id":"0.0-65.0","subject":"S1C1612","sona":"41770","block":4,"time":"2021-09-15T18:40:27.224Z","response":"2nd","certainty":"high","char":"L","transposition":-1,"order":["swapped","shifted"],"probe_pitches":[7,10,5,7,10,5,7,2,5,10,2,0,2,0,7,5],"shifted_pitches":[7,10,5,7,10,5,7,2,6,10,2,0,2,0,7,5],"swapped_pitches":[7,10,5,7,10,5,7,5,2,10,2,0,2,0,7,5],"shift_direction":1,"question_num":51,"has_decoy":false},{"rt":2285.8000000002794,"stimulus":"[A] option 1, [L] option 2, [G] neither","key_press":76,"name":"choice","trial_type":"html-keyboard-response","trial_index":76,"time_elapsed":184281,"internal_node_id":"0.0-76.0","subject":"S1C1612","sona":"41770","block":4,"time":"2021-09-15T18:40:27.224Z","response":"2nd","certainty":"high","char":"L","transposition":-1,"order":["shifted","swapped"],"probe_pitches":[7,5,7,3,5,3,0,8,1,7,2,7,1,10,0,3],"shifted_pitches":[7,5,7,3,5,3,0,9,1,7,2,7,1,10,0,3],"swapped_pitches":[7,5,7,3,5,3,0,1,8,7,2,7,1,10,0,3],"shift_direction":1,"question_num":61,"has_decoy":false},{"rt":4250.100000000093,"stimulus":"[A] option 1, [L] option 2, [G] neither","key_press":76,"name":"choice","trial_type":"html-keyboard-response","trial_index":87,"time_elapsed":210992,"internal_node_id":"0.0-87.0","subject":"S1C1612","sona":"41770","block":4,"time":"2021-09-15T18:40:27.224Z","response":"2nd","certainty":"high","char":"L","transposition":-2,"order":["shifted","swapped"],"probe_pitches":[10,8,10,8,0,5,-2,10,3,-2,5,10,5,0,10,3],"shifted_pitches":[10,8,10,8,0,5,-2,9,3,-2,5,10,5,0,10,3],"swapped_pitches":[10,8,10,8,0,5,-2,3,10,-2,5,10,5,0,10,3],"shift_direction":-1,"question_num":71,"has_decoy":false},{"rt":3706.1999999997206,"stimulus":"[A] option 1, [L] option 2, [G] neither","key_press":76,"name":"choice","trial_type":"html-keyboard-response","trial_index":98,"time_elapsed":245404,"internal_node_id":"0.0-98.0","subject":"S1C1612","sona":"41770","block":4,"time":"2021-09-15T18:40:27.224Z","response":"2nd","certainty":"high","char":"L","transposition":-2,"order":["shifted","swapped"],"probe_pitches":[0,3,7,10,6,9,8,1,7,6,5,10,7,4,0,7],"shifted_pitches":[0,3,7,10,6,9,8,2,7,6,5,10,7,4,0,7],"swapped_pitches":[0,3,7,10,6,9,8,7,1,6,5,10,7,4,0,7],"shift_direction":1,"question_num":81,"has_decoy":false},{"rt":1904.2999999998137,"stimulus":"[A] option 1, [L] option 2, [G] neither","key_press":65,"name":"choice","trial_type":"html-keyboard-response","trial_index":109,"time_elapsed":269673,"internal_node_id":"0.0-109.0","subject":"S1C1612","sona":"41770","block":4,"time":"2021-09-15T18:40:27.224Z","response":"1st","certainty":"high","char":"A","transposition":1,"order":["shifted","swapped"],"probe_pitches":[8,10,9,6,3,-1,7,9,2,0,11,9,10,0,6,11],"shifted_pitches":[8,10,9,6,3,-1,7,9,1,0,11,9,10,0,6,11],"swapped_pitches":[8,10,9,6,3,-1,7,2,9,0,11,9,10,0,6,11],"shift_direction":-1,"question_num":91,"has_decoy":false},{"rt":1432.6999999997206,"stimulus":"[A] option 1, [L] option 2, [G] neither","key_press":76,"name":"choice","trial_type":"html-keyboard-response","trial_index":120,"time_elapsed":293884,"internal_node_id":"0.0-120.0","subject":"S1C1612","sona":"41770","block":4,"time":"2021-09-15T18:40:27.224Z","response":"2nd","certainty":"high","char":"L","transposition":0,"order":["swapped","shifted"],"probe_pitches":[9,10,11,3,1,2,5,10,9,1,4,10,3,5,1,9],"shifted_pitches":[9,10,11,3,1,2,5,10,8,1,4,10,3,5,1,9],"swapped_pitches":[9,10,11,3,1,2,5,9,10,1,4,10,3,5,1,9],"shift_direction":-1,"question_num":101,"has_decoy":false},{"rt":11248.299999999814,"stimulus":"[A] option 1, [L] option 2, [G] neither","key_press":76,"name":"choice","trial_type":"html-keyboard-response","trial_index":131,"time_elapsed":327444,"internal_node_id":"0.0-131.0","subject":"S1C1612","sona":"41770","block":4,"time":"2021-09-15T18:40:27.224Z","response":"2nd","certainty":"high","char":"L","transposition":-2,"order":["swapped","shifted"],"probe_pitches":[8,9,4,8,11,2,3,11,4,9,8,11,2,11,7,0],"shifted_pitches":[8,9,4,8,11,2,3,11,5,9,8,11,2,11,7,0],"swapped_pitches":[8,9,4,8,11,2,3,4,11,9,8,11,2,11,7,0],"shift_direction":1,"question_num":111,"has_decoy":false},{"rt":13442.5,"stimulus":"[A] option 1, [L] option 2, [G] neither","key_press":65,"name":"choice","trial_type":"html-keyboard-response","trial_index":142,"time_elapsed":363465,"internal_node_id":"0.0-142.0","subject":"S1C1612","sona":"41770","block":4,"time":"2021-09-15T18:40:27.224Z","response":"1st","certainty":"high","char":"A","transposition":-3,"order":["swapped","shifted"],"probe_pitches":[11,5,2,0,2,10,11,5,10,7,0,5,7,0,7,3],"shifted_pitches":[11,5,2,0,2,10,11,6,10,7,0,5,7,0,7,3],"swapped_pitches":[11,5,2,0,2,10,11,10,5,7,0,5,7,0,7,3],"shift_direction":1,"question_num":121,"has_decoy":false},{"rt":15893.299999999814,"stimulus":"[A] option 1, [L] option 2, [G] neither","key_press":65,"name":"choice","trial_type":"html-keyboard-response","trial_index":153,"time_elapsed":401789,"internal_node_id":"0.0-153.0","subject":"S1C1612","sona":"41770","block":4,"time":"2021-09-15T18:40:27.224Z","response":"1st","certainty":"high","char":"A","transposition":1,"order":["swapped","shifted"],"probe_pitches":[5,7,3,7,0,3,10,3,5,-2,0,7,-2,7,5,10],"shifted_pitches":[5,7,3,7,0,3,10,3,6,-2,0,7,-2,7,5,10],"swapped_pitches":[5,7,3,7,0,3,10,5,3,-2,0,7,-2,7,5,10],"shift_direction":1,"question_num":131,"has_decoy":false},{"rt":10255.100000000093,"stimulus":"[A] option 1, [L] option 2, [G] neither","key_press":65,"name":"choice","trial_type":"html-keyboard-response","trial_index":164,"time_elapsed":434412,"internal_node_id":"0.0-164.0","subject":"S1C1612","sona":"41770","block":4,"time":"2021-09-15T18:40:27.224Z","response":"1st","certainty":"high","char":"A","transposition":0,"order":["shifted","swapped"],"probe_pitches":[8,6,1,-2,6,1,8,1,6,-2,1,10,6,3,1,6],"shifted_pitches":[8,6,1,-2,6,1,8,1,5,-2,1,10,6,3,1,6],"swapped_pitches":[8,6,1,-2,6,1,8,6,1,-2,1,10,6,3,1,6],"shift_direction":-1,"question_num":141,"has_decoy":false},{"rt":4059.399999999907,"stimulus":"[A] option 1, [L] option 2, [G] neither","key_press":76,"name":"choice","trial_type":"html-keyboard-response","trial_index":175,"time_elapsed":460778,"internal_node_id":"0.0-175.0","subject":"S1C1612","sona":"41770","block":4,"time":"2021-09-15T18:40:27.224Z","response":"2nd","certainty":"high","char":"L","transposition":-3,"order":["shifted","swapped"],"probe_pitches":[3,1,6,8,6,10,6,8,-2,6,10,-2,3,10,1,-2],"shifted_pitches":[3,1,6,8,6,10,6,9,-2,6,10,-2,3,10,1,-2],"swapped_pitches":[3,1,6,8,6,10,6,-2,8,6,10,-2,3,10,1,-2],"shift_direction":1,"question_num":151,"has_decoy":false},{"rt":1210.6000000000931,"stimulus":"[A] option 1, [L] option 2, [G] neither","key_press":76,"name":"choice","trial_type":"html-keyboard-response","trial_index":186,"time_elapsed":484293,"internal_node_id":"0.0-186.0","subject":"S1C1612","sona":"41770","block":4,"time":"2021-09-15T18:40:27.224Z","response":"2nd","certainty":"high","char":"L","transposition":3,"order":["shifted","swapped"],"probe_pitches":[1,-2,5,3,10,8,1,5,10,8,5,1,3,1,3,8],"shifted_pitches":[1,-2,5,3,10,8,1,5,9,8,5,1,3,1,3,8],"swapped_pitches":[1,-2,5,3,10,8,1,10,5,8,5,1,3,1,3,8],"shift_direction":-1,"question_num":161,"has_decoy":false},{"rt":8050.100000000093,"stimulus":"[A] option 1, [L] option 2, [G] neither","key_press":65,"name":"choice","trial_type":"html-keyboard-response","trial_index":197,"time_elapsed":516605,"internal_node_id":"0.0-197.0","subject":"S1C1612","sona":"41770","block":4,"time":"2021-09-15T18:40:27.224Z","response":"1st","certainty":"high","char":"A","transposition":2,"order":["swapped","shifted"],"probe_pitches":[2,0,7,0,2,5,2,5,10,7,-2,0,5,10,5,10],"shifted_pitches":[2,0,7,0,2,5,2,6,10,7,-2,0,5,10,5,10],"swapped_pitches":[2,0,7,0,2,5,2,10,5,7,-2,0,5,10,5,10],"shift_direction":1,"question_num":171,"has_decoy":false},{"rt":3430.600000000093,"stimulus":"[A] option 1, [L] option 2, [G] neither","key_press":65,"name":"choice","trial_type":"html-keyboard-response","trial_index":208,"time_elapsed":542487,"internal_node_id":"0.0-208.0","subject":"S1C1612","sona":"41770","block":4,"time":"2021-09-15T18:40:27.224Z","response":"1st","certainty":"high","char":"A","transposition":-2,"order":["swapped","shifted"],"probe_pitches":[0,-2,0,-2,3,0,8,-2,5,10,5,3,5,10,8,-2],"shifted_pitches":[0,-2,0,-2,3,0,8,-2,4,10,5,3,5,10,8,-2],"swapped_pitches":[0,-2,0,-2,3,0,8,5,-2,10,5,3,5,10,8,-2],"shift_direction":-1,"question_num":181,"has_decoy":false},{"rt":3765.5,"stimulus":"[A] option 1, [L] option 2, [G] neither","key_press":65,"name":"choice","trial_type":"html-keyboard-response","trial_index":219,"time_elapsed":569591,"internal_node_id":"0.0-219.0","subject":"S1C1612","sona":"41770","block":4,"time":"2021-09-15T18:40:27.224Z","response":"1st","certainty":"high","char":"A","transposition":-1,"order":["shifted","swapped"],"probe_pitches":[4,7,11,5,1,4,8,-1,7,0,7,4,0,-1,9,3],"shifted_pitches":[4,7,11,5,1,4,8,-2,7,0,7,4,0,-1,9,3],"swapped_pitches":[4,7,11,5,1,4,8,7,-1,0,7,4,0,-1,9,3],"shift_direction":-1,"question_num":191,"has_decoy":false}]