[{"rt":13650.19999999972,"stimulus":"[A] option 1, [L] option 2, [G] neither","key_press":65,"name":"choice","trial_type":"html-keyboard-response","trial_index":10,"time_elapsed":68544,"internal_node_id":"0.0-10.0","subject":"S1C1612","sona":"41770","block":5,"time":"2021-09-15T18:50:10.472Z","response":"1st","certainty":"high","char":"A","transposition":-1,"order":["shifted","swapped"],"probe_pitches":[1,5,3,10,8,1,6,3,8,4,1,10,6,9,3,4],"shifted_pitches":[1,5,3,10,8,1,6,2,8,4,1,10,6,9,3,4],"swapped_pitches":[1,5,3,10,8,1,6,8,3,4,1,10,6,9,3,4],"shift_direction":-1,"question_num":1,"has_decoy":false},{"rt":5664.800000000279,"stimulus":"[A] option 1, [L] option 2, [G] neither","key_press":65,"name":"choice","trial_type":"html-keyboard-response","trial_index":21,"time_elapsed":96580,"internal_node_id":"0.0-21.0","subject":"S1C1612","sona":"41770","block":5,"time":"2021-09-15T18:50:10.472Z","response":"1st","certainty":"high","char":"A","transposition":-3,"order":["shifted","swapped"],"probe_pitches":[4,-1,6,1,-1,2,3,-2,-1,7,1,6,-2,9,5,10],"shifted_pitches":[4,-1,6,1,-1,2,3,-2,0,7,1,6,-2,9,5,10],"swapped_pitches":[4,-1,6,1,-1,2,3,-1,-2,7,1,6,-2,9,5,10],"shift_direction":1,"question_num":11,"has_decoy":false},{"rt":3943.899999999907,"stimulus":"[A] option 1, [L] option 2, [G] neither","key_press":65,"name":"choice","trial_type":"html-keyboard-response","trial_index":32,"time_elapsed":123350,"internal_node_id":"0.0-32.0","subject":"S1C1612","sona":"41770","block":5,"time":"2021-09-15T18:50:10.472Z","response":"1st","certainty":"high","char":"A","transposition":-1,"order":["shifted","swapped"],"probe_pitches":[4,6,4,11,4,6,1,9,6,4,13,6,13,6,4,13],"shifted_pitches":[4,6,4,11,4,6,1,8,6,4,13,6,13,6,4,13],"swapped_pitches":[4,6,4,11,4,6,1,6,9,4,13,6,13,6,4,13],"shift_direction":-1,"question_num":21,"has_decoy":false},{"rt":2173,"stimulus":"[A] option 1, [L] option 2, [G] neither","key_press":76,"name":"choice","trial_type":"html-keyboard-response","trial_index":43,"time_elapsed":151090,"internal_node_id":"0.0-43.0","subject":"S1C1612","sona":"41770","block":5,"time":"2021-09-15T18:50:10.472Z","response":"2nd","certainty":"high","char":"L","transposition":3,"order":["swapped","shifted"],"probe_pitches":[4,6,13,8,6,1,4,11,8,4,6,8,1,6,8,11],"shifted_pitches":[4,6,13,8,6,1,4,12,8,4,6,8,1,6,8,11],"swapped_pitches":[4,6,13,8,6,1,4,8,11,4,6,8,1,6,8,11],"shift_direction":1,"question_num":31,"has_decoy":false},{"rt":1397.3000000002794,"stimulus":"[A] option 1, [L] option 2, [G] neither","key_press":65,"name":"choice","trial_type":"html-keyboard-response","trial_index":54,"time_elapsed":177099,"internal_node_id":"0.0-54.0","subject":"S1C1612","sona":"41770","block":5,"time":"2021-09-15T18:50:10.472Z","response":"1st","certainty":"high","char":"A","transposition":-2,"order":["swapped","shifted"],"probe_pitches":[-2,2,-2,3,2,3,-2,9,6,10,-2,3,-1,5,0,9],"shifted_pitches":[-2,2,-2,3,2,3,-2,8,6,10,-2,3,-1,5,0,9],"swapped_pitches":[-2,2,-2,3,2,3,-2,6,9,10,-2,3,-1,5,0,9],"shift_direction":-1,"question_num":41,"has_decoy":false},{"rt":2598,"stimulus":"[A] option 1, [L] option 2, [G] neither","key_press":76,"name":"choice","trial_type":"html-keyboard-response","trial_index":65,"time_elapsed":201960,"internal_node_id":"0.0-65.0","subject":"S1C1612","sona":"41770","block":5,"time":"2021-09-15T18:50:10.472Z","response":"2nd","certainty":"high","char":"L","transposition":2,"order":["swapped","shifted"],"probe_pitches":[5,10,5,10,1,8,1,3,13,5,1,10,1,8,10,3],"shifted_pitches":[5,10,5,10,1,8,1,2,13,5,1,10,1,8,10,3],"swapped_pitches":[5,10,5,10,1,8,1,13,3,5,1,10,1,8,10,3],"shift_direction":-1,"question_num":51,"has_decoy":false},{"rt":5291.5,"stimulus":"[A] option 1, [L] option 2, [G] neither","key_press":76,"name":"choice","trial_type":"html-keyboard-response","trial_index":76,"time_elapsed":229507,"internal_node_id":"0.0-76.0","subject":"S1C1612","sona":"41770","block":5,"time":"2021-09-15T18:50:10.472Z","response":"2nd","certainty":"high","char":"L","transposition":-3,"order":["shifted","swapped"],"probe_pitches":[10,8,5,6,4,-2,0,-1,-2,4,0,3,-1,-2,7,4],"shifted_pitches":[10,8,5,6,4,-2,0,-1,-3,4,0,3,-1,-2,7,4],"swapped_pitches":[10,8,5,6,4,-2,0,-2,-1,4,0,3,-1,-2,7,4],"shift_direction":-1,"question_num":61,"has_decoy":false},{"rt":704.6000000000931,"stimulus":"[A] option 1, [L] option 2, [G] neither","key_press":65,"name":"choice","trial_type":"html-keyboard-response","trial_index":87,"time_elapsed":252703,"internal_node_id":"0.0-87.0","subject":"S1C1612","sona":"41770","block":5,"time":"2021-09-15T18:50:10.472Z","response":"1st","certainty":"high","char":"A","transposition":-3,"order":["swapped","shifted"],"probe_pitches":[8,3,8,6,1,3,8,11,6,3,1,3,11,3,6,3],"shifted_pitches":[8,3,8,6,1,3,8,12,6,3,1,3,11,3,6,3],"swapped_pitches":[8,3,8,6,1,3,8,6,11,3,1,3,11,3,6,3],"shift_direction":1,"question_num":71,"has_decoy":false},{"rt":393,"stimulus":"[A] option 1, [L] option 2, [G] neither","key_press":65,"name":"choice","trial_type":"html-keyboard-response","trial_index":98,"time_elapsed":275524,"internal_node_id":"0.0-98.0","subject":"S1C1612","sona":"41770","block":5,"time":"2021-09-15T18:50:10.472Z","response":"1st","certainty":"high","char":"A","transposition":1,"order":["shifted","swapped"],"probe_pitches":[6,7,6,1,8,0,-2,2,6,9,-1,4,6,2,-1,9],"shifted_pitches":[6,7,6,1,8,0,-2,3,6,9,-1,4,6,2,-1,9],"swapped_pitches":[6,7,6,1,8,0,-2,6,2,9,-1,4,6,2,-1,9],"shift_direction":1,"question_num":81,"has_decoy":false},{"rt":4326.299999999814,"stimulus":"[A] option 1, [L] option 2, [G] neither","key_press":76,"name":"choice","trial_type":"html-keyboard-response","trial_index":109,"time_elapsed":302213,"internal_node_id":"0.0-109.0","subject":"S1C1612","sona":"41770","block":5,"time":"2021-09-15T18:50:10.472Z","response":"2nd","certainty":"high","char":"L","transposition":-2,"order":["swapped","shifted"],"probe_pitches":[1,3,6,10,8,1,10,3,1,13,10,6,8,13,1,13],"shifted_pitches":[1,3,6,10,8,1,10,3,0,13,10,6,8,13,1,13],"swapped_pitches":[1,3,6,10,8,1,10,1,3,13,10,6,8,13,1,13],"shift_direction":-1,"question_num":91,"has_decoy":false},{"rt":7040.0999999996275,"stimulus":"[A] option 1, [L] option 2, [G] neither","key_press":76,"name":"choice","trial_type":"html-keyboard-response","trial_index":120,"time_elapsed":337424,"internal_node_id":"0.0-120.0","subject":"S1C1612","sona":"41770","block":5,"time":"2021-09-15T18:50:10.472Z","response":"2nd","certainty":"high","char":"L","transposition":3,"order":["swapped","shifted"],"probe_pitches":[10,8,6,8,3,8,0,3,1,9,-2,3,9,10,1,-2],"shifted_pitches":[10,8,6,8,3,8,0,4,1,9,-2,3,9,10,1,-2],"swapped_pitches":[10,8,6,8,3,8,0,1,3,9,-2,3,9,10,1,-2],"shift_direction":1,"question_num":101,"has_decoy":false},{"rt":1139.4000000003725,"stimulus":"[A] option 1, [L] option 2, [G] neither","key_press":65,"name":"choice","trial_type":"html-keyboard-response","trial_index":131,"time_elapsed":361077,"internal_node_id":"0.0-131.0","subject":"S1C1612","sona":"41770","block":5,"time":"2021-09-15T18:50:10.472Z","response":"1st","certainty":"high","char":"A","transposition":0,"order":["shifted","swapped"],"probe_pitches":[13,10,3,10,8,10,6,10,3,13,1,3,10,13,10,3],"shifted_pitches":[13,10,3,10,8,10,6,9,3,13,1,3,10,13,10,3],"swapped_pitches":[13,10,3,10,8,10,6,3,10,13,1,3,10,13,10,3],"shift_direction":-1,"question_num":111,"has_decoy":false},{"rt":1521.1000000000931,"stimulus":"[A] option 1, [L] option 2, [G] neither","key_press":76,"name":"choice","trial_type":"html-keyboard-response","trial_index":142,"time_elapsed":384899,"internal_node_id":"0.0-142.0","subject":"S1C1612","sona":"41770","block":5,"time":"2021-09-15T18:50:10.472Z","response":"2nd","certainty":"high","char":"L","transposition":2,"order":["shifted","swapped"],"probe_pitches":[0,4,1,3,8,4,10,5,1,2,3,8,5,3,-2,-1],"shifted_pitches":[0,4,1,3,8,4,10,6,1,2,3,8,5,3,-2,-1],"swapped_pitches":[0,4,1,3,8,4,10,1,5,2,3,8,5,3,-2,-1],"shift_direction":1,"question_num":121,"has_decoy":false},{"rt":2690.6999999997206,"stimulus":"[A] option 1, [L] option 2, [G] neither","key_press":76,"name":"choice","trial_type":"html-keyboard-response","trial_index":153,"time_elapsed":410160,"internal_node_id":"0.0-153.0","subject":"S1C1612","sona":"41770","block":5,"time":"2021-09-15T18:50:10.472Z","response":"2nd","certainty":"high","char":"L","transposition":1,"order":["shifted","swapped"],"probe_pitches":[6,3,1,6,11,8,13,3,11,8,1,8,3,8,13,11],"shifted_pitches":[6,3,1,6,11,8,13,3,12,8,1,8,3,8,13,11],"swapped_pitches":[6,3,1,6,11,8,13,11,3,8,1,8,3,8,13,11],"shift_direction":1,"question_num":131,"has_decoy":false},{"rt":1442.3000000002794,"stimulus":"[A] option 1, [L] option 2, [G] neither","key_press":76,"name":"choice","trial_type":"html-keyboard-response","trial_index":164,"time_elapsed":437712,"internal_node_id":"0.0-164.0","subject":"S1C1612","sona":"41770","block":5,"time":"2021-09-15T18:50:10.472Z","response":"2nd","certainty":"high","char":"L","transposition":-2,"order":["swapped","shifted"],"probe_pitches":[6,5,8,5,2,1,-1,-2,8,5,-1,5,2,3,4,1],"shifted_pitches":[6,5,8,5,2,1,-1,-2,7,5,-1,5,2,3,4,1],"swapped_pitches":[6,5,8,5,2,1,-1,8,-2,5,-1,5,2,3,4,1],"shift_direction":-1,"question_num":141,"has_decoy":false},{"rt":788.7000000001863,"stimulus":"[A] option 1, [L] option 2, [G] neither","key_press":76,"name":"choice","trial_type":"html-keyboard-response","trial_index":175,"time_elapsed":465353,"internal_node_id":"0.0-175.0","subject":"S1C1612","sona":"41770","block":5,"time":"2021-09-15T18:50:10.472Z","response":"2nd","certainty":"high","char":"L","transposition":-2,"order":["shifted","swapped"],"probe_pitches":[3,1,5,13,5,8,5,8,13,5,10,5,13,10,8,1],"shifted_pitches":[3,1,5,13,5,8,5,8,14,5,10,5,13,10,8,1],"swapped_pitches":[3,1,5,13,5,8,5,13,8,5,10,5,13,10,8,1],"shift_direction":1,"question_num":151,"has_decoy":false},{"rt":557.8999999999069,"stimulus":"[A] option 1, [L] option 2, [G] neither","key_press":65,"name":"choice","trial_type":"html-keyboard-response","trial_index":186,"time_elapsed":491128,"internal_node_id":"0.0-186.0","subject":"S1C1612","sona":"41770","block":5,"time":"2021-09-15T18:50:10.472Z","response":"1st","certainty":"high","char":"A","transposition":0,"order":["swapped","shifted"],"probe_pitches":[3,2,9,10,6,2,-2,9,6,-2,10,8,6,3,9,-1],"shifted_pitches":[3,2,9,10,6,2,-2,9,5,-2,10,8,6,3,9,-1],"swapped_pitches":[3,2,9,10,6,2,-2,6,9,-2,10,8,6,3,9,-1],"shift_direction":-1,"question_num":161,"has_decoy":false},{"rt":1821.7000000001863,"stimulus":"[A] option 1, [L] option 2, [G] neither","key_press":65,"name":"choice","trial_type":"html-keyboard-response","trial_index":197,"time_elapsed":523999,"internal_node_id":"0.0-197.0","subject":"S1C1612","sona":"41770","block":5,"time":"2021-09-15T18:50:10.472Z","response":"1st","certainty":"high","char":"A","transposition":-3,"order":["shifted","swapped"],"probe_pitches":[6,9,4,9,4,13,4,11,6,4,11,13,6,1,11,1],"shifted_pitches":[6,9,4,9,4,13,4,11,7,4,11,13,6,1,11,1],"swapped_pitches":[6,9,4,9,4,13,4,6,11,4,11,13,6,1,11,1],"shift_direction":1,"question_num":171,"has_decoy":false},{"rt":3254.899999999907,"stimulus":"[A] option 1, [L] option 2, [G] neither","key_press":65,"name":"choice","trial_type":"html-keyboard-response","trial_index":208,"time_elapsed":549753,"internal_node_id":"0.0-208.0","subject":"S1C1612","sona":"41770","block":5,"time":"2021-09-15T18:50:10.472Z","response":"1st","certainty":"high","char":"A","transposition":-1,"order":["swapped","shifted"],"probe_pitches":[6,7,6,9,3,4,2,6,0,8,0,3,10,7,4,2],"shifted_pitches":[6,7,6,9,3,4,2,6,1,8,0,3,10,7,4,2],"swapped_pitches":[6,7,6,9,3,4,2,0,6,8,0,3,10,7,4,2],"shift_direction":1,"question_num":181,"has_decoy":false},{"rt":4323.5999999996275,"stimulus":"[A] option 1, [L] option 2, [G] neither","key_press":65,"name":"choice","trial_type":"html-keyboard-response","trial_index":219,"time_elapsed":576577,"internal_node_id":"0.0-219.0","subject":"S1C1612","sona":"41770","block":5,"time":"2021-09-15T18:50:10.472Z","response":"1st","certainty":"high","char":"A","transposition":-1,"order":["swapped","shifted"],"probe_pitches":[1,4,6,13,11,4,1,4,8,11,6,11,13,1,11,6],"shifted_pitches":[1,4,6,13,11,4,1,4,7,11,6,11,13,1,11,6],"swapped_pitches":[1,4,6,13,11,4,1,8,4,11,6,11,13,1,11,6],"shift_direction":-1,"question_num":191,"has_decoy":false}]