[{"rt":7749.200000000012,"stimulus":"[A] option 1, [L] option 2, [G] neither","key_press":76,"name":"choice","trial_type":"html-keyboard-response","trial_index":15,"time_elapsed":83647,"internal_node_id":"0.0-15.0","response":"2nd","certainty":"high","char":"L","transposition":0,"order":["swapped","shifted"],"probe_pitches":[3,7,5,7,0,10,12,10,5,3,5,12,7,3,7,0],"shifted_pitches":[3,7,5,7,0,10,12,11,5,3,5,12,7,3,7,0],"swapped_pitches":[3,7,5,7,0,10,12,5,10,3,5,12,7,3,7,0],"shift_direction":1,"question_num":1,"has_decoy":false,"subject":"S1C1612","sona":"41770","block":1,"time":"2021-09-15T18:11:46.415Z"},{"rt":2032.5,"stimulus":"[A] option 1, [L] option 2, [G] neither","key_press":76,"name":"choice","trial_type":"html-keyboard-response","trial_index":26,"time_elapsed":109530,"internal_node_id":"0.0-26.0","response":"2nd","certainty":"high","char":"L","transposition":-3,"order":["swapped","shifted"],"probe_pitches":[7,3,5,12,10,0,5,3,7,10,7,3,7,10,3,12],"shifted_pitches":[7,3,5,12,10,0,5,2,7,10,7,3,7,10,3,12],"swapped_pitches":[7,3,5,12,10,0,5,7,3,10,7,3,7,10,3,12],"shift_direction":-1,"question_num":11,"has_decoy":false,"subject":"S1C1612","sona":"41770","block":1,"time":"2021-09-15T18:11:46.415Z"},{"rt":2951.7000000000116,"stimulus":"[A] option 1, [L] option 2, [G] neither","key_press":65,"name":"choice","trial_type":"html-keyboard-response","trial_index":37,"time_elapsed":135953,"internal_node_id":"0.0-37.0","response":"1st","certainty":"high","char":"A","transposition":-1,"order":["shifted","swapped"],"probe_pitches":[12,9,4,12,9,7,4,12,7,2,12,0,7,0,9,7],"shifted_pitches":[12,9,4,12,9,7,4,11,7,2,12,0,7,0,9,7],"swapped_pitches":[12,9,4,12,9,7,4,7,12,2,12,0,7,0,9,7],"shift_direction":-1,"question_num":21,"has_decoy":false,"subject":"S1C1612","sona":"41770","block":1,"time":"2021-09-15T18:11:46.415Z"},{"rt":1039,"stimulus":"[A] option 1, [L] option 2, [G] neither","key_press":76,"name":"choice","trial_type":"html-keyboard-response","trial_index":48,"time_elapsed":160744,"internal_node_id":"0.0-48.0","response":"2nd","certainty":"high","char":"L","transposition":0,"order":["shifted","swapped"],"probe_pitches":[9,5,1,9,1,10,6,2,5,1,0,2,1,8,2,4],"shifted_pitches":[9,5,1,9,1,10,6,3,5,1,0,2,1,8,2,4],"swapped_pitches":[9,5,1,9,1,10,6,5,2,1,0,2,1,8,2,4],"shift_direction":1,"question_num":31,"has_decoy":false,"subject":"S1C1612","sona":"41770","block":1,"time":"2021-09-15T18:11:46.415Z"},{"rt":782.2000000000116,"stimulus":"[A] option 1, [L] option 2, [G] neither","key_press":65,"name":"choice","trial_type":"html-keyboard-response","trial_index":59,"time_elapsed":185431,"internal_node_id":"0.0-59.0","response":"1st","certainty":"high","char":"A","transposition":3,"order":["shifted","swapped"],"probe_pitches":[10,7,2,7,0,5,0,2,10,12,5,0,12,2,7,2],"shifted_pitches":[10,7,2,7,0,5,0,2,11,12,5,0,12,2,7,2],"swapped_pitches":[10,7,2,7,0,5,0,10,2,12,5,0,12,2,7,2],"shift_direction":1,"question_num":41,"has_decoy":false,"subject":"S1C1612","sona":"41770","block":1,"time":"2021-09-15T18:11:46.415Z"},{"rt":1248.1999999999534,"stimulus":"[A] option 1, [L] option 2, [G] neither","key_press":76,"name":"choice","trial_type":"html-keyboard-response","trial_index":70,"time_elapsed":209786,"internal_node_id":"0.0-70.0","response":"2nd","certainty":"high","char":"L","transposition":-3,"order":["shifted","swapped"],"probe_pitches":[8,9,7,2,8,11,9,8,7,2,0,8,0,5,3,10],"shifted_pitches":[8,9,7,2,8,11,9,8,6,2,0,8,0,5,3,10],"swapped_pitches":[8,9,7,2,8,11,9,7,8,2,0,8,0,5,3,10],"shift_direction":-1,"question_num":51,"has_decoy":false,"subject":"S1C1612","sona":"41770","block":1,"time":"2021-09-15T18:11:46.415Z"},{"rt":808,"stimulus":"[A] option 1, [L] option 2, [G] neither","key_press":76,"name":"choice","trial_type":"html-keyboard-response","trial_index":81,"time_elapsed":234055,"internal_node_id":"0.0-81.0","response":"2nd","certainty":"high","char":"L","transposition":-1,"order":["swapped","shifted"],"probe_pitches":[4,2,3,6,3,6,11,2,8,10,1,7,5,0,7,11],"shifted_pitches":[4,2,3,6,3,6,11,2,9,10,1,7,5,0,7,11],"swapped_pitches":[4,2,3,6,3,6,11,8,2,10,1,7,5,0,7,11],"shift_direction":1,"question_num":61,"has_decoy":false,"subject":"S1C1612","sona":"41770","block":1,"time":"2021-09-15T18:11:46.415Z"},{"rt":702.5,"stimulus":"[A] option 1, [L] option 2, [G] neither","key_press":65,"name":"choice","trial_type":"html-keyboard-response","trial_index":92,"time_elapsed":257602,"internal_node_id":"0.0-92.0","response":"1st","certainty":"high","char":"A","transposition":2,"order":["swapped","shifted"],"probe_pitches":[11,7,9,3,2,9,1,8,9,6,12,8,6,0,5,0],"shifted_pitches":[11,7,9,3,2,9,1,8,10,6,12,8,6,0,5,0],"swapped_pitches":[11,7,9,3,2,9,1,9,8,6,12,8,6,0,5,0],"shift_direction":1,"question_num":71,"has_decoy":false,"subject":"S1C1612","sona":"41770","block":1,"time":"2021-09-15T18:11:46.415Z"},{"rt":1875.1999999999534,"stimulus":"[A] option 1, [L] option 2, [G] neither","key_press":65,"name":"choice","trial_type":"html-keyboard-response","trial_index":103,"time_elapsed":283074,"internal_node_id":"0.0-103.0","response":"1st","certainty":"high","char":"A","transposition":-1,"order":["shifted","swapped"],"probe_pitches":[7,11,12,10,3,11,1,9,0,7,6,5,1,7,2,12],"shifted_pitches":[7,11,12,10,3,11,1,8,0,7,6,5,1,7,2,12],"swapped_pitches":[7,11,12,10,3,11,1,0,9,7,6,5,1,7,2,12],"shift_direction":-1,"question_num":81,"has_decoy":false,"subject":"S1C1612","sona":"41770","block":1,"time":"2021-09-15T18:11:46.415Z"},{"rt":551.9000000000233,"stimulus":"[A] option 1, [L] option 2, [G] neither","key_press":76,"name":"choice","trial_type":"html-keyboard-response","trial_index":114,"time_elapsed":306546,"internal_node_id":"0.0-114.0","response":"2nd","certainty":"high","char":"L","transposition":-3,"order":["swapped","shifted"],"probe_pitches":[5,11,6,12,3,11,5,12,1,11,6,12,9,12,5,6],"shifted_pitches":[5,11,6,12,3,11,5,12,2,11,6,12,9,12,5,6],"swapped_pitches":[5,11,6,12,3,11,5,1,12,11,6,12,9,12,5,6],"shift_direction":1,"question_num":91,"has_decoy":false,"subject":"S1C1612","sona":"41770","block":1,"time":"2021-09-15T18:11:46.415Z"},{"rt":6554.400000000023,"stimulus":"[A] option 1, [L] option 2, [G] neither","key_press":76,"name":"choice","trial_type":"html-keyboard-response","trial_index":125,"time_elapsed":336020,"internal_node_id":"0.0-125.0","response":"2nd","certainty":"high","char":"L","transposition":-2,"order":["shifted","swapped"],"probe_pitches":[2,0,7,12,7,5,2,5,0,10,12,2,10,0,2,7],"shifted_pitches":[2,0,7,12,7,5,2,4,0,10,12,2,10,0,2,7],"swapped_pitches":[2,0,7,12,7,5,2,0,5,10,12,2,10,0,2,7],"shift_direction":-1,"question_num":101,"has_decoy":false,"subject":"S1C1612","sona":"41770","block":1,"time":"2021-09-15T18:11:46.415Z"},{"rt":463.19999999995343,"stimulus":"[A] option 1, [L] option 2, [G] neither","key_press":76,"name":"choice","trial_type":"html-keyboard-response","trial_index":136,"time_elapsed":361982,"internal_node_id":"0.0-136.0","response":"2nd","certainty":"high","char":"L","transposition":1,"order":["swapped","shifted"],"probe_pitches":[10,8,10,12,3,12,3,0,5,3,5,3,10,12,8,3],"shifted_pitches":[10,8,10,12,3,12,3,-1,5,3,5,3,10,12,8,3],"swapped_pitches":[10,8,10,12,3,12,3,5,0,3,5,3,10,12,8,3],"shift_direction":-1,"question_num":111,"has_decoy":false,"subject":"S1C1612","sona":"41770","block":1,"time":"2021-09-15T18:11:46.415Z"},{"rt":3050.899999999907,"stimulus":"[A] option 1, [L] option 2, [G] neither","key_press":76,"name":"choice","trial_type":"html-keyboard-response","trial_index":147,"time_elapsed":387632,"internal_node_id":"0.0-147.0","response":"2nd","certainty":"high","char":"L","transposition":1,"order":["swapped","shifted"],"probe_pitches":[3,6,3,0,1,10,6,1,8,2,10,9,10,6,4,9],"shifted_pitches":[3,6,3,0,1,10,6,1,7,2,10,9,10,6,4,9],"swapped_pitches":[3,6,3,0,1,10,6,8,1,2,10,9,10,6,4,9],"shift_direction":-1,"question_num":121,"has_decoy":false,"subject":"S1C1612","sona":"41770","block":1,"time":"2021-09-15T18:11:46.415Z"},{"rt":431.5,"stimulus":"[A] option 1, [L] option 2, [G] neither","key_press":65,"name":"choice","trial_type":"html-keyboard-response","trial_index":158,"time_elapsed":411247,"internal_node_id":"0.0-158.0","response":"1st","certainty":"high","char":"A","transposition":-2,"order":["shifted","swapped"],"probe_pitches":[9,7,8,0,1,6,1,12,3,4,5,0,9,6,9,12],"shifted_pitches":[9,7,8,0,1,6,1,11,3,4,5,0,9,6,9,12],"swapped_pitches":[9,7,8,0,1,6,1,3,12,4,5,0,9,6,9,12],"shift_direction":-1,"question_num":131,"has_decoy":false,"subject":"S1C1612","sona":"41770","block":1,"time":"2021-09-15T18:11:46.415Z"},{"rt":907.5999999999767,"stimulus":"[A] option 1, [L] option 2, [G] neither","key_press":76,"name":"choice","trial_type":"html-keyboard-response","trial_index":169,"time_elapsed":436315,"internal_node_id":"0.0-169.0","response":"2nd","certainty":"high","char":"L","transposition":3,"order":["shifted","swapped"],"probe_pitches":[4,6,4,7,12,2,9,4,0,2,11,8,4,1,9,3],"shifted_pitches":[4,6,4,7,12,2,9,5,0,2,11,8,4,1,9,3],"swapped_pitches":[4,6,4,7,12,2,9,0,4,2,11,8,4,1,9,3],"shift_direction":1,"question_num":141,"has_decoy":false,"subject":"S1C1612","sona":"41770","block":1,"time":"2021-09-15T18:11:46.415Z"},{"rt":1317.0999999999767,"stimulus":"[A] option 1, [L] option 2, [G] neither","key_press":65,"name":"choice","trial_type":"html-keyboard-response","trial_index":180,"time_elapsed":459988,"internal_node_id":"0.0-180.0","response":"1st","certainty":"high","char":"A","transposition":-2,"order":["shifted","swapped"],"probe_pitches":[2,5,0,2,5,12,2,0,7,2,12,7,2,9,12,9],"shifted_pitches":[2,5,0,2,5,12,2,0,8,2,12,7,2,9,12,9],"swapped_pitches":[2,5,0,2,5,12,2,7,0,2,12,7,2,9,12,9],"shift_direction":1,"question_num":151,"has_decoy":false,"subject":"S1C1612","sona":"41770","block":1,"time":"2021-09-15T18:11:46.415Z"},{"rt":1705.3999999999069,"stimulus":"[A] option 1, [L] option 2, [G] neither","key_press":76,"name":"choice","trial_type":"html-keyboard-response","trial_index":191,"time_elapsed":484590,"internal_node_id":"0.0-191.0","response":"2nd","certainty":"high","char":"L","transposition":-1,"order":["shifted","swapped"],"probe_pitches":[0,3,8,0,3,10,0,12,5,0,12,5,10,3,12,8],"shifted_pitches":[0,3,8,0,3,10,0,12,4,0,12,5,10,3,12,8],"swapped_pitches":[0,3,8,0,3,10,0,5,12,0,12,5,10,3,12,8],"shift_direction":-1,"question_num":161,"has_decoy":false,"subject":"S1C1612","sona":"41770","block":1,"time":"2021-09-15T18:11:46.415Z"},{"rt":2238.5999999999767,"stimulus":"[A] option 1, [L] option 2, [G] neither","key_press":65,"name":"choice","trial_type":"html-keyboard-response","trial_index":202,"time_elapsed":510430,"internal_node_id":"0.0-202.0","response":"1st","certainty":"high","char":"A","transposition":-2,"order":["swapped","shifted"],"probe_pitches":[12,6,8,0,6,0,9,5,10,7,11,2,6,1,11,2],"shifted_pitches":[12,6,8,0,6,0,9,4,10,7,11,2,6,1,11,2],"swapped_pitches":[12,6,8,0,6,0,9,10,5,7,11,2,6,1,11,2],"shift_direction":-1,"question_num":171,"has_decoy":false,"subject":"S1C1612","sona":"41770","block":1,"time":"2021-09-15T18:11:46.415Z"},{"rt":757,"stimulus":"[A] option 1, [L] option 2, [G] neither","key_press":76,"name":"choice","trial_type":"html-keyboard-response","trial_index":213,"time_elapsed":535535,"internal_node_id":"0.0-213.0","response":"2nd","certainty":"high","char":"L","transposition":-3,"order":["swapped","shifted"],"probe_pitches":[7,9,7,12,7,12,5,0,12,2,12,9,12,0,2,12],"shifted_pitches":[7,9,7,12,7,12,5,0,13,2,12,9,12,0,2,12],"swapped_pitches":[7,9,7,12,7,12,5,12,0,2,12,9,12,0,2,12],"shift_direction":1,"question_num":181,"has_decoy":false,"subject":"S1C1612","sona":"41770","block":1,"time":"2021-09-15T18:11:46.415Z"},{"rt":1017.8000000000466,"stimulus":"[A] option 1, [L] option 2, [G] neither","key_press":76,"name":"choice","trial_type":"html-keyboard-response","trial_index":224,"time_elapsed":559524,"internal_node_id":"0.0-224.0","response":"2nd","certainty":"high","char":"L","transposition":2,"order":["swapped","shifted"],"probe_pitches":[4,0,7,9,2,9,4,7,9,4,9,0,9,7,12,9],"shifted_pitches":[4,0,7,9,2,9,4,7,10,4,9,0,9,7,12,9],"swapped_pitches":[4,0,7,9,2,9,4,9,7,4,9,0,9,7,12,9],"shift_direction":1,"question_num":191,"has_decoy":false,"subject":"S1C1612","sona":"41770","block":1,"time":"2021-09-15T18:11:46.415Z"}]