[{"rt":316,"stimulus":"[A] option 1, [L] option 2, [G] neither","key_press":76,"name":"choice","trial_type":"html-keyboard-response","trial_index":10,"time_elapsed":23645,"internal_node_id":"0.0-10.0","subject":"S1C1612","sona":"41770","block":6,"time":"2021-09-15T18:58:53.362Z","response":"2nd","certainty":"high","char":"L","transposition":3,"order":["shifted","swapped"],"probe_pitches":[3,4,-3,-2,0,3,4,6,2,4,-2,9,7,4,-2,-3],"shifted_pitches":[3,4,-3,-2,0,3,4,5,2,4,-2,9,7,4,-2,-3],"swapped_pitches":[3,4,-3,-2,0,3,4,2,6,4,-2,9,7,4,-2,-3],"shift_direction":-1,"question_num":1,"has_decoy":false},{"rt":3937.5,"stimulus":"[A] option 1, [L] option 2, [G] neither","key_press":76,"name":"choice","trial_type":"html-keyboard-response","trial_index":21,"time_elapsed":54872,"internal_node_id":"0.0-21.0","subject":"S1C1612","sona":"41770","block":6,"time":"2021-09-15T18:58:53.362Z","response":"2nd","certainty":"high","char":"L","transposition":2,"order":["swapped","shifted"],"probe_pitches":[1,-2,2,8,4,-1,3,9,8,5,-1,4,3,1,-3,8],"shifted_pitches":[1,-2,2,8,4,-1,3,9,7,5,-1,4,3,1,-3,8],"swapped_pitches":[1,-2,2,8,4,-1,3,8,9,5,-1,4,3,1,-3,8],"shift_direction":-1,"question_num":11,"has_decoy":false},{"rt":984.3999999999069,"stimulus":"[A] option 1, [L] option 2, [G] neither","key_press":76,"name":"choice","trial_type":"html-keyboard-response","trial_index":32,"time_elapsed":80367,"internal_node_id":"0.0-32.0","subject":"S1C1612","sona":"41770","block":6,"time":"2021-09-15T18:58:53.362Z","response":"2nd","certainty":"high","char":"L","transposition":0,"order":["shifted","swapped"],"probe_pitches":[0,5,7,10,2,10,5,2,7,0,12,5,10,12,10,5],"shifted_pitches":[0,5,7,10,2,10,5,2,6,0,12,5,10,12,10,5],"swapped_pitches":[0,5,7,10,2,10,5,7,2,0,12,5,10,12,10,5],"shift_direction":-1,"question_num":21,"has_decoy":false},{"rt":4913.0999999996275,"stimulus":"[A] option 1, [L] option 2, [G] neither","key_press":76,"name":"choice","trial_type":"html-keyboard-response","trial_index":43,"time_elapsed":111940,"internal_node_id":"0.0-43.0","subject":"S1C1612","sona":"41770","block":6,"time":"2021-09-15T18:58:53.362Z","response":"2nd","certainty":"high","char":"L","transposition":-2,"order":["swapped","shifted"],"probe_pitches":[12,10,5,0,5,0,10,7,12,10,12,0,3,0,7,5],"shifted_pitches":[12,10,5,0,5,0,10,7,13,10,12,0,3,0,7,5],"swapped_pitches":[12,10,5,0,5,0,10,12,7,10,12,0,3,0,7,5],"shift_direction":1,"question_num":31,"has_decoy":false},{"rt":2632.100000000093,"stimulus":"[A] option 1, [L] option 2, [G] neither","key_press":76,"name":"choice","trial_type":"html-keyboard-response","trial_index":54,"time_elapsed":140503,"internal_node_id":"0.0-54.0","subject":"S1C1612","sona":"41770","block":6,"time":"2021-09-15T18:58:53.362Z","response":"2nd","certainty":"high","char":"L","transposition":2,"order":["shifted","swapped"],"probe_pitches":[9,7,4,7,4,2,12,0,4,9,2,9,0,7,9,0],"shifted_pitches":[9,7,4,7,4,2,12,1,4,9,2,9,0,7,9,0],"swapped_pitches":[9,7,4,7,4,2,12,4,0,9,2,9,0,7,9,0],"shift_direction":1,"question_num":41,"has_decoy":false},{"rt":654.8999999999069,"stimulus":"[A] option 1, [L] option 2, [G] neither","key_press":76,"name":"choice","trial_type":"html-keyboard-response","trial_index":65,"time_elapsed":169487,"internal_node_id":"0.0-65.0","subject":"S1C1612","sona":"41770","block":6,"time":"2021-09-15T18:58:53.362Z","response":"2nd","certainty":"high","char":"L","transposition":-3,"order":["swapped","shifted"],"probe_pitches":[8,9,2,0,-1,4,7,2,4,7,9,-2,0,-3,0,2],"shifted_pitches":[8,9,2,0,-1,4,7,3,4,7,9,-2,0,-3,0,2],"swapped_pitches":[8,9,2,0,-1,4,7,4,2,7,9,-2,0,-3,0,2],"shift_direction":1,"question_num":51,"has_decoy":false},{"rt":635.2999999998137,"stimulus":"[A] option 1, [L] option 2, [G] neither","key_press":76,"name":"choice","trial_type":"html-keyboard-response","trial_index":76,"time_elapsed":192438,"internal_node_id":"0.0-76.0","subject":"S1C1612","sona":"41770","block":6,"time":"2021-09-15T18:58:53.362Z","response":"2nd","certainty":"high","char":"L","transposition":0,"order":["shifted","swapped"],"probe_pitches":[6,0,2,8,9,2,-2,5,3,7,8,-1,1,-1,5,1],"shifted_pitches":[6,0,2,8,9,2,-2,4,3,7,8,-1,1,-1,5,1],"swapped_pitches":[6,0,2,8,9,2,-2,3,5,7,8,-1,1,-1,5,1],"shift_direction":-1,"question_num":61,"has_decoy":false},{"rt":1390.2000000001863,"stimulus":"[A] option 1, [L] option 2, [G] neither","key_press":76,"name":"choice","trial_type":"html-keyboard-response","trial_index":87,"time_elapsed":216260,"internal_node_id":"0.0-87.0","subject":"S1C1612","sona":"41770","block":6,"time":"2021-09-15T18:58:53.362Z","response":"2nd","certainty":"high","char":"L","transposition":1,"order":["shifted","swapped"],"probe_pitches":[7,10,7,0,2,10,5,7,12,2,0,5,2,7,10,2],"shifted_pitches":[7,10,7,0,2,10,5,7,13,2,0,5,2,7,10,2],"swapped_pitches":[7,10,7,0,2,10,5,12,7,2,0,5,2,7,10,2],"shift_direction":1,"question_num":71,"has_decoy":false},{"rt":1792.5,"stimulus":"[A] option 1, [L] option 2, [G] neither","key_press":65,"name":"choice","trial_type":"html-keyboard-response","trial_index":98,"time_elapsed":240594,"internal_node_id":"0.0-98.0","subject":"S1C1612","sona":"41770","block":6,"time":"2021-09-15T18:58:53.362Z","response":"1st","certainty":"high","char":"A","transposition":-3,"order":["shifted","swapped"],"probe_pitches":[5,9,2,5,7,0,2,9,5,2,12,5,12,7,12,7],"shifted_pitches":[5,9,2,5,7,0,2,9,4,2,12,5,12,7,12,7],"swapped_pitches":[5,9,2,5,7,0,2,5,9,2,12,5,12,7,12,7],"shift_direction":-1,"question_num":81,"has_decoy":false},{"rt":1669.2000000001863,"stimulus":"[A] option 1, [L] option 2, [G] neither","key_press":76,"name":"choice","trial_type":"html-keyboard-response","trial_index":109,"time_elapsed":264560,"internal_node_id":"0.0-109.0","subject":"S1C1612","sona":"41770","block":6,"time":"2021-09-15T18:58:53.362Z","response":"2nd","certainty":"high","char":"L","transposition":-2,"order":["swapped","shifted"],"probe_pitches":[7,2,7,9,0,7,0,9,12,2,4,2,9,0,7,9],"shifted_pitches":[7,2,7,9,0,7,0,8,12,2,4,2,9,0,7,9],"swapped_pitches":[7,2,7,9,0,7,0,12,9,2,4,2,9,0,7,9],"shift_direction":-1,"question_num":91,"has_decoy":false},{"rt":1632.8000000002794,"stimulus":"[A] option 1, [L] option 2, [G] neither","key_press":76,"name":"choice","trial_type":"html-keyboard-response","trial_index":120,"time_elapsed":288559,"internal_node_id":"0.0-120.0","subject":"S1C1612","sona":"41770","block":6,"time":"2021-09-15T18:58:53.362Z","response":"2nd","certainty":"high","char":"L","transposition":-3,"order":["swapped","shifted"],"probe_pitches":[5,10,8,0,3,5,8,3,0,12,0,8,10,12,8,0],"shifted_pitches":[5,10,8,0,3,5,8,4,0,12,0,8,10,12,8,0],"swapped_pitches":[5,10,8,0,3,5,8,0,3,12,0,8,10,12,8,0],"shift_direction":1,"question_num":101,"has_decoy":false},{"rt":2083,"stimulus":"[A] option 1, [L] option 2, [G] neither","key_press":76,"name":"choice","trial_type":"html-keyboard-response","trial_index":131,"time_elapsed":313693,"internal_node_id":"0.0-131.0","subject":"S1C1612","sona":"41770","block":6,"time":"2021-09-15T18:58:53.362Z","response":"2nd","certainty":"high","char":"L","transposition":-2,"order":["swapped","shifted"],"probe_pitches":[0,-3,0,3,2,1,9,7,4,-2,4,0,9,6,1,-3],"shifted_pitches":[0,-3,0,3,2,1,9,8,4,-2,4,0,9,6,1,-3],"swapped_pitches":[0,-3,0,3,2,1,9,4,7,-2,4,0,9,6,1,-3],"shift_direction":1,"question_num":111,"has_decoy":false},{"rt":1411.8999999999069,"stimulus":"[A] option 1, [L] option 2, [G] neither","key_press":76,"name":"choice","trial_type":"html-keyboard-response","trial_index":142,"time_elapsed":339236,"internal_node_id":"0.0-142.0","subject":"S1C1612","sona":"41770","block":6,"time":"2021-09-15T18:58:53.362Z","response":"2nd","certainty":"high","char":"L","transposition":1,"order":["shifted","swapped"],"probe_pitches":[3,0,4,2,8,-1,-2,-1,7,9,-3,8,2,-1,-3,9],"shifted_pitches":[3,0,4,2,8,-1,-2,-1,6,9,-3,8,2,-1,-3,9],"swapped_pitches":[3,0,4,2,8,-1,-2,7,-1,9,-3,8,2,-1,-3,9],"shift_direction":-1,"question_num":121,"has_decoy":false},{"rt":3601,"stimulus":"[A] option 1, [L] option 2, [G] neither","key_press":76,"name":"choice","trial_type":"html-keyboard-response","trial_index":153,"time_elapsed":366620,"internal_node_id":"0.0-153.0","subject":"S1C1612","sona":"41770","block":6,"time":"2021-09-15T18:58:53.362Z","response":"2nd","certainty":"high","char":"L","transposition":-1,"order":["swapped","shifted"],"probe_pitches":[9,5,7,0,2,9,5,0,2,12,7,9,7,5,0,5],"shifted_pitches":[9,5,7,0,2,9,5,0,1,12,7,9,7,5,0,5],"swapped_pitches":[9,5,7,0,2,9,5,2,0,12,7,9,7,5,0,5],"shift_direction":-1,"question_num":131,"has_decoy":false},{"rt":3831.6999999997206,"stimulus":"[A] option 1, [L] option 2, [G] neither","key_press":65,"name":"choice","trial_type":"html-keyboard-response","trial_index":164,"time_elapsed":392975,"internal_node_id":"0.0-164.0","subject":"S1C1612","sona":"41770","block":6,"time":"2021-09-15T18:58:53.362Z","response":"1st","certainty":"high","char":"A","transposition":-1,"order":["shifted","swapped"],"probe_pitches":[-2,4,8,2,5,6,-1,0,-2,-1,-3,4,5,7,0,-1],"shifted_pitches":[-2,4,8,2,5,6,-1,1,-2,-1,-3,4,5,7,0,-1],"swapped_pitches":[-2,4,8,2,5,6,-1,-2,0,-1,-3,4,5,7,0,-1],"shift_direction":1,"question_num":141,"has_decoy":false},{"rt":1932.7000000001863,"stimulus":"[A] option 1, [L] option 2, [G] neither","key_press":76,"name":"choice","trial_type":"html-keyboard-response","trial_index":175,"time_elapsed":417327,"internal_node_id":"0.0-175.0","subject":"S1C1612","sona":"41770","block":6,"time":"2021-09-15T18:58:53.362Z","response":"2nd","certainty":"high","char":"L","transposition":3,"order":["swapped","shifted"],"probe_pitches":[3,5,7,5,0,5,3,0,10,7,3,7,0,7,12,7],"shifted_pitches":[3,5,7,5,0,5,3,1,10,7,3,7,0,7,12,7],"swapped_pitches":[3,5,7,5,0,5,3,10,0,7,3,7,0,7,12,7],"shift_direction":1,"question_num":151,"has_decoy":false},{"rt":1830.3999999999069,"stimulus":"[A] option 1, [L] option 2, [G] neither","key_press":76,"name":"choice","trial_type":"html-keyboard-response","trial_index":186,"time_elapsed":444207,"internal_node_id":"0.0-186.0","subject":"S1C1612","sona":"41770","block":6,"time":"2021-09-15T18:58:53.362Z","response":"2nd","certainty":"high","char":"L","transposition":-1,"order":["shifted","swapped"],"probe_pitches":[0,5,10,3,12,8,0,10,5,8,5,0,5,0,5,10],"shifted_pitches":[0,5,10,3,12,8,0,9,5,8,5,0,5,0,5,10],"swapped_pitches":[0,5,10,3,12,8,0,5,10,8,5,0,5,0,5,10],"shift_direction":-1,"question_num":161,"has_decoy":false},{"rt":602.8999999999069,"stimulus":"[A] option 1, [L] option 2, [G] neither","key_press":76,"name":"choice","trial_type":"html-keyboard-response","trial_index":197,"time_elapsed":470250,"internal_node_id":"0.0-197.0","subject":"S1C1612","sona":"41770","block":6,"time":"2021-09-15T18:58:53.362Z","response":"2nd","certainty":"high","char":"L","transposition":-3,"order":["swapped","shifted"],"probe_pitches":[0,3,6,-1,6,-3,0,6,3,4,3,9,5,1,4,-2],"shifted_pitches":[0,3,6,-1,6,-3,0,6,2,4,3,9,5,1,4,-2],"swapped_pitches":[0,3,6,-1,6,-3,0,3,6,4,3,9,5,1,4,-2],"shift_direction":-1,"question_num":171,"has_decoy":false},{"rt":1365.1000000000931,"stimulus":"[A] option 1, [L] option 2, [G] neither","key_press":76,"name":"choice","trial_type":"html-keyboard-response","trial_index":208,"time_elapsed":494394,"internal_node_id":"0.0-208.0","subject":"S1C1612","sona":"41770","block":6,"time":"2021-09-15T18:58:53.362Z","response":"2nd","certainty":"high","char":"L","transposition":-1,"order":["shifted","swapped"],"probe_pitches":[1,6,9,4,0,5,3,0,-2,5,3,7,0,6,3,5],"shifted_pitches":[1,6,9,4,0,5,3,0,-1,5,3,7,0,6,3,5],"swapped_pitches":[1,6,9,4,0,5,3,-2,0,5,3,7,0,6,3,5],"shift_direction":1,"question_num":181,"has_decoy":false},{"rt":1671.7999999998137,"stimulus":"[A] option 1, [L] option 2, [G] neither","key_press":76,"name":"choice","trial_type":"html-keyboard-response","trial_index":219,"time_elapsed":518446,"internal_node_id":"0.0-219.0","subject":"S1C1612","sona":"41770","block":6,"time":"2021-09-15T18:58:53.362Z","response":"2nd","certainty":"high","char":"L","transposition":-2,"order":["swapped","shifted"],"probe_pitches":[4,9,8,4,-2,7,9,-2,-1,3,9,4,-2,3,-1,1],"shifted_pitches":[4,9,8,4,-2,7,9,-2,0,3,9,4,-2,3,-1,1],"swapped_pitches":[4,9,8,4,-2,7,9,-1,-2,3,9,4,-2,3,-1,1],"shift_direction":1,"question_num":191,"has_decoy":false}]