[{"rt":2010.1999999955297,"stimulus":"[A] option 1, [L] option 2, [G] neither","key_press":76,"name":"choice","trial_type":"html-keyboard-response","trial_index":10,"time_elapsed":26526,"internal_node_id":"0.0-10.0","subject":"S1C1220","sona":"41854","block":2,"time":"2021-09-17T01:03:52.189Z","response":"2nd","certainty":"high","char":"L","transposition":-2,"order":["shifted","swapped"],"probe_pitches":[5,3,10,8,3,5,1,13,5,3,5,10],"shifted_pitches":[5,3,10,8,3,6,1,13,5,3,5,10],"swapped_pitches":[5,3,10,8,3,1,5,13,5,3,5,10],"shift_direction":1,"question_num":1,"has_decoy":false},{"rt":1050.7000000029802,"stimulus":"[A] option 1, [L] option 2, [G] neither","key_press":65,"name":"choice","trial_type":"html-keyboard-response","trial_index":21,"time_elapsed":47395,"internal_node_id":"0.0-21.0","subject":"S1C1220","sona":"41854","block":2,"time":"2021-09-17T01:03:52.189Z","response":"1st","certainty":"high","char":"A","transposition":-3,"order":["shifted","swapped"],"probe_pitches":[6,10,8,3,8,10,3,13,10,1,6,10],"shifted_pitches":[6,10,8,3,8,11,3,13,10,1,6,10],"swapped_pitches":[6,10,8,3,8,3,10,13,10,1,6,10],"shift_direction":1,"question_num":11,"has_decoy":false},{"rt":5238.10000000149,"stimulus":"[A] option 1, [L] option 2, [G] neither","key_press":76,"name":"choice","trial_type":"html-keyboard-response","trial_index":32,"time_elapsed":71993,"internal_node_id":"0.0-32.0","subject":"S1C1220","sona":"41854","block":2,"time":"2021-09-17T01:03:52.189Z","response":"2nd","certainty":"high","char":"L","transposition":3,"order":["swapped","shifted"],"probe_pitches":[4,8,1,6,11,13,4,11,8,1,11,1],"shifted_pitches":[4,8,1,6,11,13,5,11,8,1,11,1],"swapped_pitches":[4,8,1,6,11,4,13,11,8,1,11,1],"shift_direction":1,"question_num":21,"has_decoy":false},{"rt":4616.5,"stimulus":"[A] option 1, [L] option 2, [G] neither","key_press":76,"name":"choice","trial_type":"html-keyboard-response","trial_index":43,"time_elapsed":96252,"internal_node_id":"0.0-43.0","subject":"S1C1220","sona":"41854","block":2,"time":"2021-09-17T01:03:52.189Z","response":"2nd","certainty":"high","char":"L","transposition":-1,"order":["swapped","shifted"],"probe_pitches":[0,2,8,5,10,3,8,10,2,6,-1,3],"shifted_pitches":[0,2,8,5,10,4,8,10,2,6,-1,3],"swapped_pitches":[0,2,8,5,10,8,3,10,2,6,-1,3],"shift_direction":1,"question_num":31,"has_decoy":false},{"rt":1255.3000000044703,"stimulus":"[A] option 1, [L] option 2, [G] neither","key_press":76,"name":"choice","trial_type":"html-keyboard-response","trial_index":54,"time_elapsed":116926,"internal_node_id":"0.0-54.0","subject":"S1C1220","sona":"41854","block":2,"time":"2021-09-17T01:03:52.189Z","response":"2nd","certainty":"high","char":"L","transposition":3,"order":["shifted","swapped"],"probe_pitches":[10,8,10,4,6,1,5,0,1,4,-1,0],"shifted_pitches":[10,8,10,4,6,2,5,0,1,4,-1,0],"swapped_pitches":[10,8,10,4,6,5,1,0,1,4,-1,0],"shift_direction":1,"question_num":41,"has_decoy":false},{"rt":963.2000000029802,"stimulus":"[A] option 1, [L] option 2, [G] neither","key_press":76,"name":"choice","trial_type":"html-keyboard-response","trial_index":65,"time_elapsed":136748,"internal_node_id":"0.0-65.0","subject":"S1C1220","sona":"41854","block":2,"time":"2021-09-17T01:03:52.189Z","response":"2nd","certainty":"high","char":"L","transposition":2,"order":["shifted","swapped"],"probe_pitches":[4,9,6,11,9,11,6,1,6,1,4,13],"shifted_pitches":[4,9,6,11,9,12,6,1,6,1,4,13],"swapped_pitches":[4,9,6,11,9,6,11,1,6,1,4,13],"shift_direction":1,"question_num":51,"has_decoy":false},{"rt":900.5,"stimulus":"[A] option 1, [L] option 2, [G] neither","key_press":76,"name":"choice","trial_type":"html-keyboard-response","trial_index":76,"time_elapsed":156966,"internal_node_id":"0.0-76.0","subject":"S1C1220","sona":"41854","block":2,"time":"2021-09-17T01:03:52.189Z","response":"2nd","certainty":"high","char":"L","transposition":-2,"order":["shifted","swapped"],"probe_pitches":[8,9,3,1,3,9,5,2,8,-2,3,8],"shifted_pitches":[8,9,3,1,3,9,6,2,8,-2,3,8],"swapped_pitches":[8,9,3,1,3,5,9,2,8,-2,3,8],"shift_direction":1,"question_num":61,"has_decoy":false},{"rt":869.5,"stimulus":"[A] option 1, [L] option 2, [G] neither","key_press":65,"name":"choice","trial_type":"html-keyboard-response","trial_index":87,"time_elapsed":178881,"internal_node_id":"0.0-87.0","subject":"S1C1220","sona":"41854","block":2,"time":"2021-09-17T01:03:52.189Z","response":"1st","certainty":"high","char":"A","transposition":-1,"order":["shifted","swapped"],"probe_pitches":[4,1,6,1,4,11,6,4,13,1,9,11],"shifted_pitches":[4,1,6,1,4,11,5,4,13,1,9,11],"swapped_pitches":[4,1,6,1,4,6,11,4,13,1,9,11],"shift_direction":-1,"question_num":71,"has_decoy":false},{"rt":1763.1999999955297,"stimulus":"[A] option 1, [L] option 2, [G] neither","key_press":65,"name":"choice","trial_type":"html-keyboard-response","trial_index":98,"time_elapsed":199444,"internal_node_id":"0.0-98.0","subject":"S1C1220","sona":"41854","block":2,"time":"2021-09-17T01:03:52.189Z","response":"1st","certainty":"high","char":"A","transposition":2,"order":["swapped","shifted"],"probe_pitches":[5,9,6,4,0,7,-2,2,3,0,3,1],"shifted_pitches":[5,9,6,4,0,8,-2,2,3,0,3,1],"swapped_pitches":[5,9,6,4,0,-2,7,2,3,0,3,1],"shift_direction":1,"question_num":81,"has_decoy":false},{"rt":715.6999999955297,"stimulus":"[A] option 1, [L] option 2, [G] neither","key_press":65,"name":"choice","trial_type":"html-keyboard-response","trial_index":109,"time_elapsed":224288,"internal_node_id":"0.0-109.0","subject":"S1C1220","sona":"41854","block":2,"time":"2021-09-17T01:03:52.189Z","response":"1st","certainty":"high","char":"A","transposition":-1,"order":["swapped","shifted"],"probe_pitches":[-1,1,-2,0,2,7,4,0,8,-2,8,0],"shifted_pitches":[-1,1,-2,0,2,7,3,0,8,-2,8,0],"swapped_pitches":[-1,1,-2,0,2,4,7,0,8,-2,8,0],"shift_direction":-1,"question_num":91,"has_decoy":false},{"rt":1339.1000000014901,"stimulus":"[A] option 1, [L] option 2, [G] neither","key_press":76,"name":"choice","trial_type":"html-keyboard-response","trial_index":120,"time_elapsed":244553,"internal_node_id":"0.0-120.0","subject":"S1C1220","sona":"41854","block":2,"time":"2021-09-17T01:03:52.189Z","response":"2nd","certainty":"high","char":"L","transposition":1,"order":["shifted","swapped"],"probe_pitches":[4,6,7,6,3,1,6,8,6,1,2,3],"shifted_pitches":[4,6,7,6,3,0,6,8,6,1,2,3],"swapped_pitches":[4,6,7,6,3,6,1,8,6,1,2,3],"shift_direction":-1,"question_num":101,"has_decoy":false},{"rt":1204.1999999955297,"stimulus":"[A] option 1, [L] option 2, [G] neither","key_press":76,"name":"choice","trial_type":"html-keyboard-response","trial_index":131,"time_elapsed":268830,"internal_node_id":"0.0-131.0","subject":"S1C1220","sona":"41854","block":2,"time":"2021-09-17T01:03:52.189Z","response":"2nd","certainty":"high","char":"L","transposition":-3,"order":["shifted","swapped"],"probe_pitches":[-2,4,10,9,10,6,9,4,1,4,0,7],"shifted_pitches":[-2,4,10,9,10,5,9,4,1,4,0,7],"swapped_pitches":[-2,4,10,9,10,9,6,4,1,4,0,7],"shift_direction":-1,"question_num":111,"has_decoy":false},{"rt":1081.2999999970198,"stimulus":"[A] option 1, [L] option 2, [G] neither","key_press":65,"name":"choice","trial_type":"html-keyboard-response","trial_index":142,"time_elapsed":289616,"internal_node_id":"0.0-142.0","subject":"S1C1220","sona":"41854","block":2,"time":"2021-09-17T01:03:52.189Z","response":"1st","certainty":"high","char":"A","transposition":-2,"order":["swapped","shifted"],"probe_pitches":[1,3,1,6,8,13,11,1,8,6,13,8],"shifted_pitches":[1,3,1,6,8,13,10,1,8,6,13,8],"swapped_pitches":[1,3,1,6,8,11,13,1,8,6,13,8],"shift_direction":-1,"question_num":121,"has_decoy":false},{"rt":1826.3999999985099,"stimulus":"[A] option 1, [L] option 2, [G] neither","key_press":76,"name":"choice","trial_type":"html-keyboard-response","trial_index":153,"time_elapsed":309887,"internal_node_id":"0.0-153.0","subject":"S1C1220","sona":"41854","block":2,"time":"2021-09-17T01:03:52.189Z","response":"2nd","certainty":"high","char":"L","transposition":0,"order":["swapped","shifted"],"probe_pitches":[13,8,11,8,13,11,6,1,11,1,11,4],"shifted_pitches":[13,8,11,8,13,11,5,1,11,1,11,4],"swapped_pitches":[13,8,11,8,13,6,11,1,11,1,11,4],"shift_direction":-1,"question_num":131,"has_decoy":false},{"rt":1386.7999999970198,"stimulus":"[A] option 1, [L] option 2, [G] neither","key_press":76,"name":"choice","trial_type":"html-keyboard-response","trial_index":164,"time_elapsed":347463,"internal_node_id":"0.0-164.0","subject":"S1C1220","sona":"41854","block":2,"time":"2021-09-17T01:03:52.189Z","response":"2nd","certainty":"high","char":"L","transposition":-3,"order":["shifted","swapped"],"probe_pitches":[1,6,8,6,3,1,11,6,3,1,11,3],"shifted_pitches":[1,6,8,6,3,0,11,6,3,1,11,3],"swapped_pitches":[1,6,8,6,3,11,1,6,3,1,11,3],"shift_direction":-1,"question_num":141,"has_decoy":false},{"rt":1037.1000000014901,"stimulus":"[A] option 1, [L] option 2, [G] neither","key_press":76,"name":"choice","trial_type":"html-keyboard-response","trial_index":175,"time_elapsed":371076,"internal_node_id":"0.0-175.0","subject":"S1C1220","sona":"41854","block":2,"time":"2021-09-17T01:03:52.189Z","response":"2nd","certainty":"high","char":"L","transposition":0,"order":["shifted","swapped"],"probe_pitches":[-1,1,8,6,3,-2,8,6,0,-1,0,10],"shifted_pitches":[-1,1,8,6,3,-2,7,6,0,-1,0,10],"swapped_pitches":[-1,1,8,6,3,8,-2,6,0,-1,0,10],"shift_direction":-1,"question_num":151,"has_decoy":false},{"rt":467.8999999985099,"stimulus":"[A] option 1, [L] option 2, [G] neither","key_press":76,"name":"choice","trial_type":"html-keyboard-response","trial_index":186,"time_elapsed":394111,"internal_node_id":"0.0-186.0","subject":"S1C1220","sona":"41854","block":2,"time":"2021-09-17T01:03:52.189Z","response":"2nd","certainty":"high","char":"L","transposition":-1,"order":["swapped","shifted"],"probe_pitches":[10,8,5,13,8,3,10,8,3,8,10,3],"shifted_pitches":[10,8,5,13,8,4,10,8,3,8,10,3],"swapped_pitches":[10,8,5,13,8,10,3,8,3,8,10,3],"shift_direction":1,"question_num":161,"has_decoy":false},{"rt":1176.1000000014901,"stimulus":"[A] option 1, [L] option 2, [G] neither","key_press":65,"name":"choice","trial_type":"html-keyboard-response","trial_index":197,"time_elapsed":421187,"internal_node_id":"0.0-197.0","subject":"S1C1220","sona":"41854","block":2,"time":"2021-09-17T01:03:52.189Z","response":"1st","certainty":"high","char":"A","transposition":1,"order":["swapped","shifted"],"probe_pitches":[10,13,6,3,6,1,8,6,1,10,1,13],"shifted_pitches":[10,13,6,3,6,1,7,6,1,10,1,13],"swapped_pitches":[10,13,6,3,6,8,1,6,1,10,1,13],"shift_direction":-1,"question_num":171,"has_decoy":false},{"rt":1831.0999999940395,"stimulus":"[A] option 1, [L] option 2, [G] neither","key_press":65,"name":"choice","trial_type":"html-keyboard-response","trial_index":208,"time_elapsed":448268,"internal_node_id":"0.0-208.0","subject":"S1C1220","sona":"41854","block":2,"time":"2021-09-17T01:03:52.189Z","response":"1st","certainty":"high","char":"A","transposition":-2,"order":["swapped","shifted"],"probe_pitches":[-1,4,10,2,-2,5,2,10,0,3,8,0],"shifted_pitches":[-1,4,10,2,-2,5,1,10,0,3,8,0],"swapped_pitches":[-1,4,10,2,-2,2,5,10,0,3,8,0],"shift_direction":-1,"question_num":181,"has_decoy":false},{"rt":1306,"stimulus":"[A] option 1, [L] option 2, [G] neither","key_press":76,"name":"choice","trial_type":"html-keyboard-response","trial_index":219,"time_elapsed":479583,"internal_node_id":"0.0-219.0","subject":"S1C1220","sona":"41854","block":2,"time":"2021-09-17T01:03:52.189Z","response":"2nd","certainty":"high","char":"L","transposition":-3,"order":["swapped","shifted"],"probe_pitches":[10,8,5,7,1,3,8,4,10,2,5,6],"shifted_pitches":[10,8,5,7,1,3,9,4,10,2,5,6],"swapped_pitches":[10,8,5,7,1,8,3,4,10,2,5,6],"shift_direction":1,"question_num":191,"has_decoy":false}]