[{"rt":9484.70000000298,"stimulus":"[A] option 1, [L] option 2, [G] neither","key_press":65,"name":"choice","trial_type":"html-keyboard-response","trial_index":15,"time_elapsed":120102,"internal_node_id":"0.0-15.0","response":"1st","certainty":"high","char":"A","transposition":-2,"order":["swapped","shifted"],"probe_pitches":[2,3,6,7,9,4,0,7,2,7,9,3],"shifted_pitches":[2,3,6,7,9,5,0,7,2,7,9,3],"swapped_pitches":[2,3,6,7,9,0,4,7,2,7,9,3],"shift_direction":1,"question_num":1,"has_decoy":false,"subject":"S1C1220","sona":"41854","block":1,"time":"2021-09-17T00:55:46.602Z"},{"rt":3712.6999999955297,"stimulus":"[A] option 1, [L] option 2, [G] neither","key_press":65,"name":"choice","trial_type":"html-keyboard-response","trial_index":26,"time_elapsed":144746,"internal_node_id":"0.0-26.0","response":"1st","certainty":"high","char":"A","transposition":3,"order":["swapped","shifted"],"probe_pitches":[-3,1,3,8,1,-1,5,6,9,7,1,5],"shifted_pitches":[-3,1,3,8,1,0,5,6,9,7,1,5],"swapped_pitches":[-3,1,3,8,1,5,-1,6,9,7,1,5],"shift_direction":1,"question_num":11,"has_decoy":false,"subject":"S1C1220","sona":"41854","block":1,"time":"2021-09-17T00:55:46.602Z"},{"rt":2642.1999999955297,"stimulus":"[A] option 1, [L] option 2, [G] neither","key_press":76,"name":"choice","trial_type":"html-keyboard-response","trial_index":37,"time_elapsed":168475,"internal_node_id":"0.0-37.0","response":"2nd","certainty":"high","char":"L","transposition":-2,"order":["shifted","swapped"],"probe_pitches":[4,5,2,9,1,8,6,3,-1,5,1,5],"shifted_pitches":[4,5,2,9,1,8,7,3,-1,5,1,5],"swapped_pitches":[4,5,2,9,1,6,8,3,-1,5,1,5],"shift_direction":1,"question_num":21,"has_decoy":false,"subject":"S1C1220","sona":"41854","block":1,"time":"2021-09-17T00:55:46.602Z"},{"rt":1787.4000000059605,"stimulus":"[A] option 1, [L] option 2, [G] neither","key_press":65,"name":"choice","trial_type":"html-keyboard-response","trial_index":48,"time_elapsed":190034,"internal_node_id":"0.0-48.0","response":"1st","certainty":"high","char":"A","transposition":1,"order":["swapped","shifted"],"probe_pitches":[2,-3,-1,4,-3,-1,7,4,7,-1,-3,-1],"shifted_pitches":[2,-3,-1,4,-3,-1,6,4,7,-1,-3,-1],"swapped_pitches":[2,-3,-1,4,-3,7,-1,4,7,-1,-3,-1],"shift_direction":-1,"question_num":31,"has_decoy":false,"subject":"S1C1220","sona":"41854","block":1,"time":"2021-09-17T00:55:46.602Z"},{"rt":1459.5,"stimulus":"[A] option 1, [L] option 2, [G] neither","key_press":76,"name":"choice","trial_type":"html-keyboard-response","trial_index":59,"time_elapsed":211516,"internal_node_id":"0.0-59.0","response":"2nd","certainty":"high","char":"L","transposition":-3,"order":["shifted","swapped"],"probe_pitches":[4,7,0,3,7,4,1,-1,7,9,6,5],"shifted_pitches":[4,7,0,3,7,4,2,-1,7,9,6,5],"swapped_pitches":[4,7,0,3,7,1,4,-1,7,9,6,5],"shift_direction":1,"question_num":41,"has_decoy":false,"subject":"S1C1220","sona":"41854","block":1,"time":"2021-09-17T00:55:46.602Z"},{"rt":1511.6999999955297,"stimulus":"[A] option 1, [L] option 2, [G] neither","key_press":76,"name":"choice","trial_type":"html-keyboard-response","trial_index":70,"time_elapsed":232463,"internal_node_id":"0.0-70.0","response":"2nd","certainty":"high","char":"L","transposition":-1,"order":["swapped","shifted"],"probe_pitches":[5,0,-3,0,7,0,2,7,5,-3,5,9],"shifted_pitches":[5,0,-3,0,7,1,2,7,5,-3,5,9],"swapped_pitches":[5,0,-3,0,7,2,0,7,5,-3,5,9],"shift_direction":1,"question_num":51,"has_decoy":false,"subject":"S1C1220","sona":"41854","block":1,"time":"2021-09-17T00:55:46.602Z"},{"rt":1982.0999999940395,"stimulus":"[A] option 1, [L] option 2, [G] neither","key_press":65,"name":"choice","trial_type":"html-keyboard-response","trial_index":81,"time_elapsed":253636,"internal_node_id":"0.0-81.0","response":"1st","certainty":"high","char":"A","transposition":-1,"order":["shifted","swapped"],"probe_pitches":[6,4,9,6,9,4,6,2,4,-3,4,-1],"shifted_pitches":[6,4,9,6,9,4,7,2,4,-3,4,-1],"swapped_pitches":[6,4,9,6,9,6,4,2,4,-3,4,-1],"shift_direction":1,"question_num":61,"has_decoy":false,"subject":"S1C1220","sona":"41854","block":1,"time":"2021-09-17T00:55:46.602Z"},{"rt":1086.6000000014901,"stimulus":"[A] option 1, [L] option 2, [G] neither","key_press":76,"name":"choice","trial_type":"html-keyboard-response","trial_index":92,"time_elapsed":274245,"internal_node_id":"0.0-92.0","response":"2nd","certainty":"high","char":"L","transposition":1,"order":["swapped","shifted"],"probe_pitches":[-2,-3,0,5,-3,-2,4,3,7,1,3,5],"shifted_pitches":[-2,-3,0,5,-3,-1,4,3,7,1,3,5],"swapped_pitches":[-2,-3,0,5,-3,4,-2,3,7,1,3,5],"shift_direction":1,"question_num":71,"has_decoy":false,"subject":"S1C1220","sona":"41854","block":1,"time":"2021-09-17T00:55:46.602Z"},{"rt":1489.1999999955297,"stimulus":"[A] option 1, [L] option 2, [G] neither","key_press":76,"name":"choice","trial_type":"html-keyboard-response","trial_index":103,"time_elapsed":295228,"internal_node_id":"0.0-103.0","response":"2nd","certainty":"high","char":"L","transposition":-2,"order":["swapped","shifted"],"probe_pitches":[5,2,7,0,5,7,0,9,5,7,5,2],"shifted_pitches":[5,2,7,0,5,6,0,9,5,7,5,2],"swapped_pitches":[5,2,7,0,5,0,7,9,5,7,5,2],"shift_direction":-1,"question_num":81,"has_decoy":false,"subject":"S1C1220","sona":"41854","block":1,"time":"2021-09-17T00:55:46.602Z"},{"rt":1182.5,"stimulus":"[A] option 1, [L] option 2, [G] neither","key_press":76,"name":"choice","trial_type":"html-keyboard-response","trial_index":114,"time_elapsed":315881,"internal_node_id":"0.0-114.0","response":"2nd","certainty":"high","char":"L","transposition":-1,"order":["shifted","swapped"],"probe_pitches":[7,2,1,-2,1,-2,4,0,-3,5,2,0],"shifted_pitches":[7,2,1,-2,1,-2,3,0,-3,5,2,0],"swapped_pitches":[7,2,1,-2,1,4,-2,0,-3,5,2,0],"shift_direction":-1,"question_num":91,"has_decoy":false,"subject":"S1C1220","sona":"41854","block":1,"time":"2021-09-17T00:55:46.602Z"},{"rt":1221.6000000014901,"stimulus":"[A] option 1, [L] option 2, [G] neither","key_press":76,"name":"choice","trial_type":"html-keyboard-response","trial_index":125,"time_elapsed":337781,"internal_node_id":"0.0-125.0","response":"2nd","certainty":"high","char":"L","transposition":3,"order":["swapped","shifted"],"probe_pitches":[-3,0,4,2,9,4,2,7,4,9,7,4],"shifted_pitches":[-3,0,4,2,9,4,3,7,4,9,7,4],"swapped_pitches":[-3,0,4,2,9,2,4,7,4,9,7,4],"shift_direction":1,"question_num":101,"has_decoy":false,"subject":"S1C1220","sona":"41854","block":1,"time":"2021-09-17T00:55:46.602Z"},{"rt":1117.1000000014901,"stimulus":"[A] option 1, [L] option 2, [G] neither","key_press":65,"name":"choice","trial_type":"html-keyboard-response","trial_index":136,"time_elapsed":358156,"internal_node_id":"0.0-136.0","response":"1st","certainty":"high","char":"A","transposition":-3,"order":["swapped","shifted"],"probe_pitches":[8,4,5,0,-2,3,2,0,-3,7,9,5],"shifted_pitches":[8,4,5,0,-2,3,1,0,-3,7,9,5],"swapped_pitches":[8,4,5,0,-2,2,3,0,-3,7,9,5],"shift_direction":-1,"question_num":111,"has_decoy":false,"subject":"S1C1220","sona":"41854","block":1,"time":"2021-09-17T00:55:46.602Z"},{"rt":1526.2000000029802,"stimulus":"[A] option 1, [L] option 2, [G] neither","key_press":76,"name":"choice","trial_type":"html-keyboard-response","trial_index":147,"time_elapsed":380602,"internal_node_id":"0.0-147.0","response":"2nd","certainty":"high","char":"L","transposition":2,"order":["shifted","swapped"],"probe_pitches":[7,6,8,7,1,5,-2,-3,9,-3,3,0],"shifted_pitches":[7,6,8,7,1,4,-2,-3,9,-3,3,0],"swapped_pitches":[7,6,8,7,1,-2,5,-3,9,-3,3,0],"shift_direction":-1,"question_num":121,"has_decoy":false,"subject":"S1C1220","sona":"41854","block":1,"time":"2021-09-17T00:55:46.602Z"},{"rt":698.3999999985099,"stimulus":"[A] option 1, [L] option 2, [G] neither","key_press":76,"name":"choice","trial_type":"html-keyboard-response","trial_index":158,"time_elapsed":400404,"internal_node_id":"0.0-158.0","response":"2nd","certainty":"high","char":"L","transposition":-1,"order":["shifted","swapped"],"probe_pitches":[2,5,8,9,1,7,-2,2,5,1,8,3],"shifted_pitches":[2,5,8,9,1,6,-2,2,5,1,8,3],"swapped_pitches":[2,5,8,9,1,-2,7,2,5,1,8,3],"shift_direction":-1,"question_num":131,"has_decoy":false,"subject":"S1C1220","sona":"41854","block":1,"time":"2021-09-17T00:55:46.602Z"},{"rt":1405.2999999970198,"stimulus":"[A] option 1, [L] option 2, [G] neither","key_press":76,"name":"choice","trial_type":"html-keyboard-response","trial_index":169,"time_elapsed":421467,"internal_node_id":"0.0-169.0","response":"2nd","certainty":"high","char":"L","transposition":-2,"order":["shifted","swapped"],"probe_pitches":[7,4,9,2,7,4,9,7,9,7,-1,9],"shifted_pitches":[7,4,9,2,7,4,10,7,9,7,-1,9],"swapped_pitches":[7,4,9,2,7,9,4,7,9,7,-1,9],"shift_direction":1,"question_num":141,"has_decoy":false,"subject":"S1C1220","sona":"41854","block":1,"time":"2021-09-17T00:55:46.602Z"},{"rt":908.1000000014901,"stimulus":"[A] option 1, [L] option 2, [G] neither","key_press":65,"name":"choice","trial_type":"html-keyboard-response","trial_index":180,"time_elapsed":440991,"internal_node_id":"0.0-180.0","response":"1st","certainty":"high","char":"A","transposition":-3,"order":["swapped","shifted"],"probe_pitches":[6,1,-1,1,9,4,-1,6,1,-1,4,6],"shifted_pitches":[6,1,-1,1,9,3,-1,6,1,-1,4,6],"swapped_pitches":[6,1,-1,1,9,-1,4,6,1,-1,4,6],"shift_direction":-1,"question_num":151,"has_decoy":false,"subject":"S1C1220","sona":"41854","block":1,"time":"2021-09-17T00:55:46.602Z"},{"rt":694,"stimulus":"[A] option 1, [L] option 2, [G] neither","key_press":76,"name":"choice","trial_type":"html-keyboard-response","trial_index":191,"time_elapsed":460222,"internal_node_id":"0.0-191.0","response":"2nd","certainty":"high","char":"L","transposition":0,"order":["shifted","swapped"],"probe_pitches":[4,0,2,7,9,7,0,-3,0,-3,9,2],"shifted_pitches":[4,0,2,7,9,7,-1,-3,0,-3,9,2],"swapped_pitches":[4,0,2,7,9,0,7,-3,0,-3,9,2],"shift_direction":-1,"question_num":161,"has_decoy":false,"subject":"S1C1220","sona":"41854","block":1,"time":"2021-09-17T00:55:46.602Z"},{"rt":1014.6000000014901,"stimulus":"[A] option 1, [L] option 2, [G] neither","key_press":76,"name":"choice","trial_type":"html-keyboard-response","trial_index":202,"time_elapsed":479876,"internal_node_id":"0.0-202.0","response":"2nd","certainty":"high","char":"L","transposition":0,"order":["swapped","shifted"],"probe_pitches":[-3,3,2,7,0,-1,-3,9,5,-2,6,4],"shifted_pitches":[-3,3,2,7,0,-1,-4,9,5,-2,6,4],"swapped_pitches":[-3,3,2,7,0,-3,-1,9,5,-2,6,4],"shift_direction":-1,"question_num":171,"has_decoy":false,"subject":"S1C1220","sona":"41854","block":1,"time":"2021-09-17T00:55:46.602Z"},{"rt":517.3000000044703,"stimulus":"[A] option 1, [L] option 2, [G] neither","key_press":65,"name":"choice","trial_type":"html-keyboard-response","trial_index":213,"time_elapsed":498903,"internal_node_id":"0.0-213.0","response":"1st","certainty":"high","char":"A","transposition":2,"order":["shifted","swapped"],"probe_pitches":[-3,2,-3,2,-1,9,6,-1,9,4,6,-3],"shifted_pitches":[-3,2,-3,2,-1,10,6,-1,9,4,6,-3],"swapped_pitches":[-3,2,-3,2,-1,6,9,-1,9,4,6,-3],"shift_direction":1,"question_num":181,"has_decoy":false,"subject":"S1C1220","sona":"41854","block":1,"time":"2021-09-17T00:55:46.602Z"},{"rt":502.79999999701977,"stimulus":"[A] option 1, [L] option 2, [G] neither","key_press":76,"name":"choice","trial_type":"html-keyboard-response","trial_index":224,"time_elapsed":518659,"internal_node_id":"0.0-224.0","response":"2nd","certainty":"high","char":"L","transposition":-3,"order":["shifted","swapped"],"probe_pitches":[4,6,-1,4,9,1,-3,-1,-3,1,-1,9],"shifted_pitches":[4,6,-1,4,9,0,-3,-1,-3,1,-1,9],"swapped_pitches":[4,6,-1,4,9,-3,1,-1,-3,1,-1,9],"shift_direction":-1,"question_num":191,"has_decoy":false,"subject":"S1C1220","sona":"41854","block":1,"time":"2021-09-17T00:55:46.602Z"}]