[{"rt":7270.80000000447,"stimulus":"[A] option 1, [L] option 2, [G] neither","key_press":76,"name":"choice","trial_type":"html-keyboard-response","trial_index":10,"time_elapsed":137116,"internal_node_id":"0.0-10.0","subject":"S1C1220","sona":"41854","block":4,"time":"2021-09-17T01:22:41.545Z","response":"2nd","certainty":"high","char":"L","transposition":-2,"order":["swapped","shifted"],"probe_pitches":[8,6,3,-1,8,1,-1,6,-1,3,6,3],"shifted_pitches":[8,6,3,-1,8,0,-1,6,-1,3,6,3],"swapped_pitches":[8,6,3,-1,8,-1,1,6,-1,3,6,3],"shift_direction":-1,"question_num":1,"has_decoy":false},{"rt":908.5,"stimulus":"[A] option 1, [L] option 2, [G] neither","key_press":76,"name":"choice","trial_type":"html-keyboard-response","trial_index":21,"time_elapsed":163259,"internal_node_id":"0.0-21.0","subject":"S1C1220","sona":"41854","block":4,"time":"2021-09-17T01:22:41.545Z","response":"2nd","certainty":"high","char":"L","transposition":2,"order":["shifted","swapped"],"probe_pitches":[5,7,0,-3,5,0,-3,8,4,7,4,-2],"shifted_pitches":[5,7,0,-3,5,1,-3,8,4,7,4,-2],"swapped_pitches":[5,7,0,-3,5,-3,0,8,4,7,4,-2],"shift_direction":1,"question_num":11,"has_decoy":false},{"rt":2313.2999999970198,"stimulus":"[A] option 1, [L] option 2, [G] neither","key_press":76,"name":"choice","trial_type":"html-keyboard-response","trial_index":32,"time_elapsed":185133,"internal_node_id":"0.0-32.0","subject":"S1C1220","sona":"41854","block":4,"time":"2021-09-17T01:22:41.545Z","response":"2nd","certainty":"high","char":"L","transposition":-1,"order":["swapped","shifted"],"probe_pitches":[11,6,-1,6,3,6,8,1,3,8,6,1],"shifted_pitches":[11,6,-1,6,3,6,7,1,3,8,6,1],"swapped_pitches":[11,6,-1,6,3,8,6,1,3,8,6,1],"shift_direction":-1,"question_num":21,"has_decoy":false},{"rt":2618.1999999955297,"stimulus":"[A] option 1, [L] option 2, [G] neither","key_press":76,"name":"choice","trial_type":"html-keyboard-response","trial_index":43,"time_elapsed":209246,"internal_node_id":"0.0-43.0","subject":"S1C1220","sona":"41854","block":4,"time":"2021-09-17T01:22:41.545Z","response":"2nd","certainty":"high","char":"L","transposition":-2,"order":["swapped","shifted"],"probe_pitches":[8,4,-3,4,9,4,1,6,5,2,5,6],"shifted_pitches":[8,4,-3,4,9,4,0,6,5,2,5,6],"swapped_pitches":[8,4,-3,4,9,1,4,6,5,2,5,6],"shift_direction":-1,"question_num":31,"has_decoy":false},{"rt":611.3999999985099,"stimulus":"[A] option 1, [L] option 2, [G] neither","key_press":76,"name":"choice","trial_type":"html-keyboard-response","trial_index":54,"time_elapsed":235036,"internal_node_id":"0.0-54.0","subject":"S1C1220","sona":"41854","block":4,"time":"2021-09-17T01:22:41.545Z","response":"2nd","certainty":"high","char":"L","transposition":-1,"order":["swapped","shifted"],"probe_pitches":[-2,2,7,8,-1,-2,4,0,3,-1,6,-2],"shifted_pitches":[-2,2,7,8,-1,-2,5,0,3,-1,6,-2],"swapped_pitches":[-2,2,7,8,-1,4,-2,0,3,-1,6,-2],"shift_direction":1,"question_num":41,"has_decoy":false},{"rt":911.3999999985099,"stimulus":"[A] option 1, [L] option 2, [G] neither","key_press":65,"name":"choice","trial_type":"html-keyboard-response","trial_index":65,"time_elapsed":255079,"internal_node_id":"0.0-65.0","subject":"S1C1220","sona":"41854","block":4,"time":"2021-09-17T01:22:41.545Z","response":"1st","certainty":"high","char":"A","transposition":-2,"order":["swapped","shifted"],"probe_pitches":[0,-2,2,3,-2,8,5,7,0,7,1,-2],"shifted_pitches":[0,-2,2,3,-2,8,4,7,0,7,1,-2],"swapped_pitches":[0,-2,2,3,-2,5,8,7,0,7,1,-2],"shift_direction":-1,"question_num":51,"has_decoy":false},{"rt":4519.80000000447,"stimulus":"[A] option 1, [L] option 2, [G] neither","key_press":76,"name":"choice","trial_type":"html-keyboard-response","trial_index":76,"time_elapsed":278325,"internal_node_id":"0.0-76.0","subject":"S1C1220","sona":"41854","block":4,"time":"2021-09-17T01:22:41.545Z","response":"2nd","certainty":"high","char":"L","transposition":3,"order":["swapped","shifted"],"probe_pitches":[4,-1,1,9,3,1,8,-3,6,4,5,-2],"shifted_pitches":[4,-1,1,9,3,2,8,-3,6,4,5,-2],"swapped_pitches":[4,-1,1,9,3,8,1,-3,6,4,5,-2],"shift_direction":1,"question_num":61,"has_decoy":false},{"rt":1498.8999999985099,"stimulus":"[A] option 1, [L] option 2, [G] neither","key_press":76,"name":"choice","trial_type":"html-keyboard-response","trial_index":87,"time_elapsed":298359,"internal_node_id":"0.0-87.0","subject":"S1C1220","sona":"41854","block":4,"time":"2021-09-17T01:22:41.545Z","response":"2nd","certainty":"high","char":"L","transposition":0,"order":["shifted","swapped"],"probe_pitches":[1,4,11,6,1,-1,4,6,4,11,8,11],"shifted_pitches":[1,4,11,6,1,-2,4,6,4,11,8,11],"swapped_pitches":[1,4,11,6,1,4,-1,6,4,11,8,11],"shift_direction":-1,"question_num":71,"has_decoy":false},{"rt":3821.8000000044703,"stimulus":"[A] option 1, [L] option 2, [G] neither","key_press":76,"name":"choice","trial_type":"html-keyboard-response","trial_index":98,"time_elapsed":322138,"internal_node_id":"0.0-98.0","subject":"S1C1220","sona":"41854","block":4,"time":"2021-09-17T01:22:41.545Z","response":"2nd","certainty":"high","char":"L","transposition":-1,"order":["shifted","swapped"],"probe_pitches":[6,2,1,-3,3,2,9,6,9,6,3,4],"shifted_pitches":[6,2,1,-3,3,2,8,6,9,6,3,4],"swapped_pitches":[6,2,1,-3,3,9,2,6,9,6,3,4],"shift_direction":-1,"question_num":81,"has_decoy":false},{"rt":484.1000000014901,"stimulus":"[A] option 1, [L] option 2, [G] neither","key_press":76,"name":"choice","trial_type":"html-keyboard-response","trial_index":109,"time_elapsed":341722,"internal_node_id":"0.0-109.0","subject":"S1C1220","sona":"41854","block":4,"time":"2021-09-17T01:22:41.545Z","response":"2nd","certainty":"high","char":"L","transposition":-3,"order":["shifted","swapped"],"probe_pitches":[8,7,6,3,9,0,8,6,1,8,3,7],"shifted_pitches":[8,7,6,3,9,-1,8,6,1,8,3,7],"swapped_pitches":[8,7,6,3,9,8,0,6,1,8,3,7],"shift_direction":-1,"question_num":91,"has_decoy":false},{"rt":1085.7999999970198,"stimulus":"[A] option 1, [L] option 2, [G] neither","key_press":65,"name":"choice","trial_type":"html-keyboard-response","trial_index":120,"time_elapsed":366979,"internal_node_id":"0.0-120.0","subject":"S1C1220","sona":"41854","block":4,"time":"2021-09-17T01:22:41.545Z","response":"1st","certainty":"high","char":"A","transposition":-2,"order":["swapped","shifted"],"probe_pitches":[6,4,2,4,11,4,2,9,-1,4,6,4],"shifted_pitches":[6,4,2,4,11,4,1,9,-1,4,6,4],"swapped_pitches":[6,4,2,4,11,2,4,9,-1,4,6,4],"shift_direction":-1,"question_num":101,"has_decoy":false},{"rt":1455.6000000014901,"stimulus":"[A] option 1, [L] option 2, [G] neither","key_press":76,"name":"choice","trial_type":"html-keyboard-response","trial_index":131,"time_elapsed":395482,"internal_node_id":"0.0-131.0","subject":"S1C1220","sona":"41854","block":4,"time":"2021-09-17T01:22:41.545Z","response":"2nd","certainty":"high","char":"L","transposition":-3,"order":["shifted","swapped"],"probe_pitches":[4,-1,1,8,4,6,-1,11,4,11,8,1],"shifted_pitches":[4,-1,1,8,4,6,0,11,4,11,8,1],"swapped_pitches":[4,-1,1,8,4,-1,6,11,4,11,8,1],"shift_direction":1,"question_num":111,"has_decoy":false},{"rt":2484.2000000029802,"stimulus":"[A] option 1, [L] option 2, [G] neither","key_press":76,"name":"choice","trial_type":"html-keyboard-response","trial_index":142,"time_elapsed":418196,"internal_node_id":"0.0-142.0","subject":"S1C1220","sona":"41854","block":4,"time":"2021-09-17T01:22:41.545Z","response":"2nd","certainty":"high","char":"L","transposition":-3,"order":["swapped","shifted"],"probe_pitches":[4,2,7,-1,2,7,4,11,-1,2,-1,9],"shifted_pitches":[4,2,7,-1,2,7,5,11,-1,2,-1,9],"swapped_pitches":[4,2,7,-1,2,4,7,11,-1,2,-1,9],"shift_direction":1,"question_num":121,"has_decoy":false},{"rt":3376.5,"stimulus":"[A] option 1, [L] option 2, [G] neither","key_press":76,"name":"choice","trial_type":"html-keyboard-response","trial_index":153,"time_elapsed":443578,"internal_node_id":"0.0-153.0","subject":"S1C1220","sona":"41854","block":4,"time":"2021-09-17T01:22:41.545Z","response":"2nd","certainty":"high","char":"L","transposition":1,"order":["shifted","swapped"],"probe_pitches":[-1,2,-1,4,9,11,2,4,2,11,7,11],"shifted_pitches":[-1,2,-1,4,9,11,3,4,2,11,7,11],"swapped_pitches":[-1,2,-1,4,9,2,11,4,2,11,7,11],"shift_direction":1,"question_num":131,"has_decoy":false},{"rt":3390.2000000029802,"stimulus":"[A] option 1, [L] option 2, [G] neither","key_press":76,"name":"choice","trial_type":"html-keyboard-response","trial_index":164,"time_elapsed":482471,"internal_node_id":"0.0-164.0","subject":"S1C1220","sona":"41854","block":4,"time":"2021-09-17T01:22:41.545Z","response":"2nd","certainty":"high","char":"L","transposition":0,"order":["shifted","swapped"],"probe_pitches":[3,9,6,4,-1,5,6,4,0,-1,1,6],"shifted_pitches":[3,9,6,4,-1,5,7,4,0,-1,1,6],"swapped_pitches":[3,9,6,4,-1,6,5,4,0,-1,1,6],"shift_direction":1,"question_num":141,"has_decoy":false},{"rt":5935.80000000447,"stimulus":"[A] option 1, [L] option 2, [G] neither","key_press":76,"name":"choice","trial_type":"html-keyboard-response","trial_index":175,"time_elapsed":512942,"internal_node_id":"0.0-175.0","subject":"S1C1220","sona":"41854","block":4,"time":"2021-09-17T01:22:41.545Z","response":"2nd","certainty":"high","char":"L","transposition":-1,"order":["swapped","shifted"],"probe_pitches":[-1,4,9,4,1,4,6,1,-1,9,1,4],"shifted_pitches":[-1,4,9,4,1,5,6,1,-1,9,1,4],"swapped_pitches":[-1,4,9,4,1,6,4,1,-1,9,1,4],"shift_direction":1,"question_num":151,"has_decoy":false},{"rt":1043,"stimulus":"[A] option 1, [L] option 2, [G] neither","key_press":76,"name":"choice","trial_type":"html-keyboard-response","trial_index":186,"time_elapsed":533126,"internal_node_id":"0.0-186.0","subject":"S1C1220","sona":"41854","block":4,"time":"2021-09-17T01:22:41.545Z","response":"2nd","certainty":"high","char":"L","transposition":-3,"order":["shifted","swapped"],"probe_pitches":[4,0,1,-1,1,4,7,6,4,-3,4,8],"shifted_pitches":[4,0,1,-1,1,3,7,6,4,-3,4,8],"swapped_pitches":[4,0,1,-1,1,7,4,6,4,-3,4,8],"shift_direction":-1,"question_num":161,"has_decoy":false},{"rt":2618.60000000149,"stimulus":"[A] option 1, [L] option 2, [G] neither","key_press":76,"name":"choice","trial_type":"html-keyboard-response","trial_index":197,"time_elapsed":555438,"internal_node_id":"0.0-197.0","subject":"S1C1220","sona":"41854","block":4,"time":"2021-09-17T01:22:41.545Z","response":"2nd","certainty":"high","char":"L","transposition":1,"order":["swapped","shifted"],"probe_pitches":[1,0,-3,5,0,5,7,2,3,-3,-1,4],"shifted_pitches":[1,0,-3,5,0,6,7,2,3,-3,-1,4],"swapped_pitches":[1,0,-3,5,0,7,5,2,3,-3,-1,4],"shift_direction":1,"question_num":171,"has_decoy":false},{"rt":1088.3999999985099,"stimulus":"[A] option 1, [L] option 2, [G] neither","key_press":76,"name":"choice","trial_type":"html-keyboard-response","trial_index":208,"time_elapsed":652863,"internal_node_id":"0.0-208.0","subject":"S1C1220","sona":"41854","block":4,"time":"2021-09-17T01:22:41.545Z","response":"2nd","certainty":"high","char":"L","transposition":2,"order":["shifted","swapped"],"probe_pitches":[1,4,1,6,1,-1,9,1,4,6,9,4],"shifted_pitches":[1,4,1,6,1,-2,9,1,4,6,9,4],"swapped_pitches":[1,4,1,6,1,9,-1,1,4,6,9,4],"shift_direction":-1,"question_num":181,"has_decoy":false},{"rt":798.3999999985099,"stimulus":"[A] option 1, [L] option 2, [G] neither","key_press":65,"name":"choice","trial_type":"html-keyboard-response","trial_index":219,"time_elapsed":672791,"internal_node_id":"0.0-219.0","subject":"S1C1220","sona":"41854","block":4,"time":"2021-09-17T01:22:41.545Z","response":"1st","certainty":"high","char":"A","transposition":3,"order":["shifted","swapped"],"probe_pitches":[9,6,9,2,9,4,-1,11,2,11,4,2],"shifted_pitches":[9,6,9,2,9,5,-1,11,2,11,4,2],"swapped_pitches":[9,6,9,2,9,-1,4,11,2,11,4,2],"shift_direction":1,"question_num":191,"has_decoy":false}]