[{"rt":1686,"stimulus":"[A] option 1, [L] option 2, [G] neither","key_press":76,"name":"choice","trial_type":"html-keyboard-response","trial_index":10,"time_elapsed":21882,"internal_node_id":"0.0-10.0","subject":"S1C1220","sona":"41854","block":5,"time":"2021-09-17T01:32:09.156Z","response":"2nd","certainty":"high","char":"L","transposition":-1,"order":["shifted","swapped"],"probe_pitches":[-3,0,2,0,2,7,9,-3,5,2,5,0],"shifted_pitches":[-3,0,2,0,2,6,9,-3,5,2,5,0],"swapped_pitches":[-3,0,2,0,2,9,7,-3,5,2,5,0],"shift_direction":-1,"question_num":1,"has_decoy":false},{"rt":4523.29999999702,"stimulus":"[A] option 1, [L] option 2, [G] neither","key_press":76,"name":"choice","trial_type":"html-keyboard-response","trial_index":21,"time_elapsed":45678,"internal_node_id":"0.0-21.0","subject":"S1C1220","sona":"41854","block":5,"time":"2021-09-17T01:32:09.156Z","response":"2nd","certainty":"high","char":"L","transposition":0,"order":["swapped","shifted"],"probe_pitches":[-1,1,-3,-1,6,4,-3,1,-3,9,-3,4],"shifted_pitches":[-1,1,-3,-1,6,3,-3,1,-3,9,-3,4],"swapped_pitches":[-1,1,-3,-1,6,-3,4,1,-3,9,-3,4],"shift_direction":-1,"question_num":11,"has_decoy":false},{"rt":1069.7000000029802,"stimulus":"[A] option 1, [L] option 2, [G] neither","key_press":65,"name":"choice","trial_type":"html-keyboard-response","trial_index":32,"time_elapsed":66449,"internal_node_id":"0.0-32.0","subject":"S1C1220","sona":"41854","block":5,"time":"2021-09-17T01:32:09.156Z","response":"1st","certainty":"high","char":"A","transposition":2,"order":["swapped","shifted"],"probe_pitches":[-3,2,-3,2,9,6,-3,4,-1,6,9,-1],"shifted_pitches":[-3,2,-3,2,9,7,-3,4,-1,6,9,-1],"swapped_pitches":[-3,2,-3,2,9,-3,6,4,-1,6,9,-1],"shift_direction":1,"question_num":21,"has_decoy":false},{"rt":1589.7000000029802,"stimulus":"[A] option 1, [L] option 2, [G] neither","key_press":65,"name":"choice","trial_type":"html-keyboard-response","trial_index":43,"time_elapsed":93507,"internal_node_id":"0.0-43.0","subject":"S1C1220","sona":"41854","block":5,"time":"2021-09-17T01:32:09.156Z","response":"1st","certainty":"high","char":"A","transposition":-1,"order":["shifted","swapped"],"probe_pitches":[9,4,2,9,7,2,4,9,-3,4,0,-3],"shifted_pitches":[9,4,2,9,7,2,3,9,-3,4,0,-3],"swapped_pitches":[9,4,2,9,7,4,2,9,-3,4,0,-3],"shift_direction":-1,"question_num":31,"has_decoy":false},{"rt":16060.10000000149,"stimulus":"[A] option 1, [L] option 2, [G] neither","key_press":65,"name":"choice","trial_type":"html-keyboard-response","trial_index":54,"time_elapsed":159218,"internal_node_id":"0.0-54.0","subject":"S1C1220","sona":"41854","block":5,"time":"2021-09-17T01:32:09.156Z","response":"1st","certainty":"high","char":"A","transposition":3,"order":["swapped","shifted"],"probe_pitches":[2,8,3,4,12,13,4,8,6,1,7,8],"shifted_pitches":[2,8,3,4,12,13,5,8,6,1,7,8],"swapped_pitches":[2,8,3,4,12,4,13,8,6,1,7,8],"shift_direction":1,"question_num":41,"has_decoy":false},{"rt":1137.3999999985099,"stimulus":"[A] option 1, [L] option 2, [G] neither","key_press":76,"name":"choice","trial_type":"html-keyboard-response","trial_index":65,"time_elapsed":232905,"internal_node_id":"0.0-65.0","subject":"S1C1220","sona":"41854","block":5,"time":"2021-09-17T01:32:09.156Z","response":"2nd","certainty":"high","char":"L","transposition":-2,"order":["shifted","swapped"],"probe_pitches":[2,5,8,11,4,1,2,8,5,4,9,5],"shifted_pitches":[2,5,8,11,4,1,3,8,5,4,9,5],"swapped_pitches":[2,5,8,11,4,2,1,8,5,4,9,5],"shift_direction":1,"question_num":51,"has_decoy":false},{"rt":535.9000000059605,"stimulus":"[A] option 1, [L] option 2, [G] neither","key_press":76,"name":"choice","trial_type":"html-keyboard-response","trial_index":76,"time_elapsed":252229,"internal_node_id":"0.0-76.0","subject":"S1C1220","sona":"41854","block":5,"time":"2021-09-17T01:32:09.156Z","response":"2nd","certainty":"high","char":"L","transposition":-3,"order":["shifted","swapped"],"probe_pitches":[4,2,8,6,5,1,11,12,1,13,9,3],"shifted_pitches":[4,2,8,6,5,1,10,12,1,13,9,3],"swapped_pitches":[4,2,8,6,5,11,1,12,1,13,9,3],"shift_direction":-1,"question_num":61,"has_decoy":false},{"rt":1277.5,"stimulus":"[A] option 1, [L] option 2, [G] neither","key_press":65,"name":"choice","trial_type":"html-keyboard-response","trial_index":87,"time_elapsed":272026,"internal_node_id":"0.0-87.0","subject":"S1C1220","sona":"41854","block":5,"time":"2021-09-17T01:32:09.156Z","response":"1st","certainty":"high","char":"A","transposition":-3,"order":["shifted","swapped"],"probe_pitches":[4,2,-1,7,4,2,7,9,7,4,7,4],"shifted_pitches":[4,2,-1,7,4,1,7,9,7,4,7,4],"swapped_pitches":[4,2,-1,7,4,7,2,9,7,4,7,4],"shift_direction":-1,"question_num":71,"has_decoy":false},{"rt":1649.1000000014901,"stimulus":"[A] option 1, [L] option 2, [G] neither","key_press":76,"name":"choice","trial_type":"html-keyboard-response","trial_index":98,"time_elapsed":293272,"internal_node_id":"0.0-98.0","subject":"S1C1220","sona":"41854","block":5,"time":"2021-09-17T01:32:09.156Z","response":"2nd","certainty":"high","char":"L","transposition":-3,"order":["swapped","shifted"],"probe_pitches":[13,7,11,9,4,1,10,6,13,2,4,8],"shifted_pitches":[13,7,11,9,4,0,10,6,13,2,4,8],"swapped_pitches":[13,7,11,9,4,10,1,6,13,2,4,8],"shift_direction":-1,"question_num":81,"has_decoy":false},{"rt":4572.60000000149,"stimulus":"[A] option 1, [L] option 2, [G] neither","key_press":65,"name":"choice","trial_type":"html-keyboard-response","trial_index":109,"time_elapsed":316504,"internal_node_id":"0.0-109.0","subject":"S1C1220","sona":"41854","block":5,"time":"2021-09-17T01:32:09.156Z","response":"1st","certainty":"high","char":"A","transposition":-3,"order":["shifted","swapped"],"probe_pitches":[2,4,-1,4,6,-3,-1,9,4,2,-1,4],"shifted_pitches":[2,4,-1,4,6,-3,0,9,4,2,-1,4],"swapped_pitches":[2,4,-1,4,6,-1,-3,9,4,2,-1,4],"shift_direction":1,"question_num":91,"has_decoy":false},{"rt":825.6000000014901,"stimulus":"[A] option 1, [L] option 2, [G] neither","key_press":65,"name":"choice","trial_type":"html-keyboard-response","trial_index":120,"time_elapsed":336277,"internal_node_id":"0.0-120.0","subject":"S1C1220","sona":"41854","block":5,"time":"2021-09-17T01:32:09.156Z","response":"1st","certainty":"high","char":"A","transposition":1,"order":["swapped","shifted"],"probe_pitches":[4,8,3,10,5,10,11,7,5,1,6,4],"shifted_pitches":[4,8,3,10,5,9,11,7,5,1,6,4],"swapped_pitches":[4,8,3,10,5,11,10,7,5,1,6,4],"shift_direction":-1,"question_num":101,"has_decoy":false},{"rt":1659.4000000059605,"stimulus":"[A] option 1, [L] option 2, [G] neither","key_press":76,"name":"choice","trial_type":"html-keyboard-response","trial_index":131,"time_elapsed":358150,"internal_node_id":"0.0-131.0","subject":"S1C1220","sona":"41854","block":5,"time":"2021-09-17T01:32:09.156Z","response":"2nd","certainty":"high","char":"L","transposition":-2,"order":["swapped","shifted"],"probe_pitches":[-1,4,7,-1,2,9,4,-1,9,-1,4,-1],"shifted_pitches":[-1,4,7,-1,2,9,5,-1,9,-1,4,-1],"swapped_pitches":[-1,4,7,-1,2,4,9,-1,9,-1,4,-1],"shift_direction":1,"question_num":111,"has_decoy":false},{"rt":4492.60000000149,"stimulus":"[A] option 1, [L] option 2, [G] neither","key_press":76,"name":"choice","trial_type":"html-keyboard-response","trial_index":142,"time_elapsed":391943,"internal_node_id":"0.0-142.0","subject":"S1C1220","sona":"41854","block":5,"time":"2021-09-17T01:32:09.156Z","response":"2nd","certainty":"high","char":"L","transposition":3,"order":["shifted","swapped"],"probe_pitches":[9,7,9,5,7,9,2,-3,9,-3,0,7],"shifted_pitches":[9,7,9,5,7,9,3,-3,9,-3,0,7],"swapped_pitches":[9,7,9,5,7,2,9,-3,9,-3,0,7],"shift_direction":1,"question_num":121,"has_decoy":false},{"rt":397.29999999701977,"stimulus":"[A] option 1, [L] option 2, [G] neither","key_press":76,"name":"choice","trial_type":"html-keyboard-response","trial_index":153,"time_elapsed":419037,"internal_node_id":"0.0-153.0","subject":"S1C1220","sona":"41854","block":5,"time":"2021-09-17T01:32:09.156Z","response":"2nd","certainty":"high","char":"L","transposition":-1,"order":["swapped","shifted"],"probe_pitches":[5,8,3,8,4,8,1,4,2,9,12,9],"shifted_pitches":[5,8,3,8,4,7,1,4,2,9,12,9],"swapped_pitches":[5,8,3,8,4,1,8,4,2,9,12,9],"shift_direction":-1,"question_num":131,"has_decoy":false},{"rt":2308.0999999940395,"stimulus":"[A] option 1, [L] option 2, [G] neither","key_press":76,"name":"choice","trial_type":"html-keyboard-response","trial_index":164,"time_elapsed":447170,"internal_node_id":"0.0-164.0","subject":"S1C1220","sona":"41854","block":5,"time":"2021-09-17T01:32:09.156Z","response":"2nd","certainty":"high","char":"L","transposition":0,"order":["shifted","swapped"],"probe_pitches":[10,5,2,5,11,9,1,3,2,11,4,9],"shifted_pitches":[10,5,2,5,11,8,1,3,2,11,4,9],"swapped_pitches":[10,5,2,5,11,1,9,3,2,11,4,9],"shift_direction":-1,"question_num":141,"has_decoy":false},{"rt":546.3999999985099,"stimulus":"[A] option 1, [L] option 2, [G] neither","key_press":76,"name":"choice","trial_type":"html-keyboard-response","trial_index":175,"time_elapsed":475665,"internal_node_id":"0.0-175.0","subject":"S1C1220","sona":"41854","block":5,"time":"2021-09-17T01:32:09.156Z","response":"2nd","certainty":"high","char":"L","transposition":-2,"order":["swapped","shifted"],"probe_pitches":[-3,-1,6,-1,1,-1,6,-3,1,4,6,-3],"shifted_pitches":[-3,-1,6,-1,1,-2,6,-3,1,4,6,-3],"swapped_pitches":[-3,-1,6,-1,1,6,-1,-3,1,4,6,-3],"shift_direction":-1,"question_num":151,"has_decoy":false},{"rt":2250.8000000044703,"stimulus":"[A] option 1, [L] option 2, [G] neither","key_press":65,"name":"choice","trial_type":"html-keyboard-response","trial_index":186,"time_elapsed":496536,"internal_node_id":"0.0-186.0","subject":"S1C1220","sona":"41854","block":5,"time":"2021-09-17T01:32:09.156Z","response":"1st","certainty":"high","char":"A","transposition":-1,"order":["shifted","swapped"],"probe_pitches":[1,3,9,3,8,12,3,7,2,5,7,12],"shifted_pitches":[1,3,9,3,8,12,4,7,2,5,7,12],"swapped_pitches":[1,3,9,3,8,3,12,7,2,5,7,12],"shift_direction":1,"question_num":161,"has_decoy":false},{"rt":913.9000000059605,"stimulus":"[A] option 1, [L] option 2, [G] neither","key_press":76,"name":"choice","trial_type":"html-keyboard-response","trial_index":197,"time_elapsed":518660,"internal_node_id":"0.0-197.0","subject":"S1C1220","sona":"41854","block":5,"time":"2021-09-17T01:32:09.156Z","response":"2nd","certainty":"high","char":"L","transposition":-2,"order":["shifted","swapped"],"probe_pitches":[2,4,8,2,4,7,10,13,12,5,3,8],"shifted_pitches":[2,4,8,2,4,7,11,13,12,5,3,8],"swapped_pitches":[2,4,8,2,4,10,7,13,12,5,3,8],"shift_direction":1,"question_num":171,"has_decoy":false},{"rt":1114.1000000014901,"stimulus":"[A] option 1, [L] option 2, [G] neither","key_press":76,"name":"choice","trial_type":"html-keyboard-response","trial_index":208,"time_elapsed":539174,"internal_node_id":"0.0-208.0","subject":"S1C1220","sona":"41854","block":5,"time":"2021-09-17T01:32:09.156Z","response":"2nd","certainty":"high","char":"L","transposition":1,"order":["swapped","shifted"],"probe_pitches":[2,7,9,4,9,7,4,2,7,-3,0,7],"shifted_pitches":[2,7,9,4,9,7,5,2,7,-3,0,7],"swapped_pitches":[2,7,9,4,9,4,7,2,7,-3,0,7],"shift_direction":1,"question_num":181,"has_decoy":false},{"rt":1406,"stimulus":"[A] option 1, [L] option 2, [G] neither","key_press":65,"name":"choice","trial_type":"html-keyboard-response","trial_index":219,"time_elapsed":563023,"internal_node_id":"0.0-219.0","subject":"S1C1220","sona":"41854","block":5,"time":"2021-09-17T01:32:09.156Z","response":"1st","certainty":"high","char":"A","transposition":2,"order":["swapped","shifted"],"probe_pitches":[1,2,8,4,12,5,1,2,10,7,8,4],"shifted_pitches":[1,2,8,4,12,6,1,2,10,7,8,4],"swapped_pitches":[1,2,8,4,12,1,5,2,10,7,8,4],"shift_direction":1,"question_num":191,"has_decoy":false}]