[{"rt":4123.5,"stimulus":"[A] option 1, [L] option 2, [G] neither","key_press":76,"name":"choice","trial_type":"html-keyboard-response","trial_index":10,"time_elapsed":34216,"internal_node_id":"0.0-10.0","subject":"S1C1220","sona":"41854","block":3,"time":"2021-09-17T01:11:25.825Z","response":"2nd","certainty":"high","char":"L","transposition":-2,"order":["shifted","swapped"],"probe_pitches":[-3,2,-3,2,6,4,9,2,-3,9,-1,6],"shifted_pitches":[-3,2,-3,2,6,3,9,2,-3,9,-1,6],"swapped_pitches":[-3,2,-3,2,6,9,4,2,-3,9,-1,6],"shift_direction":-1,"question_num":1,"has_decoy":false},{"rt":1666.7999999970198,"stimulus":"[A] option 1, [L] option 2, [G] neither","key_press":76,"name":"choice","trial_type":"html-keyboard-response","trial_index":21,"time_elapsed":58106,"internal_node_id":"0.0-21.0","subject":"S1C1220","sona":"41854","block":3,"time":"2021-09-17T01:11:25.825Z","response":"2nd","certainty":"high","char":"L","transposition":0,"order":["swapped","shifted"],"probe_pitches":[12,6,2,8,7,11,13,1,3,12,1,8],"shifted_pitches":[12,6,2,8,7,10,13,1,3,12,1,8],"swapped_pitches":[12,6,2,8,7,13,11,1,3,12,1,8],"shift_direction":-1,"question_num":11,"has_decoy":false},{"rt":1103,"stimulus":"[A] option 1, [L] option 2, [G] neither","key_press":76,"name":"choice","trial_type":"html-keyboard-response","trial_index":32,"time_elapsed":78619,"internal_node_id":"0.0-32.0","subject":"S1C1220","sona":"41854","block":3,"time":"2021-09-17T01:11:25.825Z","response":"2nd","certainty":"high","char":"L","transposition":-2,"order":["shifted","swapped"],"probe_pitches":[9,8,12,6,10,7,5,12,13,3,10,2],"shifted_pitches":[9,8,12,6,10,7,4,12,13,3,10,2],"swapped_pitches":[9,8,12,6,10,5,7,12,13,3,10,2],"shift_direction":-1,"question_num":21,"has_decoy":false},{"rt":789.5999999940395,"stimulus":"[A] option 1, [L] option 2, [G] neither","key_press":65,"name":"choice","trial_type":"html-keyboard-response","trial_index":43,"time_elapsed":98049,"internal_node_id":"0.0-43.0","subject":"S1C1220","sona":"41854","block":3,"time":"2021-09-17T01:11:25.825Z","response":"1st","certainty":"high","char":"A","transposition":3,"order":["shifted","swapped"],"probe_pitches":[12,9,8,3,1,6,4,11,6,3,4,12],"shifted_pitches":[12,9,8,3,1,7,4,11,6,3,4,12],"swapped_pitches":[12,9,8,3,1,4,6,11,6,3,4,12],"shift_direction":1,"question_num":31,"has_decoy":false},{"rt":797.1000000014901,"stimulus":"[A] option 1, [L] option 2, [G] neither","key_press":76,"name":"choice","trial_type":"html-keyboard-response","trial_index":54,"time_elapsed":117045,"internal_node_id":"0.0-54.0","subject":"S1C1220","sona":"41854","block":3,"time":"2021-09-17T01:11:25.825Z","response":"2nd","certainty":"high","char":"L","transposition":-3,"order":["swapped","shifted"],"probe_pitches":[-3,2,9,4,-1,2,4,-3,4,7,-1,2],"shifted_pitches":[-3,2,9,4,-1,2,3,-3,4,7,-1,2],"swapped_pitches":[-3,2,9,4,-1,4,2,-3,4,7,-1,2],"shift_direction":-1,"question_num":41,"has_decoy":false},{"rt":1544.4000000059605,"stimulus":"[A] option 1, [L] option 2, [G] neither","key_press":76,"name":"choice","trial_type":"html-keyboard-response","trial_index":65,"time_elapsed":137246,"internal_node_id":"0.0-65.0","subject":"S1C1220","sona":"41854","block":3,"time":"2021-09-17T01:11:25.825Z","response":"2nd","certainty":"high","char":"L","transposition":-2,"order":["shifted","swapped"],"probe_pitches":[11,7,13,8,12,8,1,6,3,13,12,4],"shifted_pitches":[11,7,13,8,12,9,1,6,3,13,12,4],"swapped_pitches":[11,7,13,8,12,1,8,6,3,13,12,4],"shift_direction":1,"question_num":51,"has_decoy":false},{"rt":1368.5,"stimulus":"[A] option 1, [L] option 2, [G] neither","key_press":65,"name":"choice","trial_type":"html-keyboard-response","trial_index":76,"time_elapsed":157427,"internal_node_id":"0.0-76.0","subject":"S1C1220","sona":"41854","block":3,"time":"2021-09-17T01:11:25.825Z","response":"1st","certainty":"high","char":"A","transposition":0,"order":["shifted","swapped"],"probe_pitches":[-3,0,-3,0,2,7,5,-3,0,5,7,5],"shifted_pitches":[-3,0,-3,0,2,7,6,-3,0,5,7,5],"swapped_pitches":[-3,0,-3,0,2,5,7,-3,0,5,7,5],"shift_direction":1,"question_num":61,"has_decoy":false},{"rt":2445.5,"stimulus":"[A] option 1, [L] option 2, [G] neither","key_press":76,"name":"choice","trial_type":"html-keyboard-response","trial_index":87,"time_elapsed":178861,"internal_node_id":"0.0-87.0","subject":"S1C1220","sona":"41854","block":3,"time":"2021-09-17T01:11:25.825Z","response":"2nd","certainty":"high","char":"L","transposition":3,"order":["shifted","swapped"],"probe_pitches":[2,6,2,6,9,4,-1,2,4,-1,2,6],"shifted_pitches":[2,6,2,6,9,5,-1,2,4,-1,2,6],"swapped_pitches":[2,6,2,6,9,-1,4,2,4,-1,2,6],"shift_direction":1,"question_num":71,"has_decoy":false},{"rt":559.2000000029802,"stimulus":"[A] option 1, [L] option 2, [G] neither","key_press":65,"name":"choice","trial_type":"html-keyboard-response","trial_index":98,"time_elapsed":199780,"internal_node_id":"0.0-98.0","subject":"S1C1220","sona":"41854","block":3,"time":"2021-09-17T01:11:25.825Z","response":"1st","certainty":"high","char":"A","transposition":2,"order":["swapped","shifted"],"probe_pitches":[6,11,4,1,10,4,6,2,3,7,12,4],"shifted_pitches":[6,11,4,1,10,4,5,2,3,7,12,4],"swapped_pitches":[6,11,4,1,10,6,4,2,3,7,12,4],"shift_direction":-1,"question_num":81,"has_decoy":false},{"rt":929.3999999985099,"stimulus":"[A] option 1, [L] option 2, [G] neither","key_press":76,"name":"choice","trial_type":"html-keyboard-response","trial_index":109,"time_elapsed":220134,"internal_node_id":"0.0-109.0","subject":"S1C1220","sona":"41854","block":3,"time":"2021-09-17T01:11:25.825Z","response":"2nd","certainty":"high","char":"L","transposition":2,"order":["swapped","shifted"],"probe_pitches":[1,-3,1,-3,4,6,9,-1,9,-1,1,-3],"shifted_pitches":[1,-3,1,-3,4,6,10,-1,9,-1,1,-3],"swapped_pitches":[1,-3,1,-3,4,9,6,-1,9,-1,1,-3],"shift_direction":1,"question_num":91,"has_decoy":false},{"rt":1477.1000000014901,"stimulus":"[A] option 1, [L] option 2, [G] neither","key_press":65,"name":"choice","trial_type":"html-keyboard-response","trial_index":120,"time_elapsed":240894,"internal_node_id":"0.0-120.0","subject":"S1C1220","sona":"41854","block":3,"time":"2021-09-17T01:11:25.825Z","response":"1st","certainty":"high","char":"A","transposition":-1,"order":["swapped","shifted"],"probe_pitches":[5,4,8,10,4,13,10,3,13,6,9,10],"shifted_pitches":[5,4,8,10,4,13,11,3,13,6,9,10],"swapped_pitches":[5,4,8,10,4,10,13,3,13,6,9,10],"shift_direction":1,"question_num":101,"has_decoy":false},{"rt":2398.1999999955297,"stimulus":"[A] option 1, [L] option 2, [G] neither","key_press":76,"name":"choice","trial_type":"html-keyboard-response","trial_index":131,"time_elapsed":264508,"internal_node_id":"0.0-131.0","subject":"S1C1220","sona":"41854","block":3,"time":"2021-09-17T01:11:25.825Z","response":"2nd","certainty":"high","char":"L","transposition":-3,"order":["shifted","swapped"],"probe_pitches":[9,11,9,2,6,2,10,9,12,8,2,5],"shifted_pitches":[9,11,9,2,6,3,10,9,12,8,2,5],"swapped_pitches":[9,11,9,2,6,10,2,9,12,8,2,5],"shift_direction":1,"question_num":111,"has_decoy":false},{"rt":1274.5999999940395,"stimulus":"[A] option 1, [L] option 2, [G] neither","key_press":76,"name":"choice","trial_type":"html-keyboard-response","trial_index":142,"time_elapsed":286024,"internal_node_id":"0.0-142.0","subject":"S1C1220","sona":"41854","block":3,"time":"2021-09-17T01:11:25.825Z","response":"2nd","certainty":"high","char":"L","transposition":-3,"order":["shifted","swapped"],"probe_pitches":[13,12,10,5,12,7,11,2,7,4,8,13],"shifted_pitches":[13,12,10,5,12,6,11,2,7,4,8,13],"swapped_pitches":[13,12,10,5,12,11,7,2,7,4,8,13],"shift_direction":-1,"question_num":121,"has_decoy":false},{"rt":3556.6999999955297,"stimulus":"[A] option 1, [L] option 2, [G] neither","key_press":65,"name":"choice","trial_type":"html-keyboard-response","trial_index":153,"time_elapsed":308088,"internal_node_id":"0.0-153.0","subject":"S1C1220","sona":"41854","block":3,"time":"2021-09-17T01:11:25.825Z","response":"1st","certainty":"high","char":"A","transposition":-2,"order":["swapped","shifted"],"probe_pitches":[0,4,0,4,2,7,9,-3,4,7,9,4],"shifted_pitches":[0,4,0,4,2,8,9,-3,4,7,9,4],"swapped_pitches":[0,4,0,4,2,9,7,-3,4,7,9,4],"shift_direction":1,"question_num":131,"has_decoy":false},{"rt":2571.60000000149,"stimulus":"[A] option 1, [L] option 2, [G] neither","key_press":76,"name":"choice","trial_type":"html-keyboard-response","trial_index":164,"time_elapsed":332680,"internal_node_id":"0.0-164.0","subject":"S1C1220","sona":"41854","block":3,"time":"2021-09-17T01:11:25.825Z","response":"2nd","certainty":"high","char":"L","transposition":-1,"order":["swapped","shifted"],"probe_pitches":[3,9,10,11,3,9,7,6,12,1,12,7],"shifted_pitches":[3,9,10,11,3,9,8,6,12,1,12,7],"swapped_pitches":[3,9,10,11,3,7,9,6,12,1,12,7],"shift_direction":1,"question_num":141,"has_decoy":false},{"rt":1698.2000000029802,"stimulus":"[A] option 1, [L] option 2, [G] neither","key_press":65,"name":"choice","trial_type":"html-keyboard-response","trial_index":175,"time_elapsed":355177,"internal_node_id":"0.0-175.0","subject":"S1C1220","sona":"41854","block":3,"time":"2021-09-17T01:11:25.825Z","response":"1st","certainty":"high","char":"A","transposition":1,"order":["shifted","swapped"],"probe_pitches":[-1,-3,2,9,7,4,-3,7,9,7,9,7],"shifted_pitches":[-1,-3,2,9,7,5,-3,7,9,7,9,7],"swapped_pitches":[-1,-3,2,9,7,-3,4,7,9,7,9,7],"shift_direction":1,"question_num":151,"has_decoy":false},{"rt":621.6000000014901,"stimulus":"[A] option 1, [L] option 2, [G] neither","key_press":76,"name":"choice","trial_type":"html-keyboard-response","trial_index":186,"time_elapsed":378975,"internal_node_id":"0.0-186.0","subject":"S1C1220","sona":"41854","block":3,"time":"2021-09-17T01:11:25.825Z","response":"2nd","certainty":"high","char":"L","transposition":-3,"order":["swapped","shifted"],"probe_pitches":[-3,1,-3,4,9,6,-3,-1,9,-1,4,-3],"shifted_pitches":[-3,1,-3,4,9,6,-4,-1,9,-1,4,-3],"swapped_pitches":[-3,1,-3,4,9,-3,6,-1,9,-1,4,-3],"shift_direction":-1,"question_num":161,"has_decoy":false},{"rt":1916.1999999955297,"stimulus":"[A] option 1, [L] option 2, [G] neither","key_press":65,"name":"choice","trial_type":"html-keyboard-response","trial_index":197,"time_elapsed":399965,"internal_node_id":"0.0-197.0","subject":"S1C1220","sona":"41854","block":3,"time":"2021-09-17T01:11:25.825Z","response":"1st","certainty":"high","char":"A","transposition":-1,"order":["shifted","swapped"],"probe_pitches":[2,7,2,7,2,4,9,-3,9,0,9,-3],"shifted_pitches":[2,7,2,7,2,4,8,-3,9,0,9,-3],"swapped_pitches":[2,7,2,7,2,9,4,-3,9,0,9,-3],"shift_direction":-1,"question_num":171,"has_decoy":false},{"rt":964.4000000059605,"stimulus":"[A] option 1, [L] option 2, [G] neither","key_press":65,"name":"choice","trial_type":"html-keyboard-response","trial_index":208,"time_elapsed":419556,"internal_node_id":"0.0-208.0","subject":"S1C1220","sona":"41854","block":3,"time":"2021-09-17T01:11:25.825Z","response":"1st","certainty":"high","char":"A","transposition":1,"order":["swapped","shifted"],"probe_pitches":[11,8,9,8,3,11,13,1,5,4,3,10],"shifted_pitches":[11,8,9,8,3,11,12,1,5,4,3,10],"swapped_pitches":[11,8,9,8,3,13,11,1,5,4,3,10],"shift_direction":-1,"question_num":181,"has_decoy":false},{"rt":2454.89999999851,"stimulus":"[A] option 1, [L] option 2, [G] neither","key_press":76,"name":"choice","trial_type":"html-keyboard-response","trial_index":219,"time_elapsed":442751,"internal_node_id":"0.0-219.0","subject":"S1C1220","sona":"41854","block":3,"time":"2021-09-17T01:11:25.825Z","response":"2nd","certainty":"high","char":"L","transposition":-1,"order":["swapped","shifted"],"probe_pitches":[0,2,7,0,5,7,2,9,-3,0,-3,9],"shifted_pitches":[0,2,7,0,5,6,2,9,-3,0,-3,9],"swapped_pitches":[0,2,7,0,5,2,7,9,-3,0,-3,9],"shift_direction":-1,"question_num":191,"has_decoy":false}]