[{"rt":739.9000000059605,"stimulus":"[A] option 1, [L] option 2, [G] neither","key_press":65,"name":"choice","trial_type":"html-keyboard-response","trial_index":10,"time_elapsed":21342,"internal_node_id":"0.0-10.0","subject":"S1C1220","sona":"41854","block":6,"time":"2021-09-17T01:39:15.066Z","response":"1st","certainty":"high","char":"A","transposition":-2,"order":["shifted","swapped"],"probe_pitches":[2,4,7,4,12,4,9,12,9,12,4,7],"shifted_pitches":[2,4,7,4,12,3,9,12,9,12,4,7],"swapped_pitches":[2,4,7,4,12,9,4,12,9,12,4,7],"shift_direction":-1,"question_num":1,"has_decoy":false},{"rt":2272.2000000029802,"stimulus":"[A] option 1, [L] option 2, [G] neither","key_press":76,"name":"choice","trial_type":"html-keyboard-response","trial_index":21,"time_elapsed":42708,"internal_node_id":"0.0-21.0","subject":"S1C1220","sona":"41854","block":6,"time":"2021-09-17T01:39:15.066Z","response":"2nd","certainty":"high","char":"L","transposition":-3,"order":["swapped","shifted"],"probe_pitches":[-1,0,1,3,5,7,0,-2,3,2,-3,9],"shifted_pitches":[-1,0,1,3,5,6,0,-2,3,2,-3,9],"swapped_pitches":[-1,0,1,3,5,0,7,-2,3,2,-3,9],"shift_direction":-1,"question_num":11,"has_decoy":false},{"rt":2114.1999999955297,"stimulus":"[A] option 1, [L] option 2, [G] neither","key_press":65,"name":"choice","trial_type":"html-keyboard-response","trial_index":32,"time_elapsed":65745,"internal_node_id":"0.0-32.0","subject":"S1C1220","sona":"41854","block":6,"time":"2021-09-17T01:39:15.066Z","response":"1st","certainty":"high","char":"A","transposition":2,"order":["shifted","swapped"],"probe_pitches":[9,7,2,9,14,4,11,9,11,7,4,9],"shifted_pitches":[9,7,2,9,14,5,11,9,11,7,4,9],"swapped_pitches":[9,7,2,9,14,11,4,9,11,7,4,9],"shift_direction":1,"question_num":21,"has_decoy":false},{"rt":1574.7999999970198,"stimulus":"[A] option 1, [L] option 2, [G] neither","key_press":65,"name":"choice","trial_type":"html-keyboard-response","trial_index":43,"time_elapsed":87503,"internal_node_id":"0.0-43.0","subject":"S1C1220","sona":"41854","block":6,"time":"2021-09-17T01:39:15.066Z","response":"1st","certainty":"high","char":"A","transposition":1,"order":["swapped","shifted"],"probe_pitches":[2,7,11,4,11,4,14,9,11,14,2,4],"shifted_pitches":[2,7,11,4,11,3,14,9,11,14,2,4],"swapped_pitches":[2,7,11,4,11,14,4,9,11,14,2,4],"shift_direction":-1,"question_num":31,"has_decoy":false},{"rt":3493.8000000044703,"stimulus":"[A] option 1, [L] option 2, [G] neither","key_press":76,"name":"choice","trial_type":"html-keyboard-response","trial_index":54,"time_elapsed":110238,"internal_node_id":"0.0-54.0","subject":"S1C1220","sona":"41854","block":6,"time":"2021-09-17T01:39:15.066Z","response":"2nd","certainty":"high","char":"L","transposition":-3,"order":["swapped","shifted"],"probe_pitches":[7,12,10,7,12,10,5,14,2,12,2,14],"shifted_pitches":[7,12,10,7,12,11,5,14,2,12,2,14],"swapped_pitches":[7,12,10,7,12,5,10,14,2,12,2,14],"shift_direction":1,"question_num":41,"has_decoy":false},{"rt":702.3999999985099,"stimulus":"[A] option 1, [L] option 2, [G] neither","key_press":65,"name":"choice","trial_type":"html-keyboard-response","trial_index":65,"time_elapsed":130369,"internal_node_id":"0.0-65.0","subject":"S1C1220","sona":"41854","block":6,"time":"2021-09-17T01:39:15.066Z","response":"1st","certainty":"high","char":"A","transposition":0,"order":["shifted","swapped"],"probe_pitches":[2,5,2,7,2,5,7,10,5,12,10,7],"shifted_pitches":[2,5,2,7,2,5,6,10,5,12,10,7],"swapped_pitches":[2,5,2,7,2,7,5,10,5,12,10,7],"shift_direction":-1,"question_num":51,"has_decoy":false},{"rt":1856.2999999970198,"stimulus":"[A] option 1, [L] option 2, [G] neither","key_press":65,"name":"choice","trial_type":"html-keyboard-response","trial_index":76,"time_elapsed":150648,"internal_node_id":"0.0-76.0","subject":"S1C1220","sona":"41854","block":6,"time":"2021-09-17T01:39:15.066Z","response":"1st","certainty":"high","char":"A","transposition":-1,"order":["shifted","swapped"],"probe_pitches":[-1,4,5,-2,-1,3,7,-3,5,-3,1,3],"shifted_pitches":[-1,4,5,-2,-1,3,8,-3,5,-3,1,3],"swapped_pitches":[-1,4,5,-2,-1,7,3,-3,5,-3,1,3],"shift_direction":1,"question_num":61,"has_decoy":false},{"rt":1717.8999999985099,"stimulus":"[A] option 1, [L] option 2, [G] neither","key_press":65,"name":"choice","trial_type":"html-keyboard-response","trial_index":87,"time_elapsed":171681,"internal_node_id":"0.0-87.0","subject":"S1C1220","sona":"41854","block":6,"time":"2021-09-17T01:39:15.066Z","response":"1st","certainty":"high","char":"A","transposition":0,"order":["shifted","swapped"],"probe_pitches":[7,5,3,1,7,6,1,8,1,3,9,-1],"shifted_pitches":[7,5,3,1,7,6,0,8,1,3,9,-1],"swapped_pitches":[7,5,3,1,7,1,6,8,1,3,9,-1],"shift_direction":-1,"question_num":71,"has_decoy":false},{"rt":933.2000000029802,"stimulus":"[A] option 1, [L] option 2, [G] neither","key_press":65,"name":"choice","trial_type":"html-keyboard-response","trial_index":98,"time_elapsed":193820,"internal_node_id":"0.0-98.0","subject":"S1C1220","sona":"41854","block":6,"time":"2021-09-17T01:39:15.066Z","response":"1st","certainty":"high","char":"A","transposition":1,"order":["shifted","swapped"],"probe_pitches":[9,4,-2,3,7,-3,2,0,-2,-1,7,8],"shifted_pitches":[9,4,-2,3,7,-3,1,0,-2,-1,7,8],"swapped_pitches":[9,4,-2,3,7,2,-3,0,-2,-1,7,8],"shift_direction":-1,"question_num":81,"has_decoy":false},{"rt":1198.5,"stimulus":"[A] option 1, [L] option 2, [G] neither","key_press":65,"name":"choice","trial_type":"html-keyboard-response","trial_index":109,"time_elapsed":213583,"internal_node_id":"0.0-109.0","subject":"S1C1220","sona":"41854","block":6,"time":"2021-09-17T01:39:15.066Z","response":"1st","certainty":"high","char":"A","transposition":3,"order":["swapped","shifted"],"probe_pitches":[2,6,11,14,11,14,9,6,2,4,6,11],"shifted_pitches":[2,6,11,14,11,14,10,6,2,4,6,11],"swapped_pitches":[2,6,11,14,11,9,14,6,2,4,6,11],"shift_direction":1,"question_num":91,"has_decoy":false},{"rt":2336.3000000044703,"stimulus":"[A] option 1, [L] option 2, [G] neither","key_press":76,"name":"choice","trial_type":"html-keyboard-response","trial_index":120,"time_elapsed":235094,"internal_node_id":"0.0-120.0","subject":"S1C1220","sona":"41854","block":6,"time":"2021-09-17T01:39:15.066Z","response":"2nd","certainty":"high","char":"L","transposition":-3,"order":["shifted","swapped"],"probe_pitches":[-2,-1,6,9,8,4,1,2,9,7,-2,-3],"shifted_pitches":[-2,-1,6,9,8,5,1,2,9,7,-2,-3],"swapped_pitches":[-2,-1,6,9,8,1,4,2,9,7,-2,-3],"shift_direction":1,"question_num":101,"has_decoy":false},{"rt":711,"stimulus":"[A] option 1, [L] option 2, [G] neither","key_press":76,"name":"choice","trial_type":"html-keyboard-response","trial_index":131,"time_elapsed":254348,"internal_node_id":"0.0-131.0","subject":"S1C1220","sona":"41854","block":6,"time":"2021-09-17T01:39:15.066Z","response":"2nd","certainty":"high","char":"L","transposition":-1,"order":["swapped","shifted"],"probe_pitches":[4,6,7,4,5,4,-3,6,-3,8,1,-1],"shifted_pitches":[4,6,7,4,5,3,-3,6,-3,8,1,-1],"swapped_pitches":[4,6,7,4,5,-3,4,6,-3,8,1,-1],"shift_direction":-1,"question_num":111,"has_decoy":false},{"rt":1772,"stimulus":"[A] option 1, [L] option 2, [G] neither","key_press":65,"name":"choice","trial_type":"html-keyboard-response","trial_index":142,"time_elapsed":275234,"internal_node_id":"0.0-142.0","subject":"S1C1220","sona":"41854","block":6,"time":"2021-09-17T01:39:15.066Z","response":"1st","certainty":"high","char":"A","transposition":-1,"order":["swapped","shifted"],"probe_pitches":[7,4,9,14,7,9,12,2,14,12,14,9],"shifted_pitches":[7,4,9,14,7,9,13,2,14,12,14,9],"swapped_pitches":[7,4,9,14,7,12,9,2,14,12,14,9],"shift_direction":1,"question_num":121,"has_decoy":false},{"rt":1517.6000000014901,"stimulus":"[A] option 1, [L] option 2, [G] neither","key_press":76,"name":"choice","trial_type":"html-keyboard-response","trial_index":153,"time_elapsed":295320,"internal_node_id":"0.0-153.0","subject":"S1C1220","sona":"41854","block":6,"time":"2021-09-17T01:39:15.066Z","response":"2nd","certainty":"high","char":"L","transposition":-2,"order":["shifted","swapped"],"probe_pitches":[5,7,14,7,5,2,12,9,5,2,12,7],"shifted_pitches":[5,7,14,7,5,2,11,9,5,2,12,7],"swapped_pitches":[5,7,14,7,5,12,2,9,5,2,12,7],"shift_direction":-1,"question_num":131,"has_decoy":false},{"rt":1402.8999999985099,"stimulus":"[A] option 1, [L] option 2, [G] neither","key_press":76,"name":"choice","trial_type":"html-keyboard-response","trial_index":164,"time_elapsed":317306,"internal_node_id":"0.0-164.0","subject":"S1C1220","sona":"41854","block":6,"time":"2021-09-17T01:39:15.066Z","response":"2nd","certainty":"high","char":"L","transposition":2,"order":["shifted","swapped"],"probe_pitches":[6,5,7,0,-3,3,-2,8,6,4,2,7],"shifted_pitches":[6,5,7,0,-3,3,-1,8,6,4,2,7],"swapped_pitches":[6,5,7,0,-3,-2,3,8,6,4,2,7],"shift_direction":1,"question_num":141,"has_decoy":false},{"rt":1825.2000000029802,"stimulus":"[A] option 1, [L] option 2, [G] neither","key_press":76,"name":"choice","trial_type":"html-keyboard-response","trial_index":175,"time_elapsed":338773,"internal_node_id":"0.0-175.0","subject":"S1C1220","sona":"41854","block":6,"time":"2021-09-17T01:39:15.066Z","response":"2nd","certainty":"high","char":"L","transposition":-2,"order":["swapped","shifted"],"probe_pitches":[8,3,1,-3,-1,5,9,1,7,9,3,-2],"shifted_pitches":[8,3,1,-3,-1,4,9,1,7,9,3,-2],"swapped_pitches":[8,3,1,-3,-1,9,5,1,7,9,3,-2],"shift_direction":-1,"question_num":151,"has_decoy":false},{"rt":447.3999999985099,"stimulus":"[A] option 1, [L] option 2, [G] neither","key_press":65,"name":"choice","trial_type":"html-keyboard-response","trial_index":186,"time_elapsed":358494,"internal_node_id":"0.0-186.0","subject":"S1C1220","sona":"41854","block":6,"time":"2021-09-17T01:39:15.066Z","response":"1st","certainty":"high","char":"A","transposition":-2,"order":["swapped","shifted"],"probe_pitches":[3,9,6,4,3,6,2,5,2,6,4,-3],"shifted_pitches":[3,9,6,4,3,7,2,5,2,6,4,-3],"swapped_pitches":[3,9,6,4,3,2,6,5,2,6,4,-3],"shift_direction":1,"question_num":161,"has_decoy":false},{"rt":1427.6000000014901,"stimulus":"[A] option 1, [L] option 2, [G] neither","key_press":76,"name":"choice","trial_type":"html-keyboard-response","trial_index":197,"time_elapsed":379031,"internal_node_id":"0.0-197.0","subject":"S1C1220","sona":"41854","block":6,"time":"2021-09-17T01:39:15.066Z","response":"2nd","certainty":"high","char":"L","transposition":-1,"order":["shifted","swapped"],"probe_pitches":[6,9,2,4,2,4,11,14,11,9,2,9],"shifted_pitches":[6,9,2,4,2,5,11,14,11,9,2,9],"swapped_pitches":[6,9,2,4,2,11,4,14,11,9,2,9],"shift_direction":1,"question_num":171,"has_decoy":false},{"rt":1444.8999999985099,"stimulus":"[A] option 1, [L] option 2, [G] neither","key_press":65,"name":"choice","trial_type":"html-keyboard-response","trial_index":208,"time_elapsed":400493,"internal_node_id":"0.0-208.0","subject":"S1C1220","sona":"41854","block":6,"time":"2021-09-17T01:39:15.066Z","response":"1st","certainty":"high","char":"A","transposition":-3,"order":["swapped","shifted"],"probe_pitches":[2,7,2,5,9,14,7,12,2,7,12,9],"shifted_pitches":[2,7,2,5,9,14,6,12,2,7,12,9],"swapped_pitches":[2,7,2,5,9,7,14,12,2,7,12,9],"shift_direction":-1,"question_num":181,"has_decoy":false},{"rt":1329.3000000044703,"stimulus":"[A] option 1, [L] option 2, [G] neither","key_press":65,"name":"choice","trial_type":"html-keyboard-response","trial_index":219,"time_elapsed":421433,"internal_node_id":"0.0-219.0","subject":"S1C1220","sona":"41854","block":6,"time":"2021-09-17T01:39:15.066Z","response":"1st","certainty":"high","char":"A","transposition":3,"order":["swapped","shifted"],"probe_pitches":[0,1,5,9,5,-3,1,0,6,9,3,7],"shifted_pitches":[0,1,5,9,5,-3,2,0,6,9,3,7],"swapped_pitches":[0,1,5,9,5,1,-3,0,6,9,3,7],"shift_direction":1,"question_num":191,"has_decoy":false}]