[{"rt":729.3999999761581,"stimulus":"[A] option 1, [L] option 2, [G] neither","key_press":65,"name":"choice","trial_type":"html-keyboard-response","trial_index":10,"time_elapsed":28057,"internal_node_id":"0.0-10.0","subject":"S1C1201","sona":"40094","block":2,"time":"2021-09-04T22:53:36.928Z","response":"1st","certainty":"high","char":"A","transposition":3,"order":["shifted","swapped"],"probe_pitches":[8,10,15,13,8,15,13,5,15,5,8,13],"shifted_pitches":[8,10,15,13,8,14,13,5,15,5,8,13],"swapped_pitches":[8,10,15,13,8,13,15,5,15,5,8,13],"shift_direction":-1,"question_num":1,"has_decoy":false},{"rt":1757.6000000238419,"stimulus":"[A] option 1, [L] option 2, [G] neither","key_press":76,"name":"choice","trial_type":"html-keyboard-response","trial_index":21,"time_elapsed":54065,"internal_node_id":"0.0-21.0","subject":"S1C1201","sona":"40094","block":2,"time":"2021-09-04T22:53:36.928Z","response":"2nd","certainty":"high","char":"L","transposition":1,"order":["swapped","shifted"],"probe_pitches":[2,6,5,11,13,12,5,2,13,7,6,11],"shifted_pitches":[2,6,5,11,13,12,4,2,13,7,6,11],"swapped_pitches":[2,6,5,11,13,5,12,2,13,7,6,11],"shift_direction":-1,"question_num":11,"has_decoy":false},{"rt":1447.199999988079,"stimulus":"[A] option 1, [L] option 2, [G] neither","key_press":65,"name":"choice","trial_type":"html-keyboard-response","trial_index":32,"time_elapsed":76515,"internal_node_id":"0.0-32.0","subject":"S1C1201","sona":"40094","block":2,"time":"2021-09-04T22:53:36.928Z","response":"1st","certainty":"high","char":"A","transposition":0,"order":["shifted","swapped"],"probe_pitches":[3,4,11,3,2,12,6,9,3,6,12,5],"shifted_pitches":[3,4,11,3,2,12,7,9,3,6,12,5],"swapped_pitches":[3,4,11,3,2,6,12,9,3,6,12,5],"shift_direction":1,"question_num":21,"has_decoy":false},{"rt":301.80000001192093,"stimulus":"[A] option 1, [L] option 2, [G] neither","key_press":65,"name":"choice","trial_type":"html-keyboard-response","trial_index":43,"time_elapsed":97089,"internal_node_id":"0.0-43.0","subject":"S1C1201","sona":"40094","block":2,"time":"2021-09-04T22:53:36.928Z","response":"1st","certainty":"high","char":"A","transposition":-1,"order":["swapped","shifted"],"probe_pitches":[11,8,3,11,8,3,6,11,8,11,13,6],"shifted_pitches":[11,8,3,11,8,3,7,11,8,11,13,6],"swapped_pitches":[11,8,3,11,8,6,3,11,8,11,13,6],"shift_direction":1,"question_num":31,"has_decoy":false},{"rt":1548.6000000238419,"stimulus":"[A] option 1, [L] option 2, [G] neither","key_press":76,"name":"choice","trial_type":"html-keyboard-response","trial_index":54,"time_elapsed":123345,"internal_node_id":"0.0-54.0","subject":"S1C1201","sona":"40094","block":2,"time":"2021-09-04T22:53:36.928Z","response":"2nd","certainty":"high","char":"L","transposition":2,"order":["shifted","swapped"],"probe_pitches":[6,11,9,6,7,9,10,2,3,11,4,5],"shifted_pitches":[6,11,9,6,7,8,10,2,3,11,4,5],"swapped_pitches":[6,11,9,6,7,10,9,2,3,11,4,5],"shift_direction":-1,"question_num":41,"has_decoy":false},{"rt":1560.7000000178814,"stimulus":"[A] option 1, [L] option 2, [G] neither","key_press":65,"name":"choice","trial_type":"html-keyboard-response","trial_index":65,"time_elapsed":147748,"internal_node_id":"0.0-65.0","subject":"S1C1201","sona":"40094","block":2,"time":"2021-09-04T22:53:36.928Z","response":"1st","certainty":"high","char":"A","transposition":-3,"order":["swapped","shifted"],"probe_pitches":[6,7,2,8,2,4,9,6,1,3,8,13],"shifted_pitches":[6,7,2,8,2,4,10,6,1,3,8,13],"swapped_pitches":[6,7,2,8,2,9,4,6,1,3,8,13],"shift_direction":1,"question_num":51,"has_decoy":false},{"rt":414.39999997615814,"stimulus":"[A] option 1, [L] option 2, [G] neither","key_press":76,"name":"choice","trial_type":"html-keyboard-response","trial_index":76,"time_elapsed":170811,"internal_node_id":"0.0-76.0","subject":"S1C1201","sona":"40094","block":2,"time":"2021-09-04T22:53:36.928Z","response":"2nd","certainty":"high","char":"L","transposition":-2,"order":["swapped","shifted"],"probe_pitches":[10,7,5,12,10,7,5,10,12,3,15,10],"shifted_pitches":[10,7,5,12,10,8,5,10,12,3,15,10],"swapped_pitches":[10,7,5,12,10,5,7,10,12,3,15,10],"shift_direction":1,"question_num":61,"has_decoy":false},{"rt":6148.300000011921,"stimulus":"[A] option 1, [L] option 2, [G] neither","key_press":65,"name":"choice","trial_type":"html-keyboard-response","trial_index":87,"time_elapsed":197895,"internal_node_id":"0.0-87.0","subject":"S1C1201","sona":"40094","block":2,"time":"2021-09-04T22:53:36.928Z","response":"1st","certainty":"high","char":"A","transposition":-3,"order":["swapped","shifted"],"probe_pitches":[5,10,13,11,9,11,10,9,5,6,4,5],"shifted_pitches":[5,10,13,11,9,12,10,9,5,6,4,5],"swapped_pitches":[5,10,13,11,9,10,11,9,5,6,4,5],"shift_direction":1,"question_num":71,"has_decoy":false},{"rt":3982.4000000059605,"stimulus":"[A] option 1, [L] option 2, [G] neither","key_press":76,"name":"choice","trial_type":"html-keyboard-response","trial_index":98,"time_elapsed":223609,"internal_node_id":"0.0-98.0","subject":"S1C1201","sona":"40094","block":2,"time":"2021-09-04T22:53:36.928Z","response":"2nd","certainty":"high","char":"L","transposition":-1,"order":["shifted","swapped"],"probe_pitches":[13,8,13,11,15,11,6,3,8,3,6,15],"shifted_pitches":[13,8,13,11,15,12,6,3,8,3,6,15],"swapped_pitches":[13,8,13,11,15,6,11,3,8,3,6,15],"shift_direction":1,"question_num":81,"has_decoy":false},{"rt":268.19999998807907,"stimulus":"[A] option 1, [L] option 2, [G] neither","key_press":76,"name":"choice","trial_type":"html-keyboard-response","trial_index":109,"time_elapsed":249805,"internal_node_id":"0.0-109.0","subject":"S1C1201","sona":"40094","block":2,"time":"2021-09-04T22:53:36.928Z","response":"2nd","certainty":"high","char":"L","transposition":0,"order":["swapped","shifted"],"probe_pitches":[3,6,10,8,15,13,8,3,15,10,13,3],"shifted_pitches":[3,6,10,8,15,14,8,3,15,10,13,3],"swapped_pitches":[3,6,10,8,15,8,13,3,15,10,13,3],"shift_direction":1,"question_num":91,"has_decoy":false},{"rt":1400,"stimulus":"[A] option 1, [L] option 2, [G] neither","key_press":65,"name":"choice","trial_type":"html-keyboard-response","trial_index":120,"time_elapsed":368334,"internal_node_id":"0.0-120.0","subject":"S1C1201","sona":"40094","block":2,"time":"2021-09-04T22:53:36.928Z","response":"1st","certainty":"high","char":"A","transposition":3,"order":["shifted","swapped"],"probe_pitches":[2,4,11,10,2,7,10,11,10,13,12,4],"shifted_pitches":[2,4,11,10,2,6,10,11,10,13,12,4],"swapped_pitches":[2,4,11,10,2,10,7,11,10,13,12,4],"shift_direction":-1,"question_num":101,"has_decoy":false},{"rt":277.90000000596046,"stimulus":"[A] option 1, [L] option 2, [G] neither","key_press":65,"name":"choice","trial_type":"html-keyboard-response","trial_index":131,"time_elapsed":388692,"internal_node_id":"0.0-131.0","subject":"S1C1201","sona":"40094","block":2,"time":"2021-09-04T22:53:36.928Z","response":"1st","certainty":"high","char":"A","transposition":-1,"order":["shifted","swapped"],"probe_pitches":[4,2,5,2,4,12,9,7,9,13,3,6],"shifted_pitches":[4,2,5,2,4,11,9,7,9,13,3,6],"swapped_pitches":[4,2,5,2,4,9,12,7,9,13,3,6],"shift_direction":-1,"question_num":111,"has_decoy":false},{"rt":215.5,"stimulus":"[A] option 1, [L] option 2, [G] neither","key_press":76,"name":"choice","trial_type":"html-keyboard-response","trial_index":142,"time_elapsed":671792,"internal_node_id":"0.0-142.0","subject":"S1C1201","sona":"40094","block":2,"time":"2021-09-04T22:53:36.928Z","response":"2nd","certainty":"high","char":"L","transposition":1,"order":["swapped","shifted"],"probe_pitches":[8,10,15,10,3,5,12,8,12,5,8,5],"shifted_pitches":[8,10,15,10,3,5,11,8,12,5,8,5],"swapped_pitches":[8,10,15,10,3,12,5,8,12,5,8,5],"shift_direction":-1,"question_num":121,"has_decoy":false},{"rt":1427.4000000059605,"stimulus":"[A] option 1, [L] option 2, [G] neither","key_press":65,"name":"choice","trial_type":"html-keyboard-response","trial_index":153,"time_elapsed":691314,"internal_node_id":"0.0-153.0","subject":"S1C1201","sona":"40094","block":2,"time":"2021-09-04T22:53:36.928Z","response":"1st","certainty":"high","char":"A","transposition":-2,"order":["swapped","shifted"],"probe_pitches":[5,2,5,4,6,4,8,6,8,7,3,5],"shifted_pitches":[5,2,5,4,6,4,9,6,8,7,3,5],"swapped_pitches":[5,2,5,4,6,8,4,6,8,7,3,5],"shift_direction":1,"question_num":131,"has_decoy":false},{"rt":1458.2999999821186,"stimulus":"[A] option 1, [L] option 2, [G] neither","key_press":65,"name":"choice","trial_type":"html-keyboard-response","trial_index":164,"time_elapsed":720615,"internal_node_id":"0.0-164.0","subject":"S1C1201","sona":"40094","block":2,"time":"2021-09-04T22:53:36.928Z","response":"1st","certainty":"high","char":"A","transposition":-1,"order":["swapped","shifted"],"probe_pitches":[1,2,1,6,12,10,4,11,13,2,11,5],"shifted_pitches":[1,2,1,6,12,10,3,11,13,2,11,5],"swapped_pitches":[1,2,1,6,12,4,10,11,13,2,11,5],"shift_direction":-1,"question_num":141,"has_decoy":false},{"rt":691.5,"stimulus":"[A] option 1, [L] option 2, [G] neither","key_press":76,"name":"choice","trial_type":"html-keyboard-response","trial_index":175,"time_elapsed":741209,"internal_node_id":"0.0-175.0","subject":"S1C1201","sona":"40094","block":2,"time":"2021-09-04T22:53:36.928Z","response":"2nd","certainty":"high","char":"L","transposition":-2,"order":["shifted","swapped"],"probe_pitches":[3,7,3,1,2,4,13,3,7,6,2,3],"shifted_pitches":[3,7,3,1,2,5,13,3,7,6,2,3],"swapped_pitches":[3,7,3,1,2,13,4,3,7,6,2,3],"shift_direction":1,"question_num":151,"has_decoy":false},{"rt":650.3000000119209,"stimulus":"[A] option 1, [L] option 2, [G] neither","key_press":65,"name":"choice","trial_type":"html-keyboard-response","trial_index":186,"time_elapsed":763467,"internal_node_id":"0.0-186.0","subject":"S1C1201","sona":"40094","block":2,"time":"2021-09-04T22:53:36.928Z","response":"1st","certainty":"high","char":"A","transposition":-3,"order":["shifted","swapped"],"probe_pitches":[7,10,5,3,10,5,7,12,3,12,3,7],"shifted_pitches":[7,10,5,3,10,5,6,12,3,12,3,7],"swapped_pitches":[7,10,5,3,10,7,5,12,3,12,3,7],"shift_direction":-1,"question_num":161,"has_decoy":false},{"rt":3279.0999999940395,"stimulus":"[A] option 1, [L] option 2, [G] neither","key_press":65,"name":"choice","trial_type":"html-keyboard-response","trial_index":197,"time_elapsed":795046,"internal_node_id":"0.0-197.0","subject":"S1C1201","sona":"40094","block":2,"time":"2021-09-04T22:53:36.928Z","response":"1st","certainty":"high","char":"A","transposition":-3,"order":["shifted","swapped"],"probe_pitches":[10,12,8,15,8,12,3,15,12,10,15,5],"shifted_pitches":[10,12,8,15,8,12,4,15,12,10,15,5],"swapped_pitches":[10,12,8,15,8,3,12,15,12,10,15,5],"shift_direction":1,"question_num":171,"has_decoy":false},{"rt":654,"stimulus":"[A] option 1, [L] option 2, [G] neither","key_press":65,"name":"choice","trial_type":"html-keyboard-response","trial_index":208,"time_elapsed":818451,"internal_node_id":"0.0-208.0","subject":"S1C1201","sona":"40094","block":2,"time":"2021-09-04T22:53:36.928Z","response":"1st","certainty":"high","char":"A","transposition":-2,"order":["shifted","swapped"],"probe_pitches":[3,8,6,10,13,10,3,15,13,3,13,3],"shifted_pitches":[3,8,6,10,13,9,3,15,13,3,13,3],"swapped_pitches":[3,8,6,10,13,3,10,15,13,3,13,3],"shift_direction":-1,"question_num":181,"has_decoy":false},{"rt":2289.5,"stimulus":"[A] option 1, [L] option 2, [G] neither","key_press":65,"name":"choice","trial_type":"html-keyboard-response","trial_index":219,"time_elapsed":841207,"internal_node_id":"0.0-219.0","subject":"S1C1201","sona":"40094","block":2,"time":"2021-09-04T22:53:36.928Z","response":"1st","certainty":"high","char":"A","transposition":2,"order":["swapped","shifted"],"probe_pitches":[13,8,5,3,10,8,13,15,5,3,5,13],"shifted_pitches":[13,8,5,3,10,8,12,15,5,3,5,13],"swapped_pitches":[13,8,5,3,10,13,8,15,5,3,5,13],"shift_direction":-1,"question_num":191,"has_decoy":false}]