[{"rt":7283,"stimulus":"[A] option 1, [L] option 2, [G] neither","key_press":76,"name":"choice","trial_type":"html-keyboard-response","trial_index":15,"time_elapsed":73287,"internal_node_id":"0.0-15.0","response":"2nd","certainty":"high","char":"L","transposition":-2,"order":["shifted","swapped"],"probe_pitches":[3,8,10,6,-2,8,6,-2,3,1,10,6],"shifted_pitches":[3,8,10,6,-2,7,6,-2,3,1,10,6],"swapped_pitches":[3,8,10,6,-2,6,8,-2,3,1,10,6],"shift_direction":-1,"question_num":1,"has_decoy":false,"subject":"S1C1201","sona":"40094","block":1,"time":"2021-09-04T22:39:32.904Z"},{"rt":233.69999998807907,"stimulus":"[A] option 1, [L] option 2, [G] neither","key_press":65,"name":"choice","trial_type":"html-keyboard-response","trial_index":26,"time_elapsed":92508,"internal_node_id":"0.0-26.0","response":"1st","certainty":"high","char":"A","transposition":-1,"order":["swapped","shifted"],"probe_pitches":[8,10,8,10,8,10,5,3,-2,8,1,8],"shifted_pitches":[8,10,8,10,8,10,6,3,-2,8,1,8],"swapped_pitches":[8,10,8,10,8,5,10,3,-2,8,1,8],"shift_direction":1,"question_num":11,"has_decoy":false,"subject":"S1C1201","sona":"40094","block":1,"time":"2021-09-04T22:39:32.904Z"},{"rt":2577.9000000059605,"stimulus":"[A] option 1, [L] option 2, [G] neither","key_press":76,"name":"choice","trial_type":"html-keyboard-response","trial_index":37,"time_elapsed":113801,"internal_node_id":"0.0-37.0","response":"2nd","certainty":"high","char":"L","transposition":-2,"order":["swapped","shifted"],"probe_pitches":[7,11,9,1,7,4,0,2,7,10,3,7],"shifted_pitches":[7,11,9,1,7,5,0,2,7,10,3,7],"swapped_pitches":[7,11,9,1,7,0,4,2,7,10,3,7],"shift_direction":1,"question_num":21,"has_decoy":false,"subject":"S1C1201","sona":"40094","block":1,"time":"2021-09-04T22:39:32.904Z"},{"rt":227,"stimulus":"[A] option 1, [L] option 2, [G] neither","key_press":76,"name":"choice","trial_type":"html-keyboard-response","trial_index":48,"time_elapsed":132180,"internal_node_id":"0.0-48.0","response":"2nd","certainty":"high","char":"L","transposition":-3,"order":["shifted","swapped"],"probe_pitches":[1,3,8,4,7,2,8,10,11,3,1,6],"shifted_pitches":[1,3,8,4,7,2,9,10,11,3,1,6],"swapped_pitches":[1,3,8,4,7,8,2,10,11,3,1,6],"shift_direction":1,"question_num":31,"has_decoy":false,"subject":"S1C1201","sona":"40094","block":1,"time":"2021-09-04T22:39:32.904Z"},{"rt":169.19999998807907,"stimulus":"[A] option 1, [L] option 2, [G] neither","key_press":65,"name":"choice","trial_type":"html-keyboard-response","trial_index":59,"time_elapsed":152803,"internal_node_id":"0.0-59.0","response":"1st","certainty":"high","char":"A","transposition":-1,"order":["swapped","shifted"],"probe_pitches":[0,5,10,5,0,3,-2,8,-2,10,0,10],"shifted_pitches":[0,5,10,5,0,2,-2,8,-2,10,0,10],"swapped_pitches":[0,5,10,5,0,-2,3,8,-2,10,0,10],"shift_direction":-1,"question_num":41,"has_decoy":false,"subject":"S1C1201","sona":"40094","block":1,"time":"2021-09-04T22:39:32.904Z"},{"rt":912.2000000178814,"stimulus":"[A] option 1, [L] option 2, [G] neither","key_press":76,"name":"choice","trial_type":"html-keyboard-response","trial_index":70,"time_elapsed":172827,"internal_node_id":"0.0-70.0","response":"2nd","certainty":"high","char":"L","transposition":-1,"order":["swapped","shifted"],"probe_pitches":[5,7,11,5,-1,1,4,9,4,10,6,7],"shifted_pitches":[5,7,11,5,-1,1,3,9,4,10,6,7],"swapped_pitches":[5,7,11,5,-1,4,1,9,4,10,6,7],"shift_direction":-1,"question_num":51,"has_decoy":false,"subject":"S1C1201","sona":"40094","block":1,"time":"2021-09-04T22:39:32.904Z"},{"rt":1860.800000011921,"stimulus":"[A] option 1, [L] option 2, [G] neither","key_press":65,"name":"choice","trial_type":"html-keyboard-response","trial_index":81,"time_elapsed":194074,"internal_node_id":"0.0-81.0","response":"1st","certainty":"high","char":"A","transposition":2,"order":["shifted","swapped"],"probe_pitches":[7,3,7,3,7,10,5,-2,10,5,0,3],"shifted_pitches":[7,3,7,3,7,9,5,-2,10,5,0,3],"swapped_pitches":[7,3,7,3,7,5,10,-2,10,5,0,3],"shift_direction":-1,"question_num":61,"has_decoy":false,"subject":"S1C1201","sona":"40094","block":1,"time":"2021-09-04T22:39:32.904Z"},{"rt":2164.4000000059605,"stimulus":"[A] option 1, [L] option 2, [G] neither","key_press":76,"name":"choice","trial_type":"html-keyboard-response","trial_index":92,"time_elapsed":214568,"internal_node_id":"0.0-92.0","response":"2nd","certainty":"high","char":"L","transposition":-3,"order":["swapped","shifted"],"probe_pitches":[3,1,8,10,3,1,-2,10,6,-2,10,-2],"shifted_pitches":[3,1,8,10,3,0,-2,10,6,-2,10,-2],"swapped_pitches":[3,1,8,10,3,-2,1,10,6,-2,10,-2],"shift_direction":-1,"question_num":71,"has_decoy":false,"subject":"S1C1201","sona":"40094","block":1,"time":"2021-09-04T22:39:32.904Z"},{"rt":1385.2999999821186,"stimulus":"[A] option 1, [L] option 2, [G] neither","key_press":65,"name":"choice","trial_type":"html-keyboard-response","trial_index":103,"time_elapsed":241209,"internal_node_id":"0.0-103.0","response":"1st","certainty":"high","char":"A","transposition":-1,"order":["swapped","shifted"],"probe_pitches":[0,3,4,3,-1,4,3,11,0,6,11,0],"shifted_pitches":[0,3,4,3,-1,4,2,11,0,6,11,0],"swapped_pitches":[0,3,4,3,-1,3,4,11,0,6,11,0],"shift_direction":-1,"question_num":81,"has_decoy":false,"subject":"S1C1201","sona":"40094","block":1,"time":"2021-09-04T22:39:32.904Z"},{"rt":1891.699999988079,"stimulus":"[A] option 1, [L] option 2, [G] neither","key_press":76,"name":"choice","trial_type":"html-keyboard-response","trial_index":114,"time_elapsed":262695,"internal_node_id":"0.0-114.0","response":"2nd","certainty":"high","char":"L","transposition":0,"order":["swapped","shifted"],"probe_pitches":[2,5,-2,2,10,7,-2,0,-2,0,2,0],"shifted_pitches":[2,5,-2,2,10,8,-2,0,-2,0,2,0],"swapped_pitches":[2,5,-2,2,10,-2,7,0,-2,0,2,0],"shift_direction":1,"question_num":91,"has_decoy":false,"subject":"S1C1201","sona":"40094","block":1,"time":"2021-09-04T22:39:32.904Z"},{"rt":1720.800000011921,"stimulus":"[A] option 1, [L] option 2, [G] neither","key_press":76,"name":"choice","trial_type":"html-keyboard-response","trial_index":125,"time_elapsed":288925,"internal_node_id":"0.0-125.0","response":"2nd","certainty":"high","char":"L","transposition":-2,"order":["swapped","shifted"],"probe_pitches":[11,5,9,1,5,3,0,8,5,11,6,11],"shifted_pitches":[11,5,9,1,5,4,0,8,5,11,6,11],"swapped_pitches":[11,5,9,1,5,0,3,8,5,11,6,11],"shift_direction":1,"question_num":101,"has_decoy":false,"subject":"S1C1201","sona":"40094","block":1,"time":"2021-09-04T22:39:32.904Z"},{"rt":68.59999999403954,"stimulus":"[A] option 1, [L] option 2, [G] neither","key_press":76,"name":"choice","trial_type":"html-keyboard-response","trial_index":136,"time_elapsed":308451,"internal_node_id":"0.0-136.0","response":"2nd","certainty":"high","char":"L","transposition":1,"order":["shifted","swapped"],"probe_pitches":[7,10,3,5,-2,5,10,0,10,3,10,7],"shifted_pitches":[7,10,3,5,-2,5,9,0,10,3,10,7],"swapped_pitches":[7,10,3,5,-2,10,5,0,10,3,10,7],"shift_direction":-1,"question_num":111,"has_decoy":false,"subject":"S1C1201","sona":"40094","block":1,"time":"2021-09-04T22:39:32.904Z"},{"rt":2722.5,"stimulus":"[A] option 1, [L] option 2, [G] neither","key_press":65,"name":"choice","trial_type":"html-keyboard-response","trial_index":147,"time_elapsed":335175,"internal_node_id":"0.0-147.0","response":"1st","certainty":"high","char":"A","transposition":3,"order":["shifted","swapped"],"probe_pitches":[2,0,3,10,11,4,6,11,9,3,8,-1],"shifted_pitches":[2,0,3,10,11,4,7,11,9,3,8,-1],"swapped_pitches":[2,0,3,10,11,6,4,11,9,3,8,-1],"shift_direction":1,"question_num":121,"has_decoy":false,"subject":"S1C1201","sona":"40094","block":1,"time":"2021-09-04T22:39:32.904Z"},{"rt":5145,"stimulus":"[A] option 1, [L] option 2, [G] neither","key_press":65,"name":"choice","trial_type":"html-keyboard-response","trial_index":158,"time_elapsed":368988,"internal_node_id":"0.0-158.0","response":"1st","certainty":"high","char":"A","transposition":-3,"order":["swapped","shifted"],"probe_pitches":[8,2,1,9,2,11,7,2,3,5,4,0],"shifted_pitches":[8,2,1,9,2,10,7,2,3,5,4,0],"swapped_pitches":[8,2,1,9,2,7,11,2,3,5,4,0],"shift_direction":-1,"question_num":131,"has_decoy":false,"subject":"S1C1201","sona":"40094","block":1,"time":"2021-09-04T22:39:32.904Z"},{"rt":1385.2000000178814,"stimulus":"[A] option 1, [L] option 2, [G] neither","key_press":65,"name":"choice","trial_type":"html-keyboard-response","trial_index":169,"time_elapsed":389128,"internal_node_id":"0.0-169.0","response":"1st","certainty":"high","char":"A","transposition":-2,"order":["shifted","swapped"],"probe_pitches":[7,2,0,-2,5,2,7,-2,2,10,2,7],"shifted_pitches":[7,2,0,-2,5,2,8,-2,2,10,2,7],"swapped_pitches":[7,2,0,-2,5,7,2,-2,2,10,2,7],"shift_direction":1,"question_num":141,"has_decoy":false,"subject":"S1C1201","sona":"40094","block":1,"time":"2021-09-04T22:39:32.904Z"},{"rt":568.4000000059605,"stimulus":"[A] option 1, [L] option 2, [G] neither","key_press":65,"name":"choice","trial_type":"html-keyboard-response","trial_index":180,"time_elapsed":411712,"internal_node_id":"0.0-180.0","response":"1st","certainty":"high","char":"A","transposition":0,"order":["shifted","swapped"],"probe_pitches":[11,10,7,4,1,5,0,2,10,2,11,5],"shifted_pitches":[11,10,7,4,1,6,0,2,10,2,11,5],"swapped_pitches":[11,10,7,4,1,0,5,2,10,2,11,5],"shift_direction":1,"question_num":151,"has_decoy":false,"subject":"S1C1201","sona":"40094","block":1,"time":"2021-09-04T22:39:32.904Z"},{"rt":1466.699999988079,"stimulus":"[A] option 1, [L] option 2, [G] neither","key_press":76,"name":"choice","trial_type":"html-keyboard-response","trial_index":191,"time_elapsed":434110,"internal_node_id":"0.0-191.0","response":"2nd","certainty":"high","char":"L","transposition":1,"order":["shifted","swapped"],"probe_pitches":[9,5,8,7,5,2,8,6,-1,10,2,6],"shifted_pitches":[9,5,8,7,5,1,8,6,-1,10,2,6],"swapped_pitches":[9,5,8,7,5,8,2,6,-1,10,2,6],"shift_direction":-1,"question_num":161,"has_decoy":false,"subject":"S1C1201","sona":"40094","block":1,"time":"2021-09-04T22:39:32.904Z"},{"rt":444.40000000596046,"stimulus":"[A] option 1, [L] option 2, [G] neither","key_press":65,"name":"choice","trial_type":"html-keyboard-response","trial_index":202,"time_elapsed":457667,"internal_node_id":"0.0-202.0","response":"1st","certainty":"high","char":"A","transposition":2,"order":["shifted","swapped"],"probe_pitches":[4,9,2,9,4,11,9,10,-1,10,1,3],"shifted_pitches":[4,9,2,9,4,11,8,10,-1,10,1,3],"swapped_pitches":[4,9,2,9,4,9,11,10,-1,10,1,3],"shift_direction":-1,"question_num":171,"has_decoy":false,"subject":"S1C1201","sona":"40094","block":1,"time":"2021-09-04T22:39:32.904Z"},{"rt":2446.699999988079,"stimulus":"[A] option 1, [L] option 2, [G] neither","key_press":65,"name":"choice","trial_type":"html-keyboard-response","trial_index":213,"time_elapsed":481759,"internal_node_id":"0.0-213.0","response":"1st","certainty":"high","char":"A","transposition":3,"order":["swapped","shifted"],"probe_pitches":[10,8,10,3,10,1,-2,5,8,3,5,8],"shifted_pitches":[10,8,10,3,10,1,-1,5,8,3,5,8],"swapped_pitches":[10,8,10,3,10,-2,1,5,8,3,5,8],"shift_direction":1,"question_num":181,"has_decoy":false,"subject":"S1C1201","sona":"40094","block":1,"time":"2021-09-04T22:39:32.904Z"},{"rt":590.4000000059605,"stimulus":"[A] option 1, [L] option 2, [G] neither","key_press":65,"name":"choice","trial_type":"html-keyboard-response","trial_index":224,"time_elapsed":505254,"internal_node_id":"0.0-224.0","response":"1st","certainty":"high","char":"A","transposition":-3,"order":["shifted","swapped"],"probe_pitches":[5,10,8,5,-2,0,10,3,-2,10,3,10],"shifted_pitches":[5,10,8,5,-2,0,11,3,-2,10,3,10],"swapped_pitches":[5,10,8,5,-2,10,0,3,-2,10,3,10],"shift_direction":1,"question_num":191,"has_decoy":false,"subject":"S1C1201","sona":"40094","block":1,"time":"2021-09-04T22:39:32.904Z"}]