[{"rt":1127.5,"stimulus":"[A] option 1, [L] option 2, [G] neither","key_press":76,"name":"choice","trial_type":"html-keyboard-response","trial_index":10,"time_elapsed":43501,"internal_node_id":"0.0-10.0","subject":"S1C1201","sona":"40094","block":6,"time":"2021-09-04T23:32:15.889Z","response":"2nd","certainty":"high","char":"L","transposition":3,"order":["shifted","swapped"],"probe_pitches":[12,10,7,12,10,5,12,2,12,2,10,0],"shifted_pitches":[12,10,7,12,10,5,11,2,12,2,10,0],"swapped_pitches":[12,10,7,12,10,12,5,2,12,2,10,0],"shift_direction":-1,"question_num":1,"has_decoy":false},{"rt":1685.800000011921,"stimulus":"[A] option 1, [L] option 2, [G] neither","key_press":76,"name":"choice","trial_type":"html-keyboard-response","trial_index":21,"time_elapsed":77419,"internal_node_id":"0.0-21.0","subject":"S1C1201","sona":"40094","block":6,"time":"2021-09-04T23:32:15.889Z","response":"2nd","certainty":"high","char":"L","transposition":2,"order":["shifted","swapped"],"probe_pitches":[0,3,10,5,12,3,7,5,0,5,3,5],"shifted_pitches":[0,3,10,5,12,4,7,5,0,5,3,5],"swapped_pitches":[0,3,10,5,12,7,3,5,0,5,3,5],"shift_direction":1,"question_num":11,"has_decoy":false},{"rt":3413.800000011921,"stimulus":"[A] option 1, [L] option 2, [G] neither","key_press":65,"name":"choice","trial_type":"html-keyboard-response","trial_index":32,"time_elapsed":109176,"internal_node_id":"0.0-32.0","subject":"S1C1201","sona":"40094","block":6,"time":"2021-09-04T23:32:15.889Z","response":"1st","certainty":"high","char":"A","transposition":-3,"order":["shifted","swapped"],"probe_pitches":[13,12,9,11,8,6,11,7,5,3,12,4],"shifted_pitches":[13,12,9,11,8,6,10,7,5,3,12,4],"swapped_pitches":[13,12,9,11,8,11,6,7,5,3,12,4],"shift_direction":-1,"question_num":21,"has_decoy":false},{"rt":4289.200000017881,"stimulus":"[A] option 1, [L] option 2, [G] neither","key_press":65,"name":"choice","trial_type":"html-keyboard-response","trial_index":43,"time_elapsed":132791,"internal_node_id":"0.0-43.0","subject":"S1C1201","sona":"40094","block":6,"time":"2021-09-04T23:32:15.889Z","response":"1st","certainty":"high","char":"A","transposition":-2,"order":["swapped","shifted"],"probe_pitches":[9,10,8,7,12,9,2,13,7,1,6,2],"shifted_pitches":[9,10,8,7,12,9,3,13,7,1,6,2],"swapped_pitches":[9,10,8,7,12,2,9,13,7,1,6,2],"shift_direction":1,"question_num":31,"has_decoy":false},{"rt":2648.7999999821186,"stimulus":"[A] option 1, [L] option 2, [G] neither","key_press":76,"name":"choice","trial_type":"html-keyboard-response","trial_index":54,"time_elapsed":154251,"internal_node_id":"0.0-54.0","subject":"S1C1201","sona":"40094","block":6,"time":"2021-09-04T23:32:15.889Z","response":"2nd","certainty":"high","char":"L","transposition":-1,"order":["swapped","shifted"],"probe_pitches":[4,2,0,4,9,7,0,2,9,2,4,9],"shifted_pitches":[4,2,0,4,9,7,-1,2,9,2,4,9],"swapped_pitches":[4,2,0,4,9,0,7,2,9,2,4,9],"shift_direction":-1,"question_num":41,"has_decoy":false},{"rt":661,"stimulus":"[A] option 1, [L] option 2, [G] neither","key_press":76,"name":"choice","trial_type":"html-keyboard-response","trial_index":65,"time_elapsed":173094,"internal_node_id":"0.0-65.0","subject":"S1C1201","sona":"40094","block":6,"time":"2021-09-04T23:32:15.889Z","response":"2nd","certainty":"high","char":"L","transposition":-2,"order":["swapped","shifted"],"probe_pitches":[2,0,2,5,0,7,5,10,2,12,0,10],"shifted_pitches":[2,0,2,5,0,8,5,10,2,12,0,10],"swapped_pitches":[2,0,2,5,0,5,7,10,2,12,0,10],"shift_direction":1,"question_num":51,"has_decoy":false},{"rt":3014.9000000059605,"stimulus":"[A] option 1, [L] option 2, [G] neither","key_press":76,"name":"choice","trial_type":"html-keyboard-response","trial_index":76,"time_elapsed":194507,"internal_node_id":"0.0-76.0","subject":"S1C1201","sona":"40094","block":6,"time":"2021-09-04T23:32:15.889Z","response":"2nd","certainty":"high","char":"L","transposition":1,"order":["shifted","swapped"],"probe_pitches":[1,2,6,12,3,6,11,7,10,6,12,1],"shifted_pitches":[1,2,6,12,3,5,11,7,10,6,12,1],"swapped_pitches":[1,2,6,12,3,11,6,7,10,6,12,1],"shift_direction":-1,"question_num":61,"has_decoy":false},{"rt":84.10000002384186,"stimulus":"[A] option 1, [L] option 2, [G] neither","key_press":76,"name":"choice","trial_type":"html-keyboard-response","trial_index":87,"time_elapsed":212766,"internal_node_id":"0.0-87.0","subject":"S1C1201","sona":"40094","block":6,"time":"2021-09-04T23:32:15.889Z","response":"2nd","certainty":"high","char":"L","transposition":-3,"order":["swapped","shifted"],"probe_pitches":[3,1,6,8,7,12,4,5,3,12,13,2],"shifted_pitches":[3,1,6,8,7,11,4,5,3,12,13,2],"swapped_pitches":[3,1,6,8,7,4,12,5,3,12,13,2],"shift_direction":-1,"question_num":71,"has_decoy":false},{"rt":3008.399999976158,"stimulus":"[A] option 1, [L] option 2, [G] neither","key_press":76,"name":"choice","trial_type":"html-keyboard-response","trial_index":98,"time_elapsed":234101,"internal_node_id":"0.0-98.0","subject":"S1C1201","sona":"40094","block":6,"time":"2021-09-04T23:32:15.889Z","response":"2nd","certainty":"high","char":"L","transposition":-3,"order":["swapped","shifted"],"probe_pitches":[3,8,5,12,5,0,10,5,3,12,0,10],"shifted_pitches":[3,8,5,12,5,1,10,5,3,12,0,10],"swapped_pitches":[3,8,5,12,5,10,0,5,3,12,0,10],"shift_direction":1,"question_num":81,"has_decoy":false},{"rt":287.19999998807907,"stimulus":"[A] option 1, [L] option 2, [G] neither","key_press":65,"name":"choice","trial_type":"html-keyboard-response","trial_index":109,"time_elapsed":252650,"internal_node_id":"0.0-109.0","subject":"S1C1201","sona":"40094","block":6,"time":"2021-09-04T23:32:15.889Z","response":"1st","certainty":"high","char":"A","transposition":1,"order":["swapped","shifted"],"probe_pitches":[0,5,9,12,5,9,0,7,2,9,2,5],"shifted_pitches":[0,5,9,12,5,8,0,7,2,9,2,5],"swapped_pitches":[0,5,9,12,5,0,9,7,2,9,2,5],"shift_direction":-1,"question_num":91,"has_decoy":false},{"rt":1743,"stimulus":"[A] option 1, [L] option 2, [G] neither","key_press":76,"name":"choice","trial_type":"html-keyboard-response","trial_index":120,"time_elapsed":272645,"internal_node_id":"0.0-120.0","subject":"S1C1201","sona":"40094","block":6,"time":"2021-09-04T23:32:15.889Z","response":"2nd","certainty":"high","char":"L","transposition":2,"order":["swapped","shifted"],"probe_pitches":[4,6,12,9,8,6,9,13,11,6,3,1],"shifted_pitches":[4,6,12,9,8,7,9,13,11,6,3,1],"swapped_pitches":[4,6,12,9,8,9,6,13,11,6,3,1],"shift_direction":1,"question_num":101,"has_decoy":false},{"rt":2059.5,"stimulus":"[A] option 1, [L] option 2, [G] neither","key_press":65,"name":"choice","trial_type":"html-keyboard-response","trial_index":131,"time_elapsed":293132,"internal_node_id":"0.0-131.0","subject":"S1C1201","sona":"40094","block":6,"time":"2021-09-04T23:32:15.889Z","response":"1st","certainty":"high","char":"A","transposition":0,"order":["swapped","shifted"],"probe_pitches":[11,6,3,7,5,13,7,3,4,2,3,4],"shifted_pitches":[11,6,3,7,5,12,7,3,4,2,3,4],"swapped_pitches":[11,6,3,7,5,7,13,3,4,2,3,4],"shift_direction":-1,"question_num":111,"has_decoy":false},{"rt":1804.6000000238419,"stimulus":"[A] option 1, [L] option 2, [G] neither","key_press":76,"name":"choice","trial_type":"html-keyboard-response","trial_index":142,"time_elapsed":313517,"internal_node_id":"0.0-142.0","subject":"S1C1201","sona":"40094","block":6,"time":"2021-09-04T23:32:15.889Z","response":"2nd","certainty":"high","char":"L","transposition":3,"order":["shifted","swapped"],"probe_pitches":[12,10,7,12,8,10,5,8,13,10,5,11],"shifted_pitches":[12,10,7,12,8,10,6,8,13,10,5,11],"swapped_pitches":[12,10,7,12,8,5,10,8,13,10,5,11],"shift_direction":1,"question_num":121,"has_decoy":false},{"rt":143.69999998807907,"stimulus":"[A] option 1, [L] option 2, [G] neither","key_press":76,"name":"choice","trial_type":"html-keyboard-response","trial_index":153,"time_elapsed":332196,"internal_node_id":"0.0-153.0","subject":"S1C1201","sona":"40094","block":6,"time":"2021-09-04T23:32:15.889Z","response":"2nd","certainty":"high","char":"L","transposition":-1,"order":["swapped","shifted"],"probe_pitches":[13,10,9,11,2,11,5,9,12,8,2,10],"shifted_pitches":[13,10,9,11,2,11,4,9,12,8,2,10],"swapped_pitches":[13,10,9,11,2,5,11,9,12,8,2,10],"shift_direction":-1,"question_num":131,"has_decoy":false},{"rt":3429.9000000059605,"stimulus":"[A] option 1, [L] option 2, [G] neither","key_press":65,"name":"choice","trial_type":"html-keyboard-response","trial_index":164,"time_elapsed":354082,"internal_node_id":"0.0-164.0","subject":"S1C1201","sona":"40094","block":6,"time":"2021-09-04T23:32:15.889Z","response":"1st","certainty":"high","char":"A","transposition":-2,"order":["shifted","swapped"],"probe_pitches":[3,6,1,6,11,8,12,7,5,7,5,3],"shifted_pitches":[3,6,1,6,11,9,12,7,5,7,5,3],"swapped_pitches":[3,6,1,6,11,12,8,7,5,7,5,3],"shift_direction":1,"question_num":141,"has_decoy":false},{"rt":5292.5999999940395,"stimulus":"[A] option 1, [L] option 2, [G] neither","key_press":76,"name":"choice","trial_type":"html-keyboard-response","trial_index":175,"time_elapsed":377474,"internal_node_id":"0.0-175.0","subject":"S1C1201","sona":"40094","block":6,"time":"2021-09-04T23:32:15.889Z","response":"2nd","certainty":"high","char":"L","transposition":-3,"order":["shifted","swapped"],"probe_pitches":[8,5,3,0,5,10,3,0,3,8,10,0],"shifted_pitches":[8,5,3,0,5,9,3,0,3,8,10,0],"swapped_pitches":[8,5,3,0,5,3,10,0,3,8,10,0],"shift_direction":-1,"question_num":151,"has_decoy":false},{"rt":4863.5,"stimulus":"[A] option 1, [L] option 2, [G] neither","key_press":65,"name":"choice","trial_type":"html-keyboard-response","trial_index":186,"time_elapsed":400526,"internal_node_id":"0.0-186.0","subject":"S1C1201","sona":"40094","block":6,"time":"2021-09-04T23:32:15.889Z","response":"1st","certainty":"high","char":"A","transposition":-1,"order":["shifted","swapped"],"probe_pitches":[0,3,5,10,7,12,3,5,3,0,3,10],"shifted_pitches":[0,3,5,10,7,12,4,5,3,0,3,10],"swapped_pitches":[0,3,5,10,7,3,12,5,3,0,3,10],"shift_direction":1,"question_num":161,"has_decoy":false},{"rt":5703.5,"stimulus":"[A] option 1, [L] option 2, [G] neither","key_press":76,"name":"choice","trial_type":"html-keyboard-response","trial_index":197,"time_elapsed":435346,"internal_node_id":"0.0-197.0","subject":"S1C1201","sona":"40094","block":6,"time":"2021-09-04T23:32:15.889Z","response":"2nd","certainty":"high","char":"L","transposition":0,"order":["shifted","swapped"],"probe_pitches":[0,2,0,7,2,4,7,2,9,12,4,9],"shifted_pitches":[0,2,0,7,2,4,8,2,9,12,4,9],"swapped_pitches":[0,2,0,7,2,7,4,2,9,12,4,9],"shift_direction":1,"question_num":171,"has_decoy":false},{"rt":234.7999999821186,"stimulus":"[A] option 1, [L] option 2, [G] neither","key_press":65,"name":"choice","trial_type":"html-keyboard-response","trial_index":208,"time_elapsed":453927,"internal_node_id":"0.0-208.0","subject":"S1C1201","sona":"40094","block":6,"time":"2021-09-04T23:32:15.889Z","response":"1st","certainty":"high","char":"A","transposition":-2,"order":["swapped","shifted"],"probe_pitches":[2,7,0,7,0,5,7,9,2,0,2,7],"shifted_pitches":[2,7,0,7,0,5,6,9,2,0,2,7],"swapped_pitches":[2,7,0,7,0,7,5,9,2,0,2,7],"shift_direction":-1,"question_num":181,"has_decoy":false},{"rt":501.89999997615814,"stimulus":"[A] option 1, [L] option 2, [G] neither","key_press":76,"name":"choice","trial_type":"html-keyboard-response","trial_index":219,"time_elapsed":472705,"internal_node_id":"0.0-219.0","subject":"S1C1201","sona":"40094","block":6,"time":"2021-09-04T23:32:15.889Z","response":"2nd","certainty":"high","char":"L","transposition":-1,"order":["shifted","swapped"],"probe_pitches":[13,10,11,7,13,5,7,9,2,11,2,9],"shifted_pitches":[13,10,11,7,13,5,8,9,2,11,2,9],"swapped_pitches":[13,10,11,7,13,7,5,9,2,11,2,9],"shift_direction":1,"question_num":191,"has_decoy":false}]