[{"rt":833.1999999880791,"stimulus":"[A] option 1, [L] option 2, [G] neither","key_press":65,"name":"choice","trial_type":"html-keyboard-response","trial_index":10,"time_elapsed":24423,"internal_node_id":"0.0-10.0","subject":"S1C1201","sona":"40094","block":4,"time":"2021-09-04T23:13:28.378Z","response":"1st","certainty":"high","char":"A","transposition":-1,"order":["shifted","swapped"],"probe_pitches":[5,9,2,-1,5,9,3,5,6,4,2,1],"shifted_pitches":[5,9,2,-1,5,10,3,5,6,4,2,1],"swapped_pitches":[5,9,2,-1,5,3,9,5,6,4,2,1],"shift_direction":1,"question_num":1,"has_decoy":false},{"rt":347.69999998807907,"stimulus":"[A] option 1, [L] option 2, [G] neither","key_press":76,"name":"choice","trial_type":"html-keyboard-response","trial_index":21,"time_elapsed":67428,"internal_node_id":"0.0-21.0","subject":"S1C1201","sona":"40094","block":4,"time":"2021-09-04T23:13:28.378Z","response":"2nd","certainty":"high","char":"L","transposition":-3,"order":["swapped","shifted"],"probe_pitches":[7,2,3,4,-1,9,1,3,6,7,3,2],"shifted_pitches":[7,2,3,4,-1,8,1,3,6,7,3,2],"swapped_pitches":[7,2,3,4,-1,1,9,3,6,7,3,2],"shift_direction":-1,"question_num":11,"has_decoy":false},{"rt":2624.199999988079,"stimulus":"[A] option 1, [L] option 2, [G] neither","key_press":65,"name":"choice","trial_type":"html-keyboard-response","trial_index":32,"time_elapsed":108874,"internal_node_id":"0.0-32.0","subject":"S1C1201","sona":"40094","block":4,"time":"2021-09-04T23:13:28.378Z","response":"1st","certainty":"high","char":"A","transposition":0,"order":["swapped","shifted"],"probe_pitches":[12,7,12,15,12,10,7,15,3,5,12,15],"shifted_pitches":[12,7,12,15,12,9,7,15,3,5,12,15],"swapped_pitches":[12,7,12,15,12,7,10,15,3,5,12,15],"shift_direction":-1,"question_num":21,"has_decoy":false},{"rt":4113.0999999940395,"stimulus":"[A] option 1, [L] option 2, [G] neither","key_press":76,"name":"choice","trial_type":"html-keyboard-response","trial_index":43,"time_elapsed":147863,"internal_node_id":"0.0-43.0","subject":"S1C1201","sona":"40094","block":4,"time":"2021-09-04T23:13:28.378Z","response":"2nd","certainty":"high","char":"L","transposition":-3,"order":["swapped","shifted"],"probe_pitches":[3,7,3,7,12,5,7,12,3,12,10,7],"shifted_pitches":[3,7,3,7,12,5,8,12,3,12,10,7],"swapped_pitches":[3,7,3,7,12,7,5,12,3,12,10,7],"shift_direction":1,"question_num":31,"has_decoy":false},{"rt":1918.7000000178814,"stimulus":"[A] option 1, [L] option 2, [G] neither","key_press":65,"name":"choice","trial_type":"html-keyboard-response","trial_index":54,"time_elapsed":172769,"internal_node_id":"0.0-54.0","subject":"S1C1201","sona":"40094","block":4,"time":"2021-09-04T23:13:28.378Z","response":"1st","certainty":"high","char":"A","transposition":3,"order":["swapped","shifted"],"probe_pitches":[10,8,15,12,3,8,12,3,12,3,5,8],"shifted_pitches":[10,8,15,12,3,8,13,3,12,3,5,8],"swapped_pitches":[10,8,15,12,3,12,8,3,12,3,5,8],"shift_direction":1,"question_num":41,"has_decoy":false},{"rt":30068.29999998212,"stimulus":"[A] option 1, [L] option 2, [G] neither","key_press":65,"name":"choice","trial_type":"html-keyboard-response","trial_index":65,"time_elapsed":222398,"internal_node_id":"0.0-65.0","subject":"S1C1201","sona":"40094","block":4,"time":"2021-09-04T23:13:28.378Z","response":"1st","certainty":"high","char":"A","transposition":1,"order":["swapped","shifted"],"probe_pitches":[10,11,9,6,-1,4,6,5,2,6,-1,9],"shifted_pitches":[10,11,9,6,-1,4,7,5,2,6,-1,9],"swapped_pitches":[10,11,9,6,-1,6,4,5,2,6,-1,9],"shift_direction":1,"question_num":51,"has_decoy":false},{"rt":9443.40000000596,"stimulus":"[A] option 1, [L] option 2, [G] neither","key_press":65,"name":"choice","trial_type":"html-keyboard-response","trial_index":76,"time_elapsed":257096,"internal_node_id":"0.0-76.0","subject":"S1C1201","sona":"40094","block":4,"time":"2021-09-04T23:13:28.378Z","response":"1st","certainty":"high","char":"A","transposition":-1,"order":["swapped","shifted"],"probe_pitches":[3,6,13,8,13,11,6,13,3,11,3,11],"shifted_pitches":[3,6,13,8,13,11,7,13,3,11,3,11],"swapped_pitches":[3,6,13,8,13,6,11,13,3,11,3,11],"shift_direction":1,"question_num":61,"has_decoy":false},{"rt":1015.5999999940395,"stimulus":"[A] option 1, [L] option 2, [G] neither","key_press":65,"name":"choice","trial_type":"html-keyboard-response","trial_index":87,"time_elapsed":285809,"internal_node_id":"0.0-87.0","subject":"S1C1201","sona":"40094","block":4,"time":"2021-09-04T23:13:28.378Z","response":"1st","certainty":"high","char":"A","transposition":-3,"order":["swapped","shifted"],"probe_pitches":[3,4,10,11,8,0,6,11,1,7,4,2],"shifted_pitches":[3,4,10,11,8,0,5,11,1,7,4,2],"swapped_pitches":[3,4,10,11,8,6,0,11,1,7,4,2],"shift_direction":-1,"question_num":71,"has_decoy":false},{"rt":540.6999999880791,"stimulus":"[A] option 1, [L] option 2, [G] neither","key_press":76,"name":"choice","trial_type":"html-keyboard-response","trial_index":98,"time_elapsed":307303,"internal_node_id":"0.0-98.0","subject":"S1C1201","sona":"40094","block":4,"time":"2021-09-04T23:13:28.378Z","response":"2nd","certainty":"high","char":"L","transposition":-2,"order":["shifted","swapped"],"probe_pitches":[8,3,8,6,8,3,13,10,6,8,15,8],"shifted_pitches":[8,3,8,6,8,3,12,10,6,8,15,8],"swapped_pitches":[8,3,8,6,8,13,3,10,6,8,15,8],"shift_direction":-1,"question_num":81,"has_decoy":false},{"rt":273.10000002384186,"stimulus":"[A] option 1, [L] option 2, [G] neither","key_press":76,"name":"choice","trial_type":"html-keyboard-response","trial_index":109,"time_elapsed":339796,"internal_node_id":"0.0-109.0","subject":"S1C1201","sona":"40094","block":4,"time":"2021-09-04T23:13:28.378Z","response":"2nd","certainty":"high","char":"L","transposition":0,"order":["shifted","swapped"],"probe_pitches":[7,6,11,10,6,5,3,0,3,1,-1,2],"shifted_pitches":[7,6,11,10,6,5,4,0,3,1,-1,2],"swapped_pitches":[7,6,11,10,6,3,5,0,3,1,-1,2],"shift_direction":1,"question_num":91,"has_decoy":false},{"rt":317.30000001192093,"stimulus":"[A] option 1, [L] option 2, [G] neither","key_press":76,"name":"choice","trial_type":"html-keyboard-response","trial_index":120,"time_elapsed":359101,"internal_node_id":"0.0-120.0","subject":"S1C1201","sona":"40094","block":4,"time":"2021-09-04T23:13:28.378Z","response":"2nd","certainty":"high","char":"L","transposition":1,"order":["shifted","swapped"],"probe_pitches":[3,5,8,3,5,10,8,13,10,15,13,5],"shifted_pitches":[3,5,8,3,5,11,8,13,10,15,13,5],"swapped_pitches":[3,5,8,3,5,8,10,13,10,15,13,5],"shift_direction":1,"question_num":101,"has_decoy":false},{"rt":9708.700000017881,"stimulus":"[A] option 1, [L] option 2, [G] neither","key_press":65,"name":"choice","trial_type":"html-keyboard-response","trial_index":131,"time_elapsed":387741,"internal_node_id":"0.0-131.0","subject":"S1C1201","sona":"40094","block":4,"time":"2021-09-04T23:13:28.378Z","response":"1st","certainty":"high","char":"A","transposition":2,"order":["shifted","swapped"],"probe_pitches":[3,6,10,13,15,10,13,8,13,3,13,8],"shifted_pitches":[3,6,10,13,15,9,13,8,13,3,13,8],"swapped_pitches":[3,6,10,13,15,13,10,8,13,3,13,8],"shift_direction":-1,"question_num":111,"has_decoy":false},{"rt":1050.199999988079,"stimulus":"[A] option 1, [L] option 2, [G] neither","key_press":65,"name":"choice","trial_type":"html-keyboard-response","trial_index":142,"time_elapsed":415343,"internal_node_id":"0.0-142.0","subject":"S1C1201","sona":"40094","block":4,"time":"2021-09-04T23:13:28.378Z","response":"1st","certainty":"high","char":"A","transposition":-1,"order":["shifted","swapped"],"probe_pitches":[8,3,8,12,3,12,15,5,10,12,8,15],"shifted_pitches":[8,3,8,12,3,12,14,5,10,12,8,15],"swapped_pitches":[8,3,8,12,3,15,12,5,10,12,8,15],"shift_direction":-1,"question_num":121,"has_decoy":false},{"rt":1443.4000000059605,"stimulus":"[A] option 1, [L] option 2, [G] neither","key_press":65,"name":"choice","trial_type":"html-keyboard-response","trial_index":153,"time_elapsed":436306,"internal_node_id":"0.0-153.0","subject":"S1C1201","sona":"40094","block":4,"time":"2021-09-04T23:13:28.378Z","response":"1st","certainty":"high","char":"A","transposition":-2,"order":["shifted","swapped"],"probe_pitches":[13,8,15,8,13,3,11,6,8,15,11,13],"shifted_pitches":[13,8,15,8,13,4,11,6,8,15,11,13],"swapped_pitches":[13,8,15,8,13,11,3,6,8,15,11,13],"shift_direction":1,"question_num":131,"has_decoy":false},{"rt":10473.09999999404,"stimulus":"[A] option 1, [L] option 2, [G] neither","key_press":65,"name":"choice","trial_type":"html-keyboard-response","trial_index":164,"time_elapsed":472466,"internal_node_id":"0.0-164.0","subject":"S1C1201","sona":"40094","block":4,"time":"2021-09-04T23:13:28.378Z","response":"1st","certainty":"high","char":"A","transposition":-2,"order":["shifted","swapped"],"probe_pitches":[1,4,7,9,10,8,1,0,9,6,9,-1],"shifted_pitches":[1,4,7,9,10,8,2,0,9,6,9,-1],"swapped_pitches":[1,4,7,9,10,1,8,0,9,6,9,-1],"shift_direction":1,"question_num":141,"has_decoy":false},{"rt":7652.5,"stimulus":"[A] option 1, [L] option 2, [G] neither","key_press":65,"name":"choice","trial_type":"html-keyboard-response","trial_index":175,"time_elapsed":540331,"internal_node_id":"0.0-175.0","subject":"S1C1201","sona":"40094","block":4,"time":"2021-09-04T23:13:28.378Z","response":"1st","certainty":"high","char":"A","transposition":2,"order":["swapped","shifted"],"probe_pitches":[5,11,6,-1,7,10,1,2,3,5,6,0],"shifted_pitches":[5,11,6,-1,7,9,1,2,3,5,6,0],"swapped_pitches":[5,11,6,-1,7,1,10,2,3,5,6,0],"shift_direction":-1,"question_num":151,"has_decoy":false},{"rt":2289.2000000178814,"stimulus":"[A] option 1, [L] option 2, [G] neither","key_press":65,"name":"choice","trial_type":"html-keyboard-response","trial_index":186,"time_elapsed":578897,"internal_node_id":"0.0-186.0","subject":"S1C1201","sona":"40094","block":4,"time":"2021-09-04T23:13:28.378Z","response":"1st","certainty":"high","char":"A","transposition":-2,"order":["shifted","swapped"],"probe_pitches":[5,7,3,0,8,7,2,10,2,10,8,0],"shifted_pitches":[5,7,3,0,8,6,2,10,2,10,8,0],"swapped_pitches":[5,7,3,0,8,2,7,10,2,10,8,0],"shift_direction":-1,"question_num":161,"has_decoy":false},{"rt":4573.200000017881,"stimulus":"[A] option 1, [L] option 2, [G] neither","key_press":65,"name":"choice","trial_type":"html-keyboard-response","trial_index":197,"time_elapsed":627717,"internal_node_id":"0.0-197.0","subject":"S1C1201","sona":"40094","block":4,"time":"2021-09-04T23:13:28.378Z","response":"1st","certainty":"high","char":"A","transposition":-3,"order":["swapped","shifted"],"probe_pitches":[10,13,8,3,10,15,5,3,10,3,8,13],"shifted_pitches":[10,13,8,3,10,14,5,3,10,3,8,13],"swapped_pitches":[10,13,8,3,10,5,15,3,10,3,8,13],"shift_direction":-1,"question_num":171,"has_decoy":false},{"rt":11032,"stimulus":"[A] option 1, [L] option 2, [G] neither","key_press":76,"name":"choice","trial_type":"html-keyboard-response","trial_index":208,"time_elapsed":660037,"internal_node_id":"0.0-208.0","subject":"S1C1201","sona":"40094","block":4,"time":"2021-09-04T23:13:28.378Z","response":"2nd","certainty":"high","char":"L","transposition":3,"order":["shifted","swapped"],"probe_pitches":[9,10,11,4,9,2,4,11,0,7,0,9],"shifted_pitches":[9,10,11,4,9,1,4,11,0,7,0,9],"swapped_pitches":[9,10,11,4,9,4,2,11,0,7,0,9],"shift_direction":-1,"question_num":181,"has_decoy":false},{"rt":6387.5,"stimulus":"[A] option 1, [L] option 2, [G] neither","key_press":65,"name":"choice","trial_type":"html-keyboard-response","trial_index":219,"time_elapsed":686322,"internal_node_id":"0.0-219.0","subject":"S1C1201","sona":"40094","block":4,"time":"2021-09-04T23:13:28.378Z","response":"1st","certainty":"high","char":"A","transposition":-1,"order":["swapped","shifted"],"probe_pitches":[5,4,8,0,7,8,2,0,1,9,6,2],"shifted_pitches":[5,4,8,0,7,8,3,0,1,9,6,2],"swapped_pitches":[5,4,8,0,7,2,8,0,1,9,6,2],"shift_direction":1,"question_num":191,"has_decoy":false}]