[{"rt":244.40000000596046,"stimulus":"[A] option 1, [L] option 2, [G] neither","key_press":76,"name":"choice","trial_type":"html-keyboard-response","trial_index":10,"time_elapsed":19864,"internal_node_id":"0.0-10.0","subject":"S1C1201","sona":"40094","block":3,"time":"2021-09-04T23:01:45.295Z","response":"2nd","certainty":"high","char":"L","transposition":1,"order":["shifted","swapped"],"probe_pitches":[4,5,9,15,11,8,12,5,3,6,10,14],"shifted_pitches":[4,5,9,15,11,7,12,5,3,6,10,14],"swapped_pitches":[4,5,9,15,11,12,8,5,3,6,10,14],"shift_direction":-1,"question_num":1,"has_decoy":false},{"rt":250.2000000178814,"stimulus":"[A] option 1, [L] option 2, [G] neither","key_press":76,"name":"choice","trial_type":"html-keyboard-response","trial_index":21,"time_elapsed":38860,"internal_node_id":"0.0-21.0","subject":"S1C1201","sona":"40094","block":3,"time":"2021-09-04T23:01:45.295Z","response":"2nd","certainty":"high","char":"L","transposition":-1,"order":["shifted","swapped"],"probe_pitches":[4,-1,4,6,-1,6,1,9,11,4,6,11],"shifted_pitches":[4,-1,4,6,-1,6,2,9,11,4,6,11],"swapped_pitches":[4,-1,4,6,-1,1,6,9,11,4,6,11],"shift_direction":1,"question_num":11,"has_decoy":false},{"rt":238.59999999403954,"stimulus":"[A] option 1, [L] option 2, [G] neither","key_press":76,"name":"choice","trial_type":"html-keyboard-response","trial_index":32,"time_elapsed":57328,"internal_node_id":"0.0-32.0","subject":"S1C1201","sona":"40094","block":3,"time":"2021-09-04T23:01:45.295Z","response":"2nd","certainty":"high","char":"L","transposition":-3,"order":["shifted","swapped"],"probe_pitches":[4,7,4,7,9,4,7,2,4,-1,7,11],"shifted_pitches":[4,7,4,7,9,3,7,2,4,-1,7,11],"swapped_pitches":[4,7,4,7,9,7,4,2,4,-1,7,11],"shift_direction":-1,"question_num":21,"has_decoy":false},{"rt":3153.300000011921,"stimulus":"[A] option 1, [L] option 2, [G] neither","key_press":76,"name":"choice","trial_type":"html-keyboard-response","trial_index":43,"time_elapsed":78623,"internal_node_id":"0.0-43.0","subject":"S1C1201","sona":"40094","block":3,"time":"2021-09-04T23:01:45.295Z","response":"2nd","certainty":"high","char":"L","transposition":-3,"order":["shifted","swapped"],"probe_pitches":[12,11,5,9,12,8,13,10,8,3,9,4],"shifted_pitches":[12,11,5,9,12,8,14,10,8,3,9,4],"swapped_pitches":[12,11,5,9,12,13,8,10,8,3,9,4],"shift_direction":1,"question_num":31,"has_decoy":false},{"rt":5105.5999999940395,"stimulus":"[A] option 1, [L] option 2, [G] neither","key_press":65,"name":"choice","trial_type":"html-keyboard-response","trial_index":54,"time_elapsed":103455,"internal_node_id":"0.0-54.0","subject":"S1C1201","sona":"40094","block":3,"time":"2021-09-04T23:01:45.295Z","response":"1st","certainty":"high","char":"A","transposition":-2,"order":["swapped","shifted"],"probe_pitches":[15,9,14,12,3,9,7,13,11,13,5,3],"shifted_pitches":[15,9,14,12,3,8,7,13,11,13,5,3],"swapped_pitches":[15,9,14,12,3,7,9,13,11,13,5,3],"shift_direction":-1,"question_num":41,"has_decoy":false},{"rt":2884.800000011921,"stimulus":"[A] option 1, [L] option 2, [G] neither","key_press":76,"name":"choice","trial_type":"html-keyboard-response","trial_index":65,"time_elapsed":124436,"internal_node_id":"0.0-65.0","subject":"S1C1201","sona":"40094","block":3,"time":"2021-09-04T23:01:45.295Z","response":"2nd","certainty":"high","char":"L","transposition":0,"order":["swapped","shifted"],"probe_pitches":[3,6,8,12,14,5,10,4,13,4,15,7],"shifted_pitches":[3,6,8,12,14,5,9,4,13,4,15,7],"swapped_pitches":[3,6,8,12,14,10,5,4,13,4,15,7],"shift_direction":-1,"question_num":51,"has_decoy":false},{"rt":6717.200000017881,"stimulus":"[A] option 1, [L] option 2, [G] neither","key_press":76,"name":"choice","trial_type":"html-keyboard-response","trial_index":76,"time_elapsed":154447,"internal_node_id":"0.0-76.0","subject":"S1C1201","sona":"40094","block":3,"time":"2021-09-04T23:01:45.295Z","response":"2nd","certainty":"high","char":"L","transposition":2,"order":["swapped","shifted"],"probe_pitches":[8,6,1,3,-1,1,11,8,-1,6,8,6],"shifted_pitches":[8,6,1,3,-1,1,12,8,-1,6,8,6],"swapped_pitches":[8,6,1,3,-1,11,1,8,-1,6,8,6],"shift_direction":1,"question_num":61,"has_decoy":false},{"rt":3612.2000000178814,"stimulus":"[A] option 1, [L] option 2, [G] neither","key_press":76,"name":"choice","trial_type":"html-keyboard-response","trial_index":87,"time_elapsed":176882,"internal_node_id":"0.0-87.0","subject":"S1C1201","sona":"40094","block":3,"time":"2021-09-04T23:01:45.295Z","response":"2nd","certainty":"high","char":"L","transposition":-2,"order":["swapped","shifted"],"probe_pitches":[-1,4,6,-1,4,6,9,2,4,6,9,11],"shifted_pitches":[-1,4,6,-1,4,5,9,2,4,6,9,11],"swapped_pitches":[-1,4,6,-1,4,9,6,2,4,6,9,11],"shift_direction":-1,"question_num":71,"has_decoy":false},{"rt":653.6999999880791,"stimulus":"[A] option 1, [L] option 2, [G] neither","key_press":65,"name":"choice","trial_type":"html-keyboard-response","trial_index":98,"time_elapsed":195744,"internal_node_id":"0.0-98.0","subject":"S1C1201","sona":"40094","block":3,"time":"2021-09-04T23:01:45.295Z","response":"1st","certainty":"high","char":"A","transposition":-3,"order":["shifted","swapped"],"probe_pitches":[10,4,11,7,9,6,4,14,11,6,4,13],"shifted_pitches":[10,4,11,7,9,6,5,14,11,6,4,13],"swapped_pitches":[10,4,11,7,9,4,6,14,11,6,4,13],"shift_direction":1,"question_num":81,"has_decoy":false},{"rt":4897.0999999940395,"stimulus":"[A] option 1, [L] option 2, [G] neither","key_press":65,"name":"choice","trial_type":"html-keyboard-response","trial_index":109,"time_elapsed":218977,"internal_node_id":"0.0-109.0","subject":"S1C1201","sona":"40094","block":3,"time":"2021-09-04T23:01:45.295Z","response":"1st","certainty":"high","char":"A","transposition":-1,"order":["swapped","shifted"],"probe_pitches":[-1,4,1,8,1,4,8,11,-1,4,6,11],"shifted_pitches":[-1,4,1,8,1,3,8,11,-1,4,6,11],"swapped_pitches":[-1,4,1,8,1,8,4,11,-1,4,6,11],"shift_direction":-1,"question_num":91,"has_decoy":false},{"rt":299.5,"stimulus":"[A] option 1, [L] option 2, [G] neither","key_press":76,"name":"choice","trial_type":"html-keyboard-response","trial_index":120,"time_elapsed":237619,"internal_node_id":"0.0-120.0","subject":"S1C1201","sona":"40094","block":3,"time":"2021-09-04T23:01:45.295Z","response":"2nd","certainty":"high","char":"L","transposition":-3,"order":["shifted","swapped"],"probe_pitches":[11,8,1,6,-1,3,11,8,6,8,-1,8],"shifted_pitches":[11,8,1,6,-1,3,12,8,6,8,-1,8],"swapped_pitches":[11,8,1,6,-1,11,3,8,6,8,-1,8],"shift_direction":1,"question_num":101,"has_decoy":false},{"rt":785.1000000238419,"stimulus":"[A] option 1, [L] option 2, [G] neither","key_press":65,"name":"choice","trial_type":"html-keyboard-response","trial_index":131,"time_elapsed":259145,"internal_node_id":"0.0-131.0","subject":"S1C1201","sona":"40094","block":3,"time":"2021-09-04T23:01:45.295Z","response":"1st","certainty":"high","char":"A","transposition":-2,"order":["swapped","shifted"],"probe_pitches":[5,8,5,7,8,14,11,5,9,14,9,13],"shifted_pitches":[5,8,5,7,8,14,10,5,9,14,9,13],"swapped_pitches":[5,8,5,7,8,11,14,5,9,14,9,13],"shift_direction":-1,"question_num":111,"has_decoy":false},{"rt":4242.800000011921,"stimulus":"[A] option 1, [L] option 2, [G] neither","key_press":65,"name":"choice","trial_type":"html-keyboard-response","trial_index":142,"time_elapsed":286462,"internal_node_id":"0.0-142.0","subject":"S1C1201","sona":"40094","block":3,"time":"2021-09-04T23:01:45.295Z","response":"1st","certainty":"high","char":"A","transposition":1,"order":["swapped","shifted"],"probe_pitches":[6,11,4,-1,4,6,1,9,11,6,9,6],"shifted_pitches":[6,11,4,-1,4,6,2,9,11,6,9,6],"swapped_pitches":[6,11,4,-1,4,1,6,9,11,6,9,6],"shift_direction":1,"question_num":121,"has_decoy":false},{"rt":7411.899999976158,"stimulus":"[A] option 1, [L] option 2, [G] neither","key_press":65,"name":"choice","trial_type":"html-keyboard-response","trial_index":153,"time_elapsed":314081,"internal_node_id":"0.0-153.0","subject":"S1C1201","sona":"40094","block":3,"time":"2021-09-04T23:01:45.295Z","response":"1st","certainty":"high","char":"A","transposition":-1,"order":["shifted","swapped"],"probe_pitches":[14,9,3,8,14,10,4,3,4,15,14,7],"shifted_pitches":[14,9,3,8,14,11,4,3,4,15,14,7],"swapped_pitches":[14,9,3,8,14,4,10,3,4,15,14,7],"shift_direction":1,"question_num":131,"has_decoy":false},{"rt":7581.5,"stimulus":"[A] option 1, [L] option 2, [G] neither","key_press":65,"name":"choice","trial_type":"html-keyboard-response","trial_index":164,"time_elapsed":345200,"internal_node_id":"0.0-164.0","subject":"S1C1201","sona":"40094","block":3,"time":"2021-09-04T23:01:45.295Z","response":"1st","certainty":"high","char":"A","transposition":3,"order":["swapped","shifted"],"probe_pitches":[6,9,11,9,4,2,11,4,6,4,11,-1],"shifted_pitches":[6,9,11,9,4,3,11,4,6,4,11,-1],"swapped_pitches":[6,9,11,9,4,11,2,4,6,4,11,-1],"shift_direction":1,"question_num":141,"has_decoy":false},{"rt":3233.4000000059605,"stimulus":"[A] option 1, [L] option 2, [G] neither","key_press":65,"name":"choice","trial_type":"html-keyboard-response","trial_index":175,"time_elapsed":379073,"internal_node_id":"0.0-175.0","subject":"S1C1201","sona":"40094","block":3,"time":"2021-09-04T23:01:45.295Z","response":"1st","certainty":"high","char":"A","transposition":-2,"order":["shifted","swapped"],"probe_pitches":[11,8,4,6,11,4,8,11,4,1,6,8],"shifted_pitches":[11,8,4,6,11,4,7,11,4,1,6,8],"swapped_pitches":[11,8,4,6,11,8,4,11,4,1,6,8],"shift_direction":-1,"question_num":151,"has_decoy":false},{"rt":823.5,"stimulus":"[A] option 1, [L] option 2, [G] neither","key_press":65,"name":"choice","trial_type":"html-keyboard-response","trial_index":186,"time_elapsed":402844,"internal_node_id":"0.0-186.0","subject":"S1C1201","sona":"40094","block":3,"time":"2021-09-04T23:01:45.295Z","response":"1st","certainty":"high","char":"A","transposition":2,"order":["shifted","swapped"],"probe_pitches":[5,3,5,9,13,5,7,12,13,4,14,3],"shifted_pitches":[5,3,5,9,13,6,7,12,13,4,14,3],"swapped_pitches":[5,3,5,9,13,7,5,12,13,4,14,3],"shift_direction":1,"question_num":161,"has_decoy":false},{"rt":3954.199999988079,"stimulus":"[A] option 1, [L] option 2, [G] neither","key_press":65,"name":"choice","trial_type":"html-keyboard-response","trial_index":197,"time_elapsed":426003,"internal_node_id":"0.0-197.0","subject":"S1C1201","sona":"40094","block":3,"time":"2021-09-04T23:01:45.295Z","response":"1st","certainty":"high","char":"A","transposition":0,"order":["shifted","swapped"],"probe_pitches":[4,2,7,-1,7,2,9,7,-1,4,2,9],"shifted_pitches":[4,2,7,-1,7,1,9,7,-1,4,2,9],"swapped_pitches":[4,2,7,-1,7,9,2,7,-1,4,2,9],"shift_direction":-1,"question_num":171,"has_decoy":false},{"rt":4230.4000000059605,"stimulus":"[A] option 1, [L] option 2, [G] neither","key_press":76,"name":"choice","trial_type":"html-keyboard-response","trial_index":208,"time_elapsed":457330,"internal_node_id":"0.0-208.0","subject":"S1C1201","sona":"40094","block":3,"time":"2021-09-04T23:01:45.295Z","response":"2nd","certainty":"high","char":"L","transposition":-1,"order":["swapped","shifted"],"probe_pitches":[15,13,10,3,7,11,13,15,9,14,13,6],"shifted_pitches":[15,13,10,3,7,12,13,15,9,14,13,6],"swapped_pitches":[15,13,10,3,7,13,11,15,9,14,13,6],"shift_direction":1,"question_num":181,"has_decoy":false},{"rt":856.2999999821186,"stimulus":"[A] option 1, [L] option 2, [G] neither","key_press":65,"name":"choice","trial_type":"html-keyboard-response","trial_index":219,"time_elapsed":478246,"internal_node_id":"0.0-219.0","subject":"S1C1201","sona":"40094","block":3,"time":"2021-09-04T23:01:45.295Z","response":"1st","certainty":"high","char":"A","transposition":3,"order":["swapped","shifted"],"probe_pitches":[14,8,15,14,6,8,14,6,11,12,15,8],"shifted_pitches":[14,8,15,14,6,8,13,6,11,12,15,8],"swapped_pitches":[14,8,15,14,6,14,8,6,11,12,15,8],"shift_direction":-1,"question_num":191,"has_decoy":false}]