[{"rt":14109.199999988079,"stimulus":"[A] option 1, [L] option 2, [G] neither","key_press":65,"name":"choice","trial_type":"html-keyboard-response","trial_index":10,"time_elapsed":33308,"internal_node_id":"0.0-10.0","subject":"S1C1201","sona":"40094","block":5,"time":"2021-09-04T23:24:20.110Z","response":"1st","certainty":"high","char":"A","transposition":-1,"order":["shifted","swapped"],"probe_pitches":[5,4,5,6,-2,2,7,9,0,7,-1,10],"shifted_pitches":[5,4,5,6,-2,3,7,9,0,7,-1,10],"swapped_pitches":[5,4,5,6,-2,7,2,9,0,7,-1,10],"shift_direction":1,"question_num":1,"has_decoy":false},{"rt":1495,"stimulus":"[A] option 1, [L] option 2, [G] neither","key_press":65,"name":"choice","trial_type":"html-keyboard-response","trial_index":21,"time_elapsed":61614,"internal_node_id":"0.0-21.0","subject":"S1C1201","sona":"40094","block":5,"time":"2021-09-04T23:24:20.110Z","response":"1st","certainty":"high","char":"A","transposition":-3,"order":["swapped","shifted"],"probe_pitches":[4,8,9,6,9,10,8,5,4,3,0,3],"shifted_pitches":[4,8,9,6,9,10,7,5,4,3,0,3],"swapped_pitches":[4,8,9,6,9,8,10,5,4,3,0,3],"shift_direction":-1,"question_num":11,"has_decoy":false},{"rt":3440.399999976158,"stimulus":"[A] option 1, [L] option 2, [G] neither","key_press":65,"name":"choice","trial_type":"html-keyboard-response","trial_index":32,"time_elapsed":83530,"internal_node_id":"0.0-32.0","subject":"S1C1201","sona":"40094","block":5,"time":"2021-09-04T23:24:20.110Z","response":"1st","certainty":"high","char":"A","transposition":1,"order":["swapped","shifted"],"probe_pitches":[7,3,0,5,-2,7,10,0,3,7,0,10],"shifted_pitches":[7,3,0,5,-2,7,11,0,3,7,0,10],"swapped_pitches":[7,3,0,5,-2,10,7,0,3,7,0,10],"shift_direction":1,"question_num":21,"has_decoy":false},{"rt":313.90000000596046,"stimulus":"[A] option 1, [L] option 2, [G] neither","key_press":65,"name":"choice","trial_type":"html-keyboard-response","trial_index":43,"time_elapsed":102333,"internal_node_id":"0.0-43.0","subject":"S1C1201","sona":"40094","block":5,"time":"2021-09-04T23:24:20.110Z","response":"1st","certainty":"high","char":"A","transposition":-3,"order":["shifted","swapped"],"probe_pitches":[1,6,10,8,10,1,6,10,8,10,-2,3],"shifted_pitches":[1,6,10,8,10,0,6,10,8,10,-2,3],"swapped_pitches":[1,6,10,8,10,6,1,10,8,10,-2,3],"shift_direction":-1,"question_num":31,"has_decoy":false},{"rt":5237.5,"stimulus":"[A] option 1, [L] option 2, [G] neither","key_press":65,"name":"choice","trial_type":"html-keyboard-response","trial_index":54,"time_elapsed":132287,"internal_node_id":"0.0-54.0","subject":"S1C1201","sona":"40094","block":5,"time":"2021-09-04T23:24:20.110Z","response":"1st","certainty":"high","char":"A","transposition":-3,"order":["swapped","shifted"],"probe_pitches":[-1,2,4,-1,2,7,5,4,1,-1,4,3],"shifted_pitches":[-1,2,4,-1,2,6,5,4,1,-1,4,3],"swapped_pitches":[-1,2,4,-1,2,5,7,4,1,-1,4,3],"shift_direction":-1,"question_num":41,"has_decoy":false},{"rt":40221,"stimulus":"[A] option 1, [L] option 2, [G] neither","key_press":65,"name":"choice","trial_type":"html-keyboard-response","trial_index":65,"time_elapsed":234324,"internal_node_id":"0.0-65.0","subject":"S1C1201","sona":"40094","block":5,"time":"2021-09-04T23:24:20.110Z","response":"1st","certainty":"high","char":"A","transposition":1,"order":["swapped","shifted"],"probe_pitches":[9,6,9,5,-2,1,6,-1,5,4,8,9],"shifted_pitches":[9,6,9,5,-2,0,6,-1,5,4,8,9],"swapped_pitches":[9,6,9,5,-2,6,1,-1,5,4,8,9],"shift_direction":-1,"question_num":51,"has_decoy":false},{"rt":13463.699999988079,"stimulus":"[A] option 1, [L] option 2, [G] neither","key_press":65,"name":"choice","trial_type":"html-keyboard-response","trial_index":76,"time_elapsed":280018,"internal_node_id":"0.0-76.0","subject":"S1C1201","sona":"40094","block":5,"time":"2021-09-04T23:24:20.110Z","response":"1st","certainty":"high","char":"A","transposition":-3,"order":["shifted","swapped"],"probe_pitches":[6,8,3,-2,3,1,8,-2,8,6,10,8],"shifted_pitches":[6,8,3,-2,3,0,8,-2,8,6,10,8],"swapped_pitches":[6,8,3,-2,3,8,1,-2,8,6,10,8],"shift_direction":-1,"question_num":61,"has_decoy":false},{"rt":5552,"stimulus":"[A] option 1, [L] option 2, [G] neither","key_press":65,"name":"choice","trial_type":"html-keyboard-response","trial_index":87,"time_elapsed":315266,"internal_node_id":"0.0-87.0","subject":"S1C1201","sona":"40094","block":5,"time":"2021-09-04T23:24:20.110Z","response":"1st","certainty":"high","char":"A","transposition":-2,"order":["swapped","shifted"],"probe_pitches":[3,4,2,4,5,3,0,4,0,5,0,-1],"shifted_pitches":[3,4,2,4,5,3,1,4,0,5,0,-1],"swapped_pitches":[3,4,2,4,5,0,3,4,0,5,0,-1],"shift_direction":1,"question_num":71,"has_decoy":false},{"rt":1975.800000011921,"stimulus":"[A] option 1, [L] option 2, [G] neither","key_press":76,"name":"choice","trial_type":"html-keyboard-response","trial_index":98,"time_elapsed":357694,"internal_node_id":"0.0-98.0","subject":"S1C1201","sona":"40094","block":5,"time":"2021-09-04T23:24:20.110Z","response":"2nd","certainty":"high","char":"L","transposition":-2,"order":["swapped","shifted"],"probe_pitches":[5,7,2,0,7,-2,5,2,-2,10,-2,10],"shifted_pitches":[5,7,2,0,7,-3,5,2,-2,10,-2,10],"swapped_pitches":[5,7,2,0,7,5,-2,2,-2,10,-2,10],"shift_direction":-1,"question_num":81,"has_decoy":false},{"rt":2342,"stimulus":"[A] option 1, [L] option 2, [G] neither","key_press":65,"name":"choice","trial_type":"html-keyboard-response","trial_index":109,"time_elapsed":379710,"internal_node_id":"0.0-109.0","subject":"S1C1201","sona":"40094","block":5,"time":"2021-09-04T23:24:20.110Z","response":"1st","certainty":"high","char":"A","transposition":-1,"order":["swapped","shifted"],"probe_pitches":[1,-2,1,5,-2,8,5,1,10,3,-2,3],"shifted_pitches":[1,-2,1,5,-2,8,6,1,10,3,-2,3],"swapped_pitches":[1,-2,1,5,-2,5,8,1,10,3,-2,3],"shift_direction":1,"question_num":91,"has_decoy":false},{"rt":273,"stimulus":"[A] option 1, [L] option 2, [G] neither","key_press":76,"name":"choice","trial_type":"html-keyboard-response","trial_index":120,"time_elapsed":399022,"internal_node_id":"0.0-120.0","subject":"S1C1201","sona":"40094","block":5,"time":"2021-09-04T23:24:20.110Z","response":"2nd","certainty":"high","char":"L","transposition":-2,"order":["shifted","swapped"],"probe_pitches":[2,3,6,3,0,-1,4,1,-2,0,9,4],"shifted_pitches":[2,3,6,3,0,-1,5,1,-2,0,9,4],"swapped_pitches":[2,3,6,3,0,4,-1,1,-2,0,9,4],"shift_direction":1,"question_num":101,"has_decoy":false},{"rt":17,"stimulus":"[A] option 1, [L] option 2, [G] neither","key_press":76,"name":"choice","trial_type":"html-keyboard-response","trial_index":131,"time_elapsed":424605,"internal_node_id":"0.0-131.0","subject":"S1C1201","sona":"40094","block":5,"time":"2021-09-04T23:24:20.110Z","response":"2nd","certainty":"high","char":"L","transposition":-2,"order":["swapped","shifted"],"probe_pitches":[0,5,0,-2,5,3,-2,5,0,8,10,5],"shifted_pitches":[0,5,0,-2,5,3,-1,5,0,8,10,5],"swapped_pitches":[0,5,0,-2,5,-2,3,5,0,8,10,5],"shift_direction":1,"question_num":111,"has_decoy":false},{"rt":1322.5999999940395,"stimulus":"[A] option 1, [L] option 2, [G] neither","key_press":76,"name":"choice","trial_type":"html-keyboard-response","trial_index":142,"time_elapsed":444262,"internal_node_id":"0.0-142.0","subject":"S1C1201","sona":"40094","block":5,"time":"2021-09-04T23:24:20.110Z","response":"2nd","certainty":"high","char":"L","transposition":2,"order":["shifted","swapped"],"probe_pitches":[5,7,2,10,7,10,2,-2,7,10,0,5],"shifted_pitches":[5,7,2,10,7,10,1,-2,7,10,0,5],"swapped_pitches":[5,7,2,10,7,2,10,-2,7,10,0,5],"shift_direction":-1,"question_num":121,"has_decoy":false},{"rt":2546.800000011921,"stimulus":"[A] option 1, [L] option 2, [G] neither","key_press":76,"name":"choice","trial_type":"html-keyboard-response","trial_index":153,"time_elapsed":472336,"internal_node_id":"0.0-153.0","subject":"S1C1201","sona":"40094","block":5,"time":"2021-09-04T23:24:20.110Z","response":"2nd","certainty":"high","char":"L","transposition":2,"order":["swapped","shifted"],"probe_pitches":[-1,2,0,5,-1,-2,9,10,7,10,7,1],"shifted_pitches":[-1,2,0,5,-1,-2,8,10,7,10,7,1],"swapped_pitches":[-1,2,0,5,-1,9,-2,10,7,10,7,1],"shift_direction":-1,"question_num":131,"has_decoy":false},{"rt":1070.5999999940395,"stimulus":"[A] option 1, [L] option 2, [G] neither","key_press":65,"name":"choice","trial_type":"html-keyboard-response","trial_index":164,"time_elapsed":498319,"internal_node_id":"0.0-164.0","subject":"S1C1201","sona":"40094","block":5,"time":"2021-09-04T23:24:20.110Z","response":"1st","certainty":"high","char":"A","transposition":3,"order":["shifted","swapped"],"probe_pitches":[7,3,5,-2,7,4,1,6,9,-2,-1,0],"shifted_pitches":[7,3,5,-2,7,4,2,6,9,-2,-1,0],"swapped_pitches":[7,3,5,-2,7,1,4,6,9,-2,-1,0],"shift_direction":1,"question_num":141,"has_decoy":false},{"rt":4488.299999982119,"stimulus":"[A] option 1, [L] option 2, [G] neither","key_press":65,"name":"choice","trial_type":"html-keyboard-response","trial_index":175,"time_elapsed":534047,"internal_node_id":"0.0-175.0","subject":"S1C1201","sona":"40094","block":5,"time":"2021-09-04T23:24:20.110Z","response":"1st","certainty":"high","char":"A","transposition":0,"order":["shifted","swapped"],"probe_pitches":[10,7,10,5,7,0,-2,3,0,-2,10,5],"shifted_pitches":[10,7,10,5,7,0,-3,3,0,-2,10,5],"swapped_pitches":[10,7,10,5,7,-2,0,3,0,-2,10,5],"shift_direction":-1,"question_num":151,"has_decoy":false},{"rt":4663.300000011921,"stimulus":"[A] option 1, [L] option 2, [G] neither","key_press":65,"name":"choice","trial_type":"html-keyboard-response","trial_index":186,"time_elapsed":557492,"internal_node_id":"0.0-186.0","subject":"S1C1201","sona":"40094","block":5,"time":"2021-09-04T23:24:20.110Z","response":"1st","certainty":"high","char":"A","transposition":3,"order":["swapped","shifted"],"probe_pitches":[3,1,-2,5,3,1,8,10,8,3,5,8],"shifted_pitches":[3,1,-2,5,3,2,8,10,8,3,5,8],"swapped_pitches":[3,1,-2,5,3,8,1,10,8,3,5,8],"shift_direction":1,"question_num":161,"has_decoy":false},{"rt":272.19999998807907,"stimulus":"[A] option 1, [L] option 2, [G] neither","key_press":65,"name":"choice","trial_type":"html-keyboard-response","trial_index":197,"time_elapsed":579071,"internal_node_id":"0.0-197.0","subject":"S1C1201","sona":"40094","block":5,"time":"2021-09-04T23:24:20.110Z","response":"1st","certainty":"high","char":"A","transposition":0,"order":["shifted","swapped"],"probe_pitches":[4,7,10,8,3,8,4,7,4,6,5,7],"shifted_pitches":[4,7,10,8,3,9,4,7,4,6,5,7],"swapped_pitches":[4,7,10,8,3,4,8,7,4,6,5,7],"shift_direction":1,"question_num":171,"has_decoy":false},{"rt":5610.800000011921,"stimulus":"[A] option 1, [L] option 2, [G] neither","key_press":65,"name":"choice","trial_type":"html-keyboard-response","trial_index":208,"time_elapsed":614869,"internal_node_id":"0.0-208.0","subject":"S1C1201","sona":"40094","block":5,"time":"2021-09-04T23:24:20.110Z","response":"1st","certainty":"high","char":"A","transposition":-1,"order":["shifted","swapped"],"probe_pitches":[0,-2,5,8,3,-2,8,0,10,0,10,0],"shifted_pitches":[0,-2,5,8,3,-1,8,0,10,0,10,0],"swapped_pitches":[0,-2,5,8,3,8,-2,0,10,0,10,0],"shift_direction":1,"question_num":181,"has_decoy":false},{"rt":8542.59999999404,"stimulus":"[A] option 1, [L] option 2, [G] neither","key_press":76,"name":"choice","trial_type":"html-keyboard-response","trial_index":219,"time_elapsed":645721,"internal_node_id":"0.0-219.0","subject":"S1C1201","sona":"40094","block":5,"time":"2021-09-04T23:24:20.110Z","response":"2nd","certainty":"high","char":"L","transposition":-1,"order":["shifted","swapped"],"probe_pitches":[10,7,10,7,-2,5,0,1,5,0,8,-1],"shifted_pitches":[10,7,10,7,-2,4,0,1,5,0,8,-1],"swapped_pitches":[10,7,10,7,-2,0,5,1,5,0,8,-1],"shift_direction":-1,"question_num":191,"has_decoy":false}]