[{"rt":286.40000000037253,"stimulus":"[A] option 1, [L] option 2, [G] neither","key_press":65,"name":"choice","trial_type":"html-keyboard-response","trial_index":10,"time_elapsed":19954,"internal_node_id":"0.0-10.0","subject":"S1C1221","sona":"41532","block":4,"time":"2021-09-17T01:25:58.671Z","response":"1st","certainty":"high","char":"A","transposition":-2,"order":["shifted","swapped"],"probe_pitches":[0,2,0,-3,2,0,4,2,0,7,0,4],"shifted_pitches":[0,2,0,-3,2,0,5,2,0,7,0,4],"swapped_pitches":[0,2,0,-3,2,4,0,2,0,7,0,4],"shift_direction":1,"question_num":1,"has_decoy":false},{"rt":696.4000000003725,"stimulus":"[A] option 1, [L] option 2, [G] neither","key_press":71,"name":"choice","trial_type":"html-keyboard-response","trial_index":21,"time_elapsed":38834,"internal_node_id":"0.0-21.0","subject":"S1C1221","sona":"41532","block":4,"time":"2021-09-17T01:25:58.671Z","response":"neither","certainty":"high","char":"G","transposition":3,"order":["shifted","swapped"],"probe_pitches":[-2,3,-1,6,-2,5,7,-1,2,9,-1,1],"shifted_pitches":[-2,3,-1,6,-2,4,7,-1,2,9,-1,1],"swapped_pitches":[-2,3,-1,6,-2,7,5,-1,2,9,-1,1],"shift_direction":-1,"question_num":11,"has_decoy":false},{"rt":1945.4000000003725,"stimulus":"[A] option 1, [L] option 2, [G] neither","key_press":71,"name":"choice","trial_type":"html-keyboard-response","trial_index":32,"time_elapsed":61326,"internal_node_id":"0.0-32.0","subject":"S1C1221","sona":"41532","block":4,"time":"2021-09-17T01:25:58.671Z","response":"neither","certainty":"high","char":"G","transposition":-3,"order":["swapped","shifted"],"probe_pitches":[2,7,9,5,-3,5,2,7,5,0,7,0],"shifted_pitches":[2,7,9,5,-3,6,2,7,5,0,7,0],"swapped_pitches":[2,7,9,5,-3,2,5,7,5,0,7,0],"shift_direction":1,"question_num":21,"has_decoy":false},{"rt":731.2999999988824,"stimulus":"[A] option 1, [L] option 2, [G] neither","key_press":71,"name":"choice","trial_type":"html-keyboard-response","trial_index":43,"time_elapsed":82221,"internal_node_id":"0.0-43.0","subject":"S1C1221","sona":"41532","block":4,"time":"2021-09-17T01:25:58.671Z","response":"neither","certainty":"high","char":"G","transposition":1,"order":["swapped","shifted"],"probe_pitches":[-3,0,3,1,6,8,0,-2,-3,5,1,7],"shifted_pitches":[-3,0,3,1,6,8,-1,-2,-3,5,1,7],"swapped_pitches":[-3,0,3,1,6,0,8,-2,-3,5,1,7],"shift_direction":-1,"question_num":31,"has_decoy":false},{"rt":666.7999999988824,"stimulus":"[A] option 1, [L] option 2, [G] neither","key_press":76,"name":"choice","trial_type":"html-keyboard-response","trial_index":54,"time_elapsed":101238,"internal_node_id":"0.0-54.0","subject":"S1C1221","sona":"41532","block":4,"time":"2021-09-17T01:25:58.671Z","response":"2nd","certainty":"high","char":"L","transposition":-3,"order":["shifted","swapped"],"probe_pitches":[2,6,-1,0,8,6,4,-1,2,6,0,1],"shifted_pitches":[2,6,-1,0,8,7,4,-1,2,6,0,1],"swapped_pitches":[2,6,-1,0,8,4,6,-1,2,6,0,1],"shift_direction":1,"question_num":41,"has_decoy":false},{"rt":3805.699999999255,"stimulus":"[A] option 1, [L] option 2, [G] neither","key_press":76,"name":"choice","trial_type":"html-keyboard-response","trial_index":65,"time_elapsed":123756,"internal_node_id":"0.0-65.0","subject":"S1C1221","sona":"41532","block":4,"time":"2021-09-17T01:25:58.671Z","response":"2nd","certainty":"high","char":"L","transposition":-2,"order":["swapped","shifted"],"probe_pitches":[0,4,2,7,2,7,-3,0,-3,7,0,-3],"shifted_pitches":[0,4,2,7,2,7,-4,0,-3,7,0,-3],"swapped_pitches":[0,4,2,7,2,-3,7,0,-3,7,0,-3],"shift_direction":-1,"question_num":51,"has_decoy":false},{"rt":1462.0999999996275,"stimulus":"[A] option 1, [L] option 2, [G] neither","key_press":76,"name":"choice","trial_type":"html-keyboard-response","trial_index":76,"time_elapsed":143381,"internal_node_id":"0.0-76.0","subject":"S1C1221","sona":"41532","block":4,"time":"2021-09-17T01:25:58.671Z","response":"2nd","certainty":"high","char":"L","transposition":0,"order":["swapped","shifted"],"probe_pitches":[9,4,9,4,-3,6,4,1,-1,4,-3,9],"shifted_pitches":[9,4,9,4,-3,6,3,1,-1,4,-3,9],"swapped_pitches":[9,4,9,4,-3,4,6,1,-1,4,-3,9],"shift_direction":-1,"question_num":61,"has_decoy":false},{"rt":2221,"stimulus":"[A] option 1, [L] option 2, [G] neither","key_press":71,"name":"choice","trial_type":"html-keyboard-response","trial_index":87,"time_elapsed":163982,"internal_node_id":"0.0-87.0","subject":"S1C1221","sona":"41532","block":4,"time":"2021-09-17T01:25:58.671Z","response":"neither","certainty":"high","char":"G","transposition":3,"order":["shifted","swapped"],"probe_pitches":[-3,2,-1,-3,6,-3,4,2,6,9,2,9],"shifted_pitches":[-3,2,-1,-3,6,-4,4,2,6,9,2,9],"swapped_pitches":[-3,2,-1,-3,6,4,-3,2,6,9,2,9],"shift_direction":-1,"question_num":71,"has_decoy":false},{"rt":1054.800000000745,"stimulus":"[A] option 1, [L] option 2, [G] neither","key_press":71,"name":"choice","trial_type":"html-keyboard-response","trial_index":98,"time_elapsed":183525,"internal_node_id":"0.0-98.0","subject":"S1C1221","sona":"41532","block":4,"time":"2021-09-17T01:25:58.671Z","response":"neither","certainty":"high","char":"G","transposition":-1,"order":["shifted","swapped"],"probe_pitches":[3,5,8,5,-1,9,1,6,8,5,4,6],"shifted_pitches":[3,5,8,5,-1,9,2,6,8,5,4,6],"swapped_pitches":[3,5,8,5,-1,1,9,6,8,5,4,6],"shift_direction":1,"question_num":81,"has_decoy":false},{"rt":2613.5,"stimulus":"[A] option 1, [L] option 2, [G] neither","key_press":71,"name":"choice","trial_type":"html-keyboard-response","trial_index":109,"time_elapsed":205924,"internal_node_id":"0.0-109.0","subject":"S1C1221","sona":"41532","block":4,"time":"2021-09-17T01:25:58.671Z","response":"neither","certainty":"high","char":"G","transposition":1,"order":["shifted","swapped"],"probe_pitches":[1,-1,1,9,1,4,6,-1,4,9,4,-1],"shifted_pitches":[1,-1,1,9,1,5,6,-1,4,9,4,-1],"swapped_pitches":[1,-1,1,9,1,6,4,-1,4,9,4,-1],"shift_direction":1,"question_num":91,"has_decoy":false},{"rt":3874.300000000745,"stimulus":"[A] option 1, [L] option 2, [G] neither","key_press":71,"name":"choice","trial_type":"html-keyboard-response","trial_index":120,"time_elapsed":228525,"internal_node_id":"0.0-120.0","subject":"S1C1221","sona":"41532","block":4,"time":"2021-09-17T01:25:58.671Z","response":"neither","certainty":"high","char":"G","transposition":-1,"order":["swapped","shifted"],"probe_pitches":[1,-3,0,-1,8,7,-1,2,1,8,-2,-1],"shifted_pitches":[1,-3,0,-1,8,6,-1,2,1,8,-2,-1],"swapped_pitches":[1,-3,0,-1,8,-1,7,2,1,8,-2,-1],"shift_direction":-1,"question_num":101,"has_decoy":false},{"rt":248.59999999962747,"stimulus":"[A] option 1, [L] option 2, [G] neither","key_press":76,"name":"choice","trial_type":"html-keyboard-response","trial_index":131,"time_elapsed":247509,"internal_node_id":"0.0-131.0","subject":"S1C1221","sona":"41532","block":4,"time":"2021-09-17T01:25:58.671Z","response":"2nd","certainty":"high","char":"L","transposition":-2,"order":["swapped","shifted"],"probe_pitches":[-1,-3,4,9,4,1,-2,8,3,6,-3,5],"shifted_pitches":[-1,-3,4,9,4,0,-2,8,3,6,-3,5],"swapped_pitches":[-1,-3,4,9,4,-2,1,8,3,6,-3,5],"shift_direction":-1,"question_num":111,"has_decoy":false},{"rt":709.5999999996275,"stimulus":"[A] option 1, [L] option 2, [G] neither","key_press":71,"name":"choice","trial_type":"html-keyboard-response","trial_index":142,"time_elapsed":266669,"internal_node_id":"0.0-142.0","subject":"S1C1221","sona":"41532","block":4,"time":"2021-09-17T01:25:58.671Z","response":"neither","certainty":"high","char":"G","transposition":-1,"order":["shifted","swapped"],"probe_pitches":[-1,2,9,7,4,9,2,7,-1,2,4,-3],"shifted_pitches":[-1,2,9,7,4,9,3,7,-1,2,4,-3],"swapped_pitches":[-1,2,9,7,4,2,9,7,-1,2,4,-3],"shift_direction":1,"question_num":121,"has_decoy":false},{"rt":2483.4000000003725,"stimulus":"[A] option 1, [L] option 2, [G] neither","key_press":71,"name":"choice","trial_type":"html-keyboard-response","trial_index":153,"time_elapsed":288493,"internal_node_id":"0.0-153.0","subject":"S1C1221","sona":"41532","block":4,"time":"2021-09-17T01:25:58.671Z","response":"neither","certainty":"high","char":"G","transposition":-2,"order":["swapped","shifted"],"probe_pitches":[0,2,9,1,-3,6,2,8,-2,8,7,1],"shifted_pitches":[0,2,9,1,-3,6,3,8,-2,8,7,1],"swapped_pitches":[0,2,9,1,-3,2,6,8,-2,8,7,1],"shift_direction":1,"question_num":131,"has_decoy":false},{"rt":1968.5,"stimulus":"[A] option 1, [L] option 2, [G] neither","key_press":76,"name":"choice","trial_type":"html-keyboard-response","trial_index":164,"time_elapsed":308629,"internal_node_id":"0.0-164.0","subject":"S1C1221","sona":"41532","block":4,"time":"2021-09-17T01:25:58.671Z","response":"2nd","certainty":"high","char":"L","transposition":0,"order":["shifted","swapped"],"probe_pitches":[9,7,2,0,1,8,6,4,7,6,3,9],"shifted_pitches":[9,7,2,0,1,8,5,4,7,6,3,9],"swapped_pitches":[9,7,2,0,1,6,8,4,7,6,3,9],"shift_direction":-1,"question_num":141,"has_decoy":false},{"rt":488.40000000037253,"stimulus":"[A] option 1, [L] option 2, [G] neither","key_press":71,"name":"choice","trial_type":"html-keyboard-response","trial_index":175,"time_elapsed":327477,"internal_node_id":"0.0-175.0","subject":"S1C1221","sona":"41532","block":4,"time":"2021-09-17T01:25:58.671Z","response":"neither","certainty":"high","char":"G","transposition":2,"order":["shifted","swapped"],"probe_pitches":[7,8,4,5,-1,0,6,9,-1,6,-3,9],"shifted_pitches":[7,8,4,5,-1,1,6,9,-1,6,-3,9],"swapped_pitches":[7,8,4,5,-1,6,0,9,-1,6,-3,9],"shift_direction":1,"question_num":151,"has_decoy":false},{"rt":3898.300000000745,"stimulus":"[A] option 1, [L] option 2, [G] neither","key_press":65,"name":"choice","trial_type":"html-keyboard-response","trial_index":186,"time_elapsed":349956,"internal_node_id":"0.0-186.0","subject":"S1C1221","sona":"41532","block":4,"time":"2021-09-17T01:25:58.671Z","response":"1st","certainty":"high","char":"A","transposition":-1,"order":["shifted","swapped"],"probe_pitches":[5,2,9,7,9,0,-3,5,2,7,5,7],"shifted_pitches":[5,2,9,7,9,-1,-3,5,2,7,5,7],"swapped_pitches":[5,2,9,7,9,-3,0,5,2,7,5,7],"shift_direction":-1,"question_num":161,"has_decoy":false},{"rt":537.0999999996275,"stimulus":"[A] option 1, [L] option 2, [G] neither","key_press":76,"name":"choice","trial_type":"html-keyboard-response","trial_index":197,"time_elapsed":368797,"internal_node_id":"0.0-197.0","subject":"S1C1221","sona":"41532","block":4,"time":"2021-09-17T01:25:58.671Z","response":"2nd","certainty":"high","char":"L","transposition":-3,"order":["swapped","shifted"],"probe_pitches":[6,2,-3,-1,2,-3,6,4,9,4,6,-3],"shifted_pitches":[6,2,-3,-1,2,-2,6,4,9,4,6,-3],"swapped_pitches":[6,2,-3,-1,2,6,-3,4,9,4,6,-3],"shift_direction":1,"question_num":171,"has_decoy":false},{"rt":1030.0999999996275,"stimulus":"[A] option 1, [L] option 2, [G] neither","key_press":76,"name":"choice","trial_type":"html-keyboard-response","trial_index":208,"time_elapsed":389060,"internal_node_id":"0.0-208.0","subject":"S1C1221","sona":"41532","block":4,"time":"2021-09-17T01:25:58.671Z","response":"2nd","certainty":"high","char":"L","transposition":-3,"order":["swapped","shifted"],"probe_pitches":[5,7,4,-2,1,0,7,3,0,1,-2,5],"shifted_pitches":[5,7,4,-2,1,0,8,3,0,1,-2,5],"swapped_pitches":[5,7,4,-2,1,7,0,3,0,1,-2,5],"shift_direction":1,"question_num":181,"has_decoy":false},{"rt":1283.9000000003725,"stimulus":"[A] option 1, [L] option 2, [G] neither","key_press":76,"name":"choice","trial_type":"html-keyboard-response","trial_index":219,"time_elapsed":408804,"internal_node_id":"0.0-219.0","subject":"S1C1221","sona":"41532","block":4,"time":"2021-09-17T01:25:58.671Z","response":"2nd","certainty":"high","char":"L","transposition":2,"order":["swapped","shifted"],"probe_pitches":[-1,4,-3,2,9,7,4,-1,4,7,-1,9],"shifted_pitches":[-1,4,-3,2,9,7,3,-1,4,7,-1,9],"swapped_pitches":[-1,4,-3,2,9,4,7,-1,4,7,-1,9],"shift_direction":-1,"question_num":191,"has_decoy":false}]