[{"rt":1342.3999999985099,"stimulus":"[A] option 1, [L] option 2, [G] neither","key_press":71,"name":"choice","trial_type":"html-keyboard-response","trial_index":10,"time_elapsed":21428,"internal_node_id":"0.0-10.0","subject":"S1C1221","sona":"41532","block":5,"time":"2021-09-17T01:33:11.277Z","response":"neither","certainty":"high","char":"G","transposition":-2,"order":["shifted","swapped"],"probe_pitches":[-3,2,0,7,9,4,7,9,0,2,7,-3],"shifted_pitches":[-3,2,0,7,9,5,7,9,0,2,7,-3],"swapped_pitches":[-3,2,0,7,9,7,4,9,0,2,7,-3],"shift_direction":1,"question_num":1,"has_decoy":false},{"rt":1574.2000000011176,"stimulus":"[A] option 1, [L] option 2, [G] neither","key_press":76,"name":"choice","trial_type":"html-keyboard-response","trial_index":21,"time_elapsed":41420,"internal_node_id":"0.0-21.0","subject":"S1C1221","sona":"41532","block":5,"time":"2021-09-17T01:33:11.277Z","response":"2nd","certainty":"high","char":"L","transposition":1,"order":["shifted","swapped"],"probe_pitches":[-1,4,2,-1,4,2,7,-3,2,-1,7,9],"shifted_pitches":[-1,4,2,-1,4,2,6,-3,2,-1,7,9],"swapped_pitches":[-1,4,2,-1,4,7,2,-3,2,-1,7,9],"shift_direction":-1,"question_num":11,"has_decoy":false},{"rt":5697.299999998882,"stimulus":"[A] option 1, [L] option 2, [G] neither","key_press":71,"name":"choice","trial_type":"html-keyboard-response","trial_index":32,"time_elapsed":65443,"internal_node_id":"0.0-32.0","subject":"S1C1221","sona":"41532","block":5,"time":"2021-09-17T01:33:11.277Z","response":"neither","certainty":"high","char":"G","transposition":-3,"order":["shifted","swapped"],"probe_pitches":[-2,0,-1,-3,1,7,2,5,-2,2,5,-2],"shifted_pitches":[-2,0,-1,-3,1,8,2,5,-2,2,5,-2],"swapped_pitches":[-2,0,-1,-3,1,2,7,5,-2,2,5,-2],"shift_direction":1,"question_num":21,"has_decoy":false},{"rt":4973.89999999851,"stimulus":"[A] option 1, [L] option 2, [G] neither","key_press":71,"name":"choice","trial_type":"html-keyboard-response","trial_index":43,"time_elapsed":94140,"internal_node_id":"0.0-43.0","subject":"S1C1221","sona":"41532","block":5,"time":"2021-09-17T01:33:11.277Z","response":"neither","certainty":"high","char":"G","transposition":-3,"order":["swapped","shifted"],"probe_pitches":[3,6,0,8,4,6,9,-3,4,5,0,9],"shifted_pitches":[3,6,0,8,4,7,9,-3,4,5,0,9],"swapped_pitches":[3,6,0,8,4,9,6,-3,4,5,0,9],"shift_direction":1,"question_num":31,"has_decoy":false},{"rt":4689.9000000003725,"stimulus":"[A] option 1, [L] option 2, [G] neither","key_press":76,"name":"choice","trial_type":"html-keyboard-response","trial_index":54,"time_elapsed":117075,"internal_node_id":"0.0-54.0","subject":"S1C1221","sona":"41532","block":5,"time":"2021-09-17T01:33:11.277Z","response":"2nd","certainty":"high","char":"L","transposition":-2,"order":["swapped","shifted"],"probe_pitches":[-2,3,1,-2,-1,7,3,4,1,3,1,5],"shifted_pitches":[-2,3,1,-2,-1,7,2,4,1,3,1,5],"swapped_pitches":[-2,3,1,-2,-1,3,7,4,1,3,1,5],"shift_direction":-1,"question_num":41,"has_decoy":false},{"rt":3134.4000000003725,"stimulus":"[A] option 1, [L] option 2, [G] neither","key_press":71,"name":"choice","trial_type":"html-keyboard-response","trial_index":65,"time_elapsed":138619,"internal_node_id":"0.0-65.0","subject":"S1C1221","sona":"41532","block":5,"time":"2021-09-17T01:33:11.277Z","response":"neither","certainty":"high","char":"G","transposition":-2,"order":["swapped","shifted"],"probe_pitches":[9,4,2,4,6,9,2,-1,-3,-1,9,-1],"shifted_pitches":[9,4,2,4,6,9,3,-1,-3,-1,9,-1],"swapped_pitches":[9,4,2,4,6,2,9,-1,-3,-1,9,-1],"shift_direction":1,"question_num":51,"has_decoy":false},{"rt":2053.4000000003725,"stimulus":"[A] option 1, [L] option 2, [G] neither","key_press":76,"name":"choice","trial_type":"html-keyboard-response","trial_index":76,"time_elapsed":160427,"internal_node_id":"0.0-76.0","subject":"S1C1221","sona":"41532","block":5,"time":"2021-09-17T01:33:11.277Z","response":"2nd","certainty":"high","char":"L","transposition":2,"order":["swapped","shifted"],"probe_pitches":[6,2,1,7,5,0,2,8,5,2,6,3],"shifted_pitches":[6,2,1,7,5,-1,2,8,5,2,6,3],"swapped_pitches":[6,2,1,7,5,2,0,8,5,2,6,3],"shift_direction":-1,"question_num":61,"has_decoy":false},{"rt":445.30000000074506,"stimulus":"[A] option 1, [L] option 2, [G] neither","key_press":65,"name":"choice","trial_type":"html-keyboard-response","trial_index":87,"time_elapsed":179859,"internal_node_id":"0.0-87.0","subject":"S1C1221","sona":"41532","block":5,"time":"2021-09-17T01:33:11.277Z","response":"1st","certainty":"high","char":"A","transposition":-3,"order":["shifted","swapped"],"probe_pitches":[2,4,6,2,4,9,6,2,9,-1,6,4],"shifted_pitches":[2,4,6,2,4,10,6,2,9,-1,6,4],"swapped_pitches":[2,4,6,2,4,6,9,2,9,-1,6,4],"shift_direction":1,"question_num":71,"has_decoy":false},{"rt":1705.5,"stimulus":"[A] option 1, [L] option 2, [G] neither","key_press":71,"name":"choice","trial_type":"html-keyboard-response","trial_index":98,"time_elapsed":199859,"internal_node_id":"0.0-98.0","subject":"S1C1221","sona":"41532","block":5,"time":"2021-09-17T01:33:11.277Z","response":"neither","certainty":"high","char":"G","transposition":-1,"order":["swapped","shifted"],"probe_pitches":[0,-2,3,6,8,2,-2,0,6,8,5,0],"shifted_pitches":[0,-2,3,6,8,1,-2,0,6,8,5,0],"swapped_pitches":[0,-2,3,6,8,-2,2,0,6,8,5,0],"shift_direction":-1,"question_num":81,"has_decoy":false},{"rt":3828.2000000011176,"stimulus":"[A] option 1, [L] option 2, [G] neither","key_press":71,"name":"choice","trial_type":"html-keyboard-response","trial_index":109,"time_elapsed":221971,"internal_node_id":"0.0-109.0","subject":"S1C1221","sona":"41532","block":5,"time":"2021-09-17T01:33:11.277Z","response":"neither","certainty":"high","char":"G","transposition":0,"order":["shifted","swapped"],"probe_pitches":[-1,2,9,6,8,0,6,2,1,-1,1,-3],"shifted_pitches":[-1,2,9,6,8,0,5,2,1,-1,1,-3],"swapped_pitches":[-1,2,9,6,8,6,0,2,1,-1,1,-3],"shift_direction":-1,"question_num":91,"has_decoy":false},{"rt":1369,"stimulus":"[A] option 1, [L] option 2, [G] neither","key_press":71,"name":"choice","trial_type":"html-keyboard-response","trial_index":120,"time_elapsed":241963,"internal_node_id":"0.0-120.0","subject":"S1C1221","sona":"41532","block":5,"time":"2021-09-17T01:33:11.277Z","response":"neither","certainty":"high","char":"G","transposition":0,"order":["swapped","shifted"],"probe_pitches":[2,0,7,5,-3,7,2,-3,7,2,0,9],"shifted_pitches":[2,0,7,5,-3,6,2,-3,7,2,0,9],"swapped_pitches":[2,0,7,5,-3,2,7,-3,7,2,0,9],"shift_direction":-1,"question_num":101,"has_decoy":false},{"rt":1831.0999999996275,"stimulus":"[A] option 1, [L] option 2, [G] neither","key_press":76,"name":"choice","trial_type":"html-keyboard-response","trial_index":131,"time_elapsed":262114,"internal_node_id":"0.0-131.0","subject":"S1C1221","sona":"41532","block":5,"time":"2021-09-17T01:33:11.277Z","response":"2nd","certainty":"high","char":"L","transposition":3,"order":["swapped","shifted"],"probe_pitches":[6,4,9,1,-1,9,6,-3,-1,4,-3,6],"shifted_pitches":[6,4,9,1,-1,9,7,-3,-1,4,-3,6],"swapped_pitches":[6,4,9,1,-1,6,9,-3,-1,4,-3,6],"shift_direction":1,"question_num":111,"has_decoy":false},{"rt":2515.4000000003725,"stimulus":"[A] option 1, [L] option 2, [G] neither","key_press":71,"name":"choice","trial_type":"html-keyboard-response","trial_index":142,"time_elapsed":282938,"internal_node_id":"0.0-142.0","subject":"S1C1221","sona":"41532","block":5,"time":"2021-09-17T01:33:11.277Z","response":"neither","certainty":"high","char":"G","transposition":1,"order":["shifted","swapped"],"probe_pitches":[-2,2,-3,3,2,-3,5,8,-1,-3,2,1],"shifted_pitches":[-2,2,-3,3,2,-3,6,8,-1,-3,2,1],"swapped_pitches":[-2,2,-3,3,2,5,-3,8,-1,-3,2,1],"shift_direction":1,"question_num":121,"has_decoy":false},{"rt":1608.5999999996275,"stimulus":"[A] option 1, [L] option 2, [G] neither","key_press":71,"name":"choice","trial_type":"html-keyboard-response","trial_index":153,"time_elapsed":302801,"internal_node_id":"0.0-153.0","subject":"S1C1221","sona":"41532","block":5,"time":"2021-09-17T01:33:11.277Z","response":"neither","certainty":"high","char":"G","transposition":-1,"order":["swapped","shifted"],"probe_pitches":[-3,-1,1,4,6,1,4,-1,-3,1,-3,4],"shifted_pitches":[-3,-1,1,4,6,1,3,-1,-3,1,-3,4],"swapped_pitches":[-3,-1,1,4,6,4,1,-1,-3,1,-3,4],"shift_direction":-1,"question_num":131,"has_decoy":false},{"rt":1493.8999999985099,"stimulus":"[A] option 1, [L] option 2, [G] neither","key_press":71,"name":"choice","trial_type":"html-keyboard-response","trial_index":164,"time_elapsed":322627,"internal_node_id":"0.0-164.0","subject":"S1C1221","sona":"41532","block":5,"time":"2021-09-17T01:33:11.277Z","response":"neither","certainty":"high","char":"G","transposition":2,"order":["shifted","swapped"],"probe_pitches":[2,-1,2,7,2,9,4,-3,2,-1,4,7],"shifted_pitches":[2,-1,2,7,2,8,4,-3,2,-1,4,7],"swapped_pitches":[2,-1,2,7,2,4,9,-3,2,-1,4,7],"shift_direction":-1,"question_num":141,"has_decoy":false},{"rt":5837.4000000003725,"stimulus":"[A] option 1, [L] option 2, [G] neither","key_press":65,"name":"choice","trial_type":"html-keyboard-response","trial_index":175,"time_elapsed":346691,"internal_node_id":"0.0-175.0","subject":"S1C1221","sona":"41532","block":5,"time":"2021-09-17T01:33:11.277Z","response":"1st","certainty":"high","char":"A","transposition":-1,"order":["swapped","shifted"],"probe_pitches":[5,0,1,-1,7,9,5,-2,1,0,8,9],"shifted_pitches":[5,0,1,-1,7,9,4,-2,1,0,8,9],"swapped_pitches":[5,0,1,-1,7,5,9,-2,1,0,8,9],"shift_direction":-1,"question_num":151,"has_decoy":false},{"rt":2966.4000000003725,"stimulus":"[A] option 1, [L] option 2, [G] neither","key_press":71,"name":"choice","trial_type":"html-keyboard-response","trial_index":186,"time_elapsed":368089,"internal_node_id":"0.0-186.0","subject":"S1C1221","sona":"41532","block":5,"time":"2021-09-17T01:33:11.277Z","response":"neither","certainty":"high","char":"G","transposition":-2,"order":["shifted","swapped"],"probe_pitches":[7,3,-3,-2,2,8,-1,7,4,9,2,1],"shifted_pitches":[7,3,-3,-2,2,8,0,7,4,9,2,1],"swapped_pitches":[7,3,-3,-2,2,-1,8,7,4,9,2,1],"shift_direction":1,"question_num":161,"has_decoy":false},{"rt":2238.800000000745,"stimulus":"[A] option 1, [L] option 2, [G] neither","key_press":76,"name":"choice","trial_type":"html-keyboard-response","trial_index":197,"time_elapsed":389162,"internal_node_id":"0.0-197.0","subject":"S1C1221","sona":"41532","block":5,"time":"2021-09-17T01:33:11.277Z","response":"2nd","certainty":"high","char":"L","transposition":-3,"order":["shifted","swapped"],"probe_pitches":[9,7,2,5,0,9,5,-3,2,9,5,0],"shifted_pitches":[9,7,2,5,0,9,6,-3,2,9,5,0],"swapped_pitches":[9,7,2,5,0,5,9,-3,2,9,5,0],"shift_direction":1,"question_num":171,"has_decoy":false},{"rt":1424.2000000011176,"stimulus":"[A] option 1, [L] option 2, [G] neither","key_press":71,"name":"choice","trial_type":"html-keyboard-response","trial_index":208,"time_elapsed":409298,"internal_node_id":"0.0-208.0","subject":"S1C1221","sona":"41532","block":5,"time":"2021-09-17T01:33:11.277Z","response":"neither","certainty":"high","char":"G","transposition":-1,"order":["swapped","shifted"],"probe_pitches":[4,2,7,9,4,2,7,0,-3,4,7,2],"shifted_pitches":[4,2,7,9,4,1,7,0,-3,4,7,2],"swapped_pitches":[4,2,7,9,4,7,2,0,-3,4,7,2],"shift_direction":-1,"question_num":181,"has_decoy":false},{"rt":349.09999999962747,"stimulus":"[A] option 1, [L] option 2, [G] neither","key_press":76,"name":"choice","trial_type":"html-keyboard-response","trial_index":219,"time_elapsed":428323,"internal_node_id":"0.0-219.0","subject":"S1C1221","sona":"41532","block":5,"time":"2021-09-17T01:33:11.277Z","response":"2nd","certainty":"high","char":"L","transposition":3,"order":["shifted","swapped"],"probe_pitches":[5,0,-1,0,-1,2,5,0,8,1,-1,5],"shifted_pitches":[5,0,-1,0,-1,3,5,0,8,1,-1,5],"swapped_pitches":[5,0,-1,0,-1,5,2,0,8,1,-1,5],"shift_direction":1,"question_num":191,"has_decoy":false}]