[{"rt":7948.799999998882,"stimulus":"[A] option 1, [L] option 2, [G] neither","key_press":76,"name":"choice","trial_type":"html-keyboard-response","trial_index":15,"time_elapsed":81465,"internal_node_id":"0.0-15.0","response":"2nd","certainty":"high","char":"L","transposition":-3,"order":["swapped","shifted"],"probe_pitches":[1,0,-1,2,3,8,2,-1,2,4,-2,-1],"shifted_pitches":[1,0,-1,2,3,7,2,-1,2,4,-2,-1],"swapped_pitches":[1,0,-1,2,3,2,8,-1,2,4,-2,-1],"shift_direction":-1,"question_num":1,"has_decoy":false,"subject":"S1C1221","sona":"41532","block":1,"time":"2021-09-17T01:04:54.466Z"},{"rt":3529.199999999255,"stimulus":"[A] option 1, [L] option 2, [G] neither","key_press":65,"name":"choice","trial_type":"html-keyboard-response","trial_index":26,"time_elapsed":104783,"internal_node_id":"0.0-26.0","response":"1st","certainty":"high","char":"A","transposition":-2,"order":["swapped","shifted"],"probe_pitches":[0,5,2,0,9,5,2,7,12,0,2,9],"shifted_pitches":[0,5,2,0,9,4,2,7,12,0,2,9],"swapped_pitches":[0,5,2,0,9,2,5,7,12,0,2,9],"shift_direction":-1,"question_num":11,"has_decoy":false,"subject":"S1C1221","sona":"41532","block":1,"time":"2021-09-17T01:04:54.466Z"},{"rt":5607.5999999996275,"stimulus":"[A] option 1, [L] option 2, [G] neither","key_press":65,"name":"choice","trial_type":"html-keyboard-response","trial_index":37,"time_elapsed":129473,"internal_node_id":"0.0-37.0","response":"1st","certainty":"high","char":"A","transposition":-1,"order":["swapped","shifted"],"probe_pitches":[1,6,4,6,-2,7,3,5,2,6,-2,5],"shifted_pitches":[1,6,4,6,-2,8,3,5,2,6,-2,5],"swapped_pitches":[1,6,4,6,-2,3,7,5,2,6,-2,5],"shift_direction":1,"question_num":21,"has_decoy":false,"subject":"S1C1221","sona":"41532","block":1,"time":"2021-09-17T01:04:54.466Z"},{"rt":4639.5,"stimulus":"[A] option 1, [L] option 2, [G] neither","key_press":71,"name":"choice","trial_type":"html-keyboard-response","trial_index":48,"time_elapsed":153144,"internal_node_id":"0.0-48.0","response":"neither","certainty":"high","char":"G","transposition":-1,"order":["shifted","swapped"],"probe_pitches":[3,0,5,10,5,12,8,0,5,12,5,10],"shifted_pitches":[3,0,5,10,5,11,8,0,5,12,5,10],"swapped_pitches":[3,0,5,10,5,8,12,0,5,12,5,10],"shift_direction":-1,"question_num":31,"has_decoy":false,"subject":"S1C1221","sona":"41532","block":1,"time":"2021-09-17T01:04:54.466Z"},{"rt":5995.199999999255,"stimulus":"[A] option 1, [L] option 2, [G] neither","key_press":76,"name":"choice","trial_type":"html-keyboard-response","trial_index":59,"time_elapsed":178120,"internal_node_id":"0.0-59.0","response":"2nd","certainty":"high","char":"L","transposition":-1,"order":["shifted","swapped"],"probe_pitches":[7,5,6,1,-3,4,-2,5,-3,6,2,5],"shifted_pitches":[7,5,6,1,-3,4,-1,5,-3,6,2,5],"swapped_pitches":[7,5,6,1,-3,-2,4,5,-3,6,2,5],"shift_direction":1,"question_num":41,"has_decoy":false,"subject":"S1C1221","sona":"41532","block":1,"time":"2021-09-17T01:04:54.466Z"},{"rt":1214.4000000003725,"stimulus":"[A] option 1, [L] option 2, [G] neither","key_press":71,"name":"choice","trial_type":"html-keyboard-response","trial_index":70,"time_elapsed":198313,"internal_node_id":"0.0-70.0","response":"neither","certainty":"high","char":"G","transposition":-3,"order":["shifted","swapped"],"probe_pitches":[2,-1,-2,0,2,0,5,8,-3,-2,8,4],"shifted_pitches":[2,-1,-2,0,2,0,6,8,-3,-2,8,4],"swapped_pitches":[2,-1,-2,0,2,5,0,8,-3,-2,8,4],"shift_direction":1,"question_num":51,"has_decoy":false,"subject":"S1C1221","sona":"41532","block":1,"time":"2021-09-17T01:04:54.466Z"},{"rt":3755.5999999996275,"stimulus":"[A] option 1, [L] option 2, [G] neither","key_press":65,"name":"choice","trial_type":"html-keyboard-response","trial_index":81,"time_elapsed":220880,"internal_node_id":"0.0-81.0","response":"1st","certainty":"high","char":"A","transposition":0,"order":["shifted","swapped"],"probe_pitches":[2,5,10,2,5,10,0,12,10,7,5,10],"shifted_pitches":[2,5,10,2,5,10,-1,12,10,7,5,10],"swapped_pitches":[2,5,10,2,5,0,10,12,10,7,5,10],"shift_direction":-1,"question_num":61,"has_decoy":false,"subject":"S1C1221","sona":"41532","block":1,"time":"2021-09-17T01:04:54.466Z"},{"rt":2551.0999999996275,"stimulus":"[A] option 1, [L] option 2, [G] neither","key_press":76,"name":"choice","trial_type":"html-keyboard-response","trial_index":92,"time_elapsed":242216,"internal_node_id":"0.0-92.0","response":"2nd","certainty":"high","char":"L","transposition":2,"order":["swapped","shifted"],"probe_pitches":[5,7,6,9,5,1,8,9,3,2,9,2],"shifted_pitches":[5,7,6,9,5,0,8,9,3,2,9,2],"swapped_pitches":[5,7,6,9,5,8,1,9,3,2,9,2],"shift_direction":-1,"question_num":71,"has_decoy":false,"subject":"S1C1221","sona":"41532","block":1,"time":"2021-09-17T01:04:54.466Z"},{"rt":3139.199999999255,"stimulus":"[A] option 1, [L] option 2, [G] neither","key_press":71,"name":"choice","trial_type":"html-keyboard-response","trial_index":103,"time_elapsed":264824,"internal_node_id":"0.0-103.0","response":"neither","certainty":"high","char":"G","transposition":1,"order":["shifted","swapped"],"probe_pitches":[8,2,3,-2,-3,2,3,6,7,0,6,8],"shifted_pitches":[8,2,3,-2,-3,1,3,6,7,0,6,8],"swapped_pitches":[8,2,3,-2,-3,3,2,6,7,0,6,8],"shift_direction":-1,"question_num":81,"has_decoy":false,"subject":"S1C1221","sona":"41532","block":1,"time":"2021-09-17T01:04:54.466Z"},{"rt":1225.2999999988824,"stimulus":"[A] option 1, [L] option 2, [G] neither","key_press":76,"name":"choice","trial_type":"html-keyboard-response","trial_index":114,"time_elapsed":284400,"internal_node_id":"0.0-114.0","response":"2nd","certainty":"high","char":"L","transposition":2,"order":["swapped","shifted"],"probe_pitches":[9,5,2,7,9,7,5,12,2,5,0,7],"shifted_pitches":[9,5,2,7,9,6,5,12,2,5,0,7],"swapped_pitches":[9,5,2,7,9,5,7,12,2,5,0,7],"shift_direction":-1,"question_num":91,"has_decoy":false,"subject":"S1C1221","sona":"41532","block":1,"time":"2021-09-17T01:04:54.466Z"},{"rt":2373.5,"stimulus":"[A] option 1, [L] option 2, [G] neither","key_press":76,"name":"choice","trial_type":"html-keyboard-response","trial_index":125,"time_elapsed":305368,"internal_node_id":"0.0-125.0","response":"2nd","certainty":"high","char":"L","transposition":3,"order":["shifted","swapped"],"probe_pitches":[3,5,12,7,0,10,7,3,0,3,10,0],"shifted_pitches":[3,5,12,7,0,11,7,3,0,3,10,0],"swapped_pitches":[3,5,12,7,0,7,10,3,0,3,10,0],"shift_direction":1,"question_num":101,"has_decoy":false,"subject":"S1C1221","sona":"41532","block":1,"time":"2021-09-17T01:04:54.466Z"},{"rt":851.5999999996275,"stimulus":"[A] option 1, [L] option 2, [G] neither","key_press":65,"name":"choice","trial_type":"html-keyboard-response","trial_index":136,"time_elapsed":325656,"internal_node_id":"0.0-136.0","response":"1st","certainty":"high","char":"A","transposition":-3,"order":["swapped","shifted"],"probe_pitches":[12,10,8,10,5,0,3,8,3,12,5,10],"shifted_pitches":[12,10,8,10,5,-1,3,8,3,12,5,10],"swapped_pitches":[12,10,8,10,5,3,0,8,3,12,5,10],"shift_direction":-1,"question_num":111,"has_decoy":false,"subject":"S1C1221","sona":"41532","block":1,"time":"2021-09-17T01:04:54.466Z"},{"rt":366,"stimulus":"[A] option 1, [L] option 2, [G] neither","key_press":76,"name":"choice","trial_type":"html-keyboard-response","trial_index":147,"time_elapsed":344591,"internal_node_id":"0.0-147.0","response":"2nd","certainty":"high","char":"L","transposition":1,"order":["swapped","shifted"],"probe_pitches":[7,5,7,10,7,0,3,10,12,5,0,7],"shifted_pitches":[7,5,7,10,7,0,4,10,12,5,0,7],"swapped_pitches":[7,5,7,10,7,3,0,10,12,5,0,7],"shift_direction":1,"question_num":121,"has_decoy":false,"subject":"S1C1221","sona":"41532","block":1,"time":"2021-09-17T01:04:54.466Z"},{"rt":617.2999999988824,"stimulus":"[A] option 1, [L] option 2, [G] neither","key_press":65,"name":"choice","trial_type":"html-keyboard-response","trial_index":158,"time_elapsed":363552,"internal_node_id":"0.0-158.0","response":"1st","certainty":"high","char":"A","transposition":-2,"order":["shifted","swapped"],"probe_pitches":[3,6,0,7,-1,3,1,-3,8,-3,5,-1],"shifted_pitches":[3,6,0,7,-1,3,2,-3,8,-3,5,-1],"swapped_pitches":[3,6,0,7,-1,1,3,-3,8,-3,5,-1],"shift_direction":1,"question_num":131,"has_decoy":false,"subject":"S1C1221","sona":"41532","block":1,"time":"2021-09-17T01:04:54.466Z"},{"rt":1747.0999999996275,"stimulus":"[A] option 1, [L] option 2, [G] neither","key_press":65,"name":"choice","trial_type":"html-keyboard-response","trial_index":169,"time_elapsed":385472,"internal_node_id":"0.0-169.0","response":"1st","certainty":"high","char":"A","transposition":-3,"order":["swapped","shifted"],"probe_pitches":[9,4,0,2,0,7,2,12,7,9,0,12],"shifted_pitches":[9,4,0,2,0,7,3,12,7,9,0,12],"swapped_pitches":[9,4,0,2,0,2,7,12,7,9,0,12],"shift_direction":1,"question_num":141,"has_decoy":false,"subject":"S1C1221","sona":"41532","block":1,"time":"2021-09-17T01:04:54.466Z"},{"rt":3325.5,"stimulus":"[A] option 1, [L] option 2, [G] neither","key_press":76,"name":"choice","trial_type":"html-keyboard-response","trial_index":180,"time_elapsed":408240,"internal_node_id":"0.0-180.0","response":"2nd","certainty":"high","char":"L","transposition":0,"order":["swapped","shifted"],"probe_pitches":[7,8,5,-1,7,-1,4,6,5,1,7,1],"shifted_pitches":[7,8,5,-1,7,-1,3,6,5,1,7,1],"swapped_pitches":[7,8,5,-1,7,4,-1,6,5,1,7,1],"shift_direction":-1,"question_num":151,"has_decoy":false,"subject":"S1C1221","sona":"41532","block":1,"time":"2021-09-17T01:04:54.466Z"},{"rt":3047,"stimulus":"[A] option 1, [L] option 2, [G] neither","key_press":71,"name":"choice","trial_type":"html-keyboard-response","trial_index":191,"time_elapsed":430312,"internal_node_id":"0.0-191.0","response":"neither","certainty":"high","char":"G","transposition":-2,"order":["shifted","swapped"],"probe_pitches":[1,4,3,4,-3,6,1,3,-2,2,-1,6],"shifted_pitches":[1,4,3,4,-3,5,1,3,-2,2,-1,6],"swapped_pitches":[1,4,3,4,-3,1,6,3,-2,2,-1,6],"shift_direction":-1,"question_num":161,"has_decoy":false,"subject":"S1C1221","sona":"41532","block":1,"time":"2021-09-17T01:04:54.466Z"},{"rt":1696.9000000003725,"stimulus":"[A] option 1, [L] option 2, [G] neither","key_press":76,"name":"choice","trial_type":"html-keyboard-response","trial_index":202,"time_elapsed":450471,"internal_node_id":"0.0-202.0","response":"2nd","certainty":"high","char":"L","transposition":3,"order":["swapped","shifted"],"probe_pitches":[1,-2,1,5,9,6,3,0,1,5,2,1],"shifted_pitches":[1,-2,1,5,9,6,4,0,1,5,2,1],"swapped_pitches":[1,-2,1,5,9,3,6,0,1,5,2,1],"shift_direction":1,"question_num":171,"has_decoy":false,"subject":"S1C1221","sona":"41532","block":1,"time":"2021-09-17T01:04:54.466Z"},{"rt":1030.800000000745,"stimulus":"[A] option 1, [L] option 2, [G] neither","key_press":76,"name":"choice","trial_type":"html-keyboard-response","trial_index":213,"time_elapsed":471535,"internal_node_id":"0.0-213.0","response":"2nd","certainty":"high","char":"L","transposition":-2,"order":["shifted","swapped"],"probe_pitches":[2,5,7,0,5,7,2,12,10,2,12,7],"shifted_pitches":[2,5,7,0,5,7,3,12,10,2,12,7],"swapped_pitches":[2,5,7,0,5,2,7,12,10,2,12,7],"shift_direction":1,"question_num":181,"has_decoy":false,"subject":"S1C1221","sona":"41532","block":1,"time":"2021-09-17T01:04:54.466Z"},{"rt":3124.7999999988824,"stimulus":"[A] option 1, [L] option 2, [G] neither","key_press":76,"name":"choice","trial_type":"html-keyboard-response","trial_index":224,"time_elapsed":494958,"internal_node_id":"0.0-224.0","response":"2nd","certainty":"high","char":"L","transposition":-1,"order":["shifted","swapped"],"probe_pitches":[2,4,0,7,2,12,4,2,4,2,9,2],"shifted_pitches":[2,4,0,7,2,12,5,2,4,2,9,2],"swapped_pitches":[2,4,0,7,2,4,12,2,4,2,9,2],"shift_direction":1,"question_num":191,"has_decoy":false,"subject":"S1C1221","sona":"41532","block":1,"time":"2021-09-17T01:04:54.466Z"}]