[{"rt":309.90000000037253,"stimulus":"[A] option 1, [L] option 2, [G] neither","key_press":76,"name":"choice","trial_type":"html-keyboard-response","trial_index":10,"time_elapsed":21248,"internal_node_id":"0.0-10.0","subject":"S1C1221","sona":"41532","block":3,"time":"2021-09-17T01:19:06.023Z","response":"2nd","certainty":"high","char":"L","transposition":-3,"order":["shifted","swapped"],"probe_pitches":[3,6,-1,6,3,1,-1,6,-1,6,8,3],"shifted_pitches":[3,6,-1,6,3,2,-1,6,-1,6,8,3],"swapped_pitches":[3,6,-1,6,3,-1,1,6,-1,6,8,3],"shift_direction":1,"question_num":1,"has_decoy":false},{"rt":972.2999999988824,"stimulus":"[A] option 1, [L] option 2, [G] neither","key_press":65,"name":"choice","trial_type":"html-keyboard-response","trial_index":21,"time_elapsed":40600,"internal_node_id":"0.0-21.0","subject":"S1C1221","sona":"41532","block":3,"time":"2021-09-17T01:19:06.023Z","response":"1st","certainty":"high","char":"A","transposition":-3,"order":["shifted","swapped"],"probe_pitches":[14,13,14,9,8,13,4,12,6,4,9,13],"shifted_pitches":[14,13,14,9,8,13,5,12,6,4,9,13],"swapped_pitches":[14,13,14,9,8,4,13,12,6,4,9,13],"shift_direction":1,"question_num":11,"has_decoy":false},{"rt":2778.800000000745,"stimulus":"[A] option 1, [L] option 2, [G] neither","key_press":71,"name":"choice","trial_type":"html-keyboard-response","trial_index":32,"time_elapsed":62256,"internal_node_id":"0.0-32.0","subject":"S1C1221","sona":"41532","block":3,"time":"2021-09-17T01:19:06.023Z","response":"neither","certainty":"high","char":"G","transposition":-2,"order":["shifted","swapped"],"probe_pitches":[11,6,4,6,11,6,4,11,1,11,8,-1],"shifted_pitches":[11,6,4,6,11,5,4,11,1,11,8,-1],"swapped_pitches":[11,6,4,6,11,4,6,11,1,11,8,-1],"shift_direction":-1,"question_num":21,"has_decoy":false},{"rt":601.5999999996275,"stimulus":"[A] option 1, [L] option 2, [G] neither","key_press":65,"name":"choice","trial_type":"html-keyboard-response","trial_index":43,"time_elapsed":80929,"internal_node_id":"0.0-43.0","subject":"S1C1221","sona":"41532","block":3,"time":"2021-09-17T01:19:06.023Z","response":"1st","certainty":"high","char":"A","transposition":0,"order":["shifted","swapped"],"probe_pitches":[7,3,5,13,7,11,6,14,7,5,9,5],"shifted_pitches":[7,3,5,13,7,10,6,14,7,5,9,5],"swapped_pitches":[7,3,5,13,7,6,11,14,7,5,9,5],"shift_direction":-1,"question_num":31,"has_decoy":false},{"rt":379.40000000037253,"stimulus":"[A] option 1, [L] option 2, [G] neither","key_press":65,"name":"choice","trial_type":"html-keyboard-response","trial_index":54,"time_elapsed":101137,"internal_node_id":"0.0-54.0","subject":"S1C1221","sona":"41532","block":3,"time":"2021-09-17T01:19:06.023Z","response":"1st","certainty":"high","char":"A","transposition":-2,"order":["shifted","swapped"],"probe_pitches":[12,6,8,9,11,15,12,4,15,8,11,7],"shifted_pitches":[12,6,8,9,11,15,13,4,15,8,11,7],"swapped_pitches":[12,6,8,9,11,12,15,4,15,8,11,7],"shift_direction":1,"question_num":41,"has_decoy":false},{"rt":1210.0999999996275,"stimulus":"[A] option 1, [L] option 2, [G] neither","key_press":71,"name":"choice","trial_type":"html-keyboard-response","trial_index":65,"time_elapsed":121568,"internal_node_id":"0.0-65.0","subject":"S1C1221","sona":"41532","block":3,"time":"2021-09-17T01:19:06.023Z","response":"neither","certainty":"high","char":"G","transposition":0,"order":["shifted","swapped"],"probe_pitches":[4,2,9,4,7,11,2,4,-1,9,2,9],"shifted_pitches":[4,2,9,4,7,10,2,4,-1,9,2,9],"swapped_pitches":[4,2,9,4,7,2,11,4,-1,9,2,9],"shift_direction":-1,"question_num":51,"has_decoy":false},{"rt":313.8999999985099,"stimulus":"[A] option 1, [L] option 2, [G] neither","key_press":76,"name":"choice","trial_type":"html-keyboard-response","trial_index":76,"time_elapsed":140001,"internal_node_id":"0.0-76.0","subject":"S1C1221","sona":"41532","block":3,"time":"2021-09-17T01:19:06.023Z","response":"2nd","certainty":"high","char":"L","transposition":2,"order":["shifted","swapped"],"probe_pitches":[12,15,13,14,15,10,5,12,6,3,8,14],"shifted_pitches":[12,15,13,14,15,9,5,12,6,3,8,14],"swapped_pitches":[12,15,13,14,15,5,10,12,6,3,8,14],"shift_direction":-1,"question_num":61,"has_decoy":false},{"rt":1137.5,"stimulus":"[A] option 1, [L] option 2, [G] neither","key_press":76,"name":"choice","trial_type":"html-keyboard-response","trial_index":87,"time_elapsed":160025,"internal_node_id":"0.0-87.0","subject":"S1C1221","sona":"41532","block":3,"time":"2021-09-17T01:19:06.023Z","response":"2nd","certainty":"high","char":"L","transposition":-3,"order":["shifted","swapped"],"probe_pitches":[6,11,6,11,6,-1,1,9,4,9,11,-1],"shifted_pitches":[6,11,6,11,6,-1,2,9,4,9,11,-1],"swapped_pitches":[6,11,6,11,6,1,-1,9,4,9,11,-1],"shift_direction":1,"question_num":71,"has_decoy":false},{"rt":1023.5,"stimulus":"[A] option 1, [L] option 2, [G] neither","key_press":76,"name":"choice","trial_type":"html-keyboard-response","trial_index":98,"time_elapsed":179281,"internal_node_id":"0.0-98.0","subject":"S1C1221","sona":"41532","block":3,"time":"2021-09-17T01:19:06.023Z","response":"2nd","certainty":"high","char":"L","transposition":3,"order":["swapped","shifted"],"probe_pitches":[6,4,6,-1,4,11,2,6,2,9,-1,9],"shifted_pitches":[6,4,6,-1,4,11,3,6,2,9,-1,9],"swapped_pitches":[6,4,6,-1,4,2,11,6,2,9,-1,9],"shift_direction":1,"question_num":81,"has_decoy":false},{"rt":1367.0999999996275,"stimulus":"[A] option 1, [L] option 2, [G] neither","key_press":71,"name":"choice","trial_type":"html-keyboard-response","trial_index":109,"time_elapsed":200186,"internal_node_id":"0.0-109.0","subject":"S1C1221","sona":"41532","block":3,"time":"2021-09-17T01:19:06.023Z","response":"neither","certainty":"high","char":"G","transposition":1,"order":["swapped","shifted"],"probe_pitches":[6,11,9,4,11,4,-1,9,11,2,9,6],"shifted_pitches":[6,11,9,4,11,4,-2,9,11,2,9,6],"swapped_pitches":[6,11,9,4,11,-1,4,9,11,2,9,6],"shift_direction":-1,"question_num":91,"has_decoy":false},{"rt":2404,"stimulus":"[A] option 1, [L] option 2, [G] neither","key_press":71,"name":"choice","trial_type":"html-keyboard-response","trial_index":120,"time_elapsed":221192,"internal_node_id":"0.0-120.0","subject":"S1C1221","sona":"41532","block":3,"time":"2021-09-17T01:19:06.023Z","response":"neither","certainty":"high","char":"G","transposition":-1,"order":["swapped","shifted"],"probe_pitches":[1,-1,1,-1,1,11,8,4,1,6,4,-1],"shifted_pitches":[1,-1,1,-1,1,11,7,4,1,6,4,-1],"swapped_pitches":[1,-1,1,-1,1,8,11,4,1,6,4,-1],"shift_direction":-1,"question_num":101,"has_decoy":false},{"rt":4114.300000000745,"stimulus":"[A] option 1, [L] option 2, [G] neither","key_press":71,"name":"choice","trial_type":"html-keyboard-response","trial_index":131,"time_elapsed":246961,"internal_node_id":"0.0-131.0","subject":"S1C1221","sona":"41532","block":3,"time":"2021-09-17T01:19:06.023Z","response":"neither","certainty":"high","char":"G","transposition":-1,"order":["shifted","swapped"],"probe_pitches":[1,3,6,11,3,11,8,1,11,6,-1,6],"shifted_pitches":[1,3,6,11,3,12,8,1,11,6,-1,6],"swapped_pitches":[1,3,6,11,3,8,11,1,11,6,-1,6],"shift_direction":1,"question_num":111,"has_decoy":false},{"rt":2983.7999999988824,"stimulus":"[A] option 1, [L] option 2, [G] neither","key_press":76,"name":"choice","trial_type":"html-keyboard-response","trial_index":142,"time_elapsed":271041,"internal_node_id":"0.0-142.0","subject":"S1C1221","sona":"41532","block":3,"time":"2021-09-17T01:19:06.023Z","response":"2nd","certainty":"high","char":"L","transposition":-2,"order":["swapped","shifted"],"probe_pitches":[12,8,5,11,15,7,5,14,4,13,5,15],"shifted_pitches":[12,8,5,11,15,7,6,14,4,13,5,15],"swapped_pitches":[12,8,5,11,15,5,7,14,4,13,5,15],"shift_direction":1,"question_num":121,"has_decoy":false},{"rt":3036.800000000745,"stimulus":"[A] option 1, [L] option 2, [G] neither","key_press":71,"name":"choice","trial_type":"html-keyboard-response","trial_index":153,"time_elapsed":293425,"internal_node_id":"0.0-153.0","subject":"S1C1221","sona":"41532","block":3,"time":"2021-09-17T01:19:06.023Z","response":"neither","certainty":"high","char":"G","transposition":-3,"order":["swapped","shifted"],"probe_pitches":[4,9,4,5,6,8,12,14,13,12,9,7],"shifted_pitches":[4,9,4,5,6,8,11,14,13,12,9,7],"swapped_pitches":[4,9,4,5,6,12,8,14,13,12,9,7],"shift_direction":-1,"question_num":131,"has_decoy":false},{"rt":206.7999999988824,"stimulus":"[A] option 1, [L] option 2, [G] neither","key_press":65,"name":"choice","trial_type":"html-keyboard-response","trial_index":164,"time_elapsed":312505,"internal_node_id":"0.0-164.0","subject":"S1C1221","sona":"41532","block":3,"time":"2021-09-17T01:19:06.023Z","response":"1st","certainty":"high","char":"A","transposition":2,"order":["swapped","shifted"],"probe_pitches":[2,7,2,9,11,2,9,11,7,11,4,2],"shifted_pitches":[2,7,2,9,11,2,8,11,7,11,4,2],"swapped_pitches":[2,7,2,9,11,9,2,11,7,11,4,2],"shift_direction":-1,"question_num":141,"has_decoy":false},{"rt":284.5,"stimulus":"[A] option 1, [L] option 2, [G] neither","key_press":76,"name":"choice","trial_type":"html-keyboard-response","trial_index":175,"time_elapsed":330960,"internal_node_id":"0.0-175.0","subject":"S1C1221","sona":"41532","block":3,"time":"2021-09-17T01:19:06.023Z","response":"2nd","certainty":"high","char":"L","transposition":3,"order":["swapped","shifted"],"probe_pitches":[4,10,12,14,6,9,11,10,6,10,13,4],"shifted_pitches":[4,10,12,14,6,8,11,10,6,10,13,4],"swapped_pitches":[4,10,12,14,6,11,9,10,6,10,13,4],"shift_direction":-1,"question_num":151,"has_decoy":false},{"rt":251.09999999962747,"stimulus":"[A] option 1, [L] option 2, [G] neither","key_press":65,"name":"choice","trial_type":"html-keyboard-response","trial_index":186,"time_elapsed":349769,"internal_node_id":"0.0-186.0","subject":"S1C1221","sona":"41532","block":3,"time":"2021-09-17T01:19:06.023Z","response":"1st","certainty":"high","char":"A","transposition":1,"order":["swapped","shifted"],"probe_pitches":[8,11,12,5,13,3,11,10,8,12,5,15],"shifted_pitches":[8,11,12,5,13,2,11,10,8,12,5,15],"swapped_pitches":[8,11,12,5,13,11,3,10,8,12,5,15],"shift_direction":-1,"question_num":161,"has_decoy":false},{"rt":352,"stimulus":"[A] option 1, [L] option 2, [G] neither","key_press":71,"name":"choice","trial_type":"html-keyboard-response","trial_index":197,"time_elapsed":369159,"internal_node_id":"0.0-197.0","subject":"S1C1221","sona":"41532","block":3,"time":"2021-09-17T01:19:06.023Z","response":"neither","certainty":"high","char":"G","transposition":-1,"order":["shifted","swapped"],"probe_pitches":[5,3,4,10,14,12,6,13,14,4,15,13],"shifted_pitches":[5,3,4,10,14,12,7,13,14,4,15,13],"swapped_pitches":[5,3,4,10,14,6,12,13,14,4,15,13],"shift_direction":1,"question_num":171,"has_decoy":false},{"rt":1854.800000000745,"stimulus":"[A] option 1, [L] option 2, [G] neither","key_press":71,"name":"choice","trial_type":"html-keyboard-response","trial_index":208,"time_elapsed":389961,"internal_node_id":"0.0-208.0","subject":"S1C1221","sona":"41532","block":3,"time":"2021-09-17T01:19:06.023Z","response":"neither","certainty":"high","char":"G","transposition":-1,"order":["swapped","shifted"],"probe_pitches":[11,13,7,6,5,11,7,8,4,15,6,15],"shifted_pitches":[11,13,7,6,5,12,7,8,4,15,6,15],"swapped_pitches":[11,13,7,6,5,7,11,8,4,15,6,15],"shift_direction":1,"question_num":181,"has_decoy":false},{"rt":264.40000000037253,"stimulus":"[A] option 1, [L] option 2, [G] neither","key_press":71,"name":"choice","trial_type":"html-keyboard-response","trial_index":219,"time_elapsed":408953,"internal_node_id":"0.0-219.0","subject":"S1C1221","sona":"41532","block":3,"time":"2021-09-17T01:19:06.023Z","response":"neither","certainty":"high","char":"G","transposition":-2,"order":["swapped","shifted"],"probe_pitches":[1,-1,4,6,11,9,-1,11,6,-1,1,-1],"shifted_pitches":[1,-1,4,6,11,10,-1,11,6,-1,1,-1],"swapped_pitches":[1,-1,4,6,11,-1,9,11,6,-1,1,-1],"shift_direction":1,"question_num":191,"has_decoy":false}]