[{"rt":4043.10000000149,"stimulus":"[A] option 1, [L] option 2, [G] neither","key_press":76,"name":"choice","trial_type":"html-keyboard-response","trial_index":10,"time_elapsed":26004,"internal_node_id":"0.0-10.0","subject":"S1C1221","sona":"41532","block":2,"time":"2021-09-17T01:12:12.712Z","response":"2nd","certainty":"high","char":"L","transposition":-3,"order":["swapped","shifted"],"probe_pitches":[8,2,5,4,8,4,5,13,12,2,5,4],"shifted_pitches":[8,2,5,4,8,4,6,13,12,2,5,4],"swapped_pitches":[8,2,5,4,8,5,4,13,12,2,5,4],"shift_direction":1,"question_num":1,"has_decoy":false},{"rt":335,"stimulus":"[A] option 1, [L] option 2, [G] neither","key_press":65,"name":"choice","trial_type":"html-keyboard-response","trial_index":21,"time_elapsed":45836,"internal_node_id":"0.0-21.0","subject":"S1C1221","sona":"41532","block":2,"time":"2021-09-17T01:12:12.712Z","response":"1st","certainty":"high","char":"A","transposition":-2,"order":["swapped","shifted"],"probe_pitches":[10,7,4,12,5,13,10,3,7,14,2,4],"shifted_pitches":[10,7,4,12,5,13,9,3,7,14,2,4],"swapped_pitches":[10,7,4,12,5,10,13,3,7,14,2,4],"shift_direction":-1,"question_num":11,"has_decoy":false},{"rt":1279.0999999996275,"stimulus":"[A] option 1, [L] option 2, [G] neither","key_press":76,"name":"choice","trial_type":"html-keyboard-response","trial_index":32,"time_elapsed":65660,"internal_node_id":"0.0-32.0","subject":"S1C1221","sona":"41532","block":2,"time":"2021-09-17T01:12:12.712Z","response":"2nd","certainty":"high","char":"L","transposition":-1,"order":["shifted","swapped"],"probe_pitches":[7,11,6,7,2,12,8,9,11,12,7,14],"shifted_pitches":[7,11,6,7,2,13,8,9,11,12,7,14],"swapped_pitches":[7,11,6,7,2,8,12,9,11,12,7,14],"shift_direction":1,"question_num":21,"has_decoy":false},{"rt":3360.5999999996275,"stimulus":"[A] option 1, [L] option 2, [G] neither","key_press":76,"name":"choice","trial_type":"html-keyboard-response","trial_index":43,"time_elapsed":89011,"internal_node_id":"0.0-43.0","subject":"S1C1221","sona":"41532","block":2,"time":"2021-09-17T01:12:12.712Z","response":"2nd","certainty":"high","char":"L","transposition":-2,"order":["swapped","shifted"],"probe_pitches":[8,11,4,3,12,11,7,5,9,12,13,14],"shifted_pitches":[8,11,4,3,12,10,7,5,9,12,13,14],"swapped_pitches":[8,11,4,3,12,7,11,5,9,12,13,14],"shift_direction":-1,"question_num":31,"has_decoy":false},{"rt":2593.0999999996275,"stimulus":"[A] option 1, [L] option 2, [G] neither","key_press":65,"name":"choice","trial_type":"html-keyboard-response","trial_index":54,"time_elapsed":111563,"internal_node_id":"0.0-54.0","subject":"S1C1221","sona":"41532","block":2,"time":"2021-09-17T01:12:12.712Z","response":"1st","certainty":"high","char":"A","transposition":-2,"order":["shifted","swapped"],"probe_pitches":[3,0,5,8,0,3,10,8,-2,5,0,3],"shifted_pitches":[3,0,5,8,0,4,10,8,-2,5,0,3],"swapped_pitches":[3,0,5,8,0,10,3,8,-2,5,0,3],"shift_direction":1,"question_num":41,"has_decoy":false},{"rt":1960.0999999996275,"stimulus":"[A] option 1, [L] option 2, [G] neither","key_press":65,"name":"choice","trial_type":"html-keyboard-response","trial_index":65,"time_elapsed":135354,"internal_node_id":"0.0-65.0","subject":"S1C1221","sona":"41532","block":2,"time":"2021-09-17T01:12:12.712Z","response":"1st","certainty":"high","char":"A","transposition":1,"order":["swapped","shifted"],"probe_pitches":[3,-2,0,8,0,-2,3,5,10,0,3,8],"shifted_pitches":[3,-2,0,8,0,-2,2,5,10,0,3,8],"swapped_pitches":[3,-2,0,8,0,3,-2,5,10,0,3,8],"shift_direction":-1,"question_num":51,"has_decoy":false},{"rt":562.6999999992549,"stimulus":"[A] option 1, [L] option 2, [G] neither","key_press":76,"name":"choice","trial_type":"html-keyboard-response","trial_index":76,"time_elapsed":155291,"internal_node_id":"0.0-76.0","subject":"S1C1221","sona":"41532","block":2,"time":"2021-09-17T01:12:12.712Z","response":"2nd","certainty":"high","char":"L","transposition":3,"order":["shifted","swapped"],"probe_pitches":[14,10,9,10,5,3,6,10,2,11,12,14],"shifted_pitches":[14,10,9,10,5,3,7,10,2,11,12,14],"swapped_pitches":[14,10,9,10,5,6,3,10,2,11,12,14],"shift_direction":1,"question_num":61,"has_decoy":false},{"rt":1022.7000000011176,"stimulus":"[A] option 1, [L] option 2, [G] neither","key_press":65,"name":"choice","trial_type":"html-keyboard-response","trial_index":87,"time_elapsed":174923,"internal_node_id":"0.0-87.0","subject":"S1C1221","sona":"41532","block":2,"time":"2021-09-17T01:12:12.712Z","response":"1st","certainty":"high","char":"A","transposition":2,"order":["swapped","shifted"],"probe_pitches":[7,10,5,10,3,5,10,7,0,-2,5,0],"shifted_pitches":[7,10,5,10,3,5,9,7,0,-2,5,0],"swapped_pitches":[7,10,5,10,3,10,5,7,0,-2,5,0],"shift_direction":-1,"question_num":71,"has_decoy":false},{"rt":652.8000000007451,"stimulus":"[A] option 1, [L] option 2, [G] neither","key_press":76,"name":"choice","trial_type":"html-keyboard-response","trial_index":98,"time_elapsed":195081,"internal_node_id":"0.0-98.0","subject":"S1C1221","sona":"41532","block":2,"time":"2021-09-17T01:12:12.712Z","response":"2nd","certainty":"high","char":"L","transposition":-1,"order":["shifted","swapped"],"probe_pitches":[3,6,3,6,1,10,3,6,1,8,-2,3],"shifted_pitches":[3,6,3,6,1,10,4,6,1,8,-2,3],"swapped_pitches":[3,6,3,6,1,3,10,6,1,8,-2,3],"shift_direction":1,"question_num":81,"has_decoy":false},{"rt":2625.7000000011176,"stimulus":"[A] option 1, [L] option 2, [G] neither","key_press":65,"name":"choice","trial_type":"html-keyboard-response","trial_index":109,"time_elapsed":216025,"internal_node_id":"0.0-109.0","subject":"S1C1221","sona":"41532","block":2,"time":"2021-09-17T01:12:12.712Z","response":"1st","certainty":"high","char":"A","transposition":0,"order":["swapped","shifted"],"probe_pitches":[5,0,7,5,10,7,-2,0,-2,2,5,7],"shifted_pitches":[5,0,7,5,10,7,-3,0,-2,2,5,7],"swapped_pitches":[5,0,7,5,10,-2,7,0,-2,2,5,7],"shift_direction":-1,"question_num":91,"has_decoy":false},{"rt":3283.300000000745,"stimulus":"[A] option 1, [L] option 2, [G] neither","key_press":65,"name":"choice","trial_type":"html-keyboard-response","trial_index":120,"time_elapsed":238763,"internal_node_id":"0.0-120.0","subject":"S1C1221","sona":"41532","block":2,"time":"2021-09-17T01:12:12.712Z","response":"1st","certainty":"high","char":"A","transposition":-3,"order":["shifted","swapped"],"probe_pitches":[3,8,5,3,-2,3,8,-2,1,10,1,10],"shifted_pitches":[3,8,5,3,-2,4,8,-2,1,10,1,10],"swapped_pitches":[3,8,5,3,-2,8,3,-2,1,10,1,10],"shift_direction":1,"question_num":101,"has_decoy":false},{"rt":2802.7999999988824,"stimulus":"[A] option 1, [L] option 2, [G] neither","key_press":71,"name":"choice","trial_type":"html-keyboard-response","trial_index":131,"time_elapsed":267883,"internal_node_id":"0.0-131.0","subject":"S1C1221","sona":"41532","block":2,"time":"2021-09-17T01:12:12.712Z","response":"neither","certainty":"high","char":"G","transposition":-3,"order":["swapped","shifted"],"probe_pitches":[4,2,9,3,6,13,4,7,2,7,13,5],"shifted_pitches":[4,2,9,3,6,12,4,7,2,7,13,5],"swapped_pitches":[4,2,9,3,6,4,13,7,2,7,13,5],"shift_direction":-1,"question_num":111,"has_decoy":false},{"rt":1376,"stimulus":"[A] option 1, [L] option 2, [G] neither","key_press":76,"name":"choice","trial_type":"html-keyboard-response","trial_index":142,"time_elapsed":289275,"internal_node_id":"0.0-142.0","subject":"S1C1221","sona":"41532","block":2,"time":"2021-09-17T01:12:12.712Z","response":"2nd","certainty":"high","char":"L","transposition":-1,"order":["shifted","swapped"],"probe_pitches":[12,8,3,9,7,3,5,13,10,13,2,6],"shifted_pitches":[12,8,3,9,7,3,4,13,10,13,2,6],"swapped_pitches":[12,8,3,9,7,5,3,13,10,13,2,6],"shift_direction":-1,"question_num":121,"has_decoy":false},{"rt":1636.5,"stimulus":"[A] option 1, [L] option 2, [G] neither","key_press":76,"name":"choice","trial_type":"html-keyboard-response","trial_index":153,"time_elapsed":310427,"internal_node_id":"0.0-153.0","subject":"S1C1221","sona":"41532","block":2,"time":"2021-09-17T01:12:12.712Z","response":"2nd","certainty":"high","char":"L","transposition":-3,"order":["swapped","shifted"],"probe_pitches":[1,3,-2,3,10,8,6,3,1,8,3,10],"shifted_pitches":[1,3,-2,3,10,7,6,3,1,8,3,10],"swapped_pitches":[1,3,-2,3,10,6,8,3,1,8,3,10],"shift_direction":-1,"question_num":131,"has_decoy":false},{"rt":2088.5999999996275,"stimulus":"[A] option 1, [L] option 2, [G] neither","key_press":71,"name":"choice","trial_type":"html-keyboard-response","trial_index":164,"time_elapsed":331538,"internal_node_id":"0.0-164.0","subject":"S1C1221","sona":"41532","block":2,"time":"2021-09-17T01:12:12.712Z","response":"neither","certainty":"high","char":"G","transposition":2,"order":["swapped","shifted"],"probe_pitches":[10,13,7,4,3,5,7,9,2,14,10,11],"shifted_pitches":[10,13,7,4,3,5,8,9,2,14,10,11],"swapped_pitches":[10,13,7,4,3,7,5,9,2,14,10,11],"shift_direction":1,"question_num":141,"has_decoy":false},{"rt":1505.5,"stimulus":"[A] option 1, [L] option 2, [G] neither","key_press":76,"name":"choice","trial_type":"html-keyboard-response","trial_index":175,"time_elapsed":351465,"internal_node_id":"0.0-175.0","subject":"S1C1221","sona":"41532","block":2,"time":"2021-09-17T01:12:12.712Z","response":"2nd","certainty":"high","char":"L","transposition":-2,"order":["shifted","swapped"],"probe_pitches":[10,5,10,3,8,1,-2,10,1,-2,10,3],"shifted_pitches":[10,5,10,3,8,2,-2,10,1,-2,10,3],"swapped_pitches":[10,5,10,3,8,-2,1,10,1,-2,10,3],"shift_direction":1,"question_num":151,"has_decoy":false},{"rt":787.5,"stimulus":"[A] option 1, [L] option 2, [G] neither","key_press":76,"name":"choice","trial_type":"html-keyboard-response","trial_index":186,"time_elapsed":370777,"internal_node_id":"0.0-186.0","subject":"S1C1221","sona":"41532","block":2,"time":"2021-09-17T01:12:12.712Z","response":"2nd","certainty":"high","char":"L","transposition":1,"order":["shifted","swapped"],"probe_pitches":[7,6,8,3,7,4,2,8,7,9,7,9],"shifted_pitches":[7,6,8,3,7,5,2,8,7,9,7,9],"swapped_pitches":[7,6,8,3,7,2,4,8,7,9,7,9],"shift_direction":1,"question_num":161,"has_decoy":false},{"rt":2308.300000000745,"stimulus":"[A] option 1, [L] option 2, [G] neither","key_press":65,"name":"choice","trial_type":"html-keyboard-response","trial_index":197,"time_elapsed":392099,"internal_node_id":"0.0-197.0","subject":"S1C1221","sona":"41532","block":2,"time":"2021-09-17T01:12:12.712Z","response":"1st","certainty":"high","char":"A","transposition":0,"order":["shifted","swapped"],"probe_pitches":[3,4,9,7,6,12,5,9,2,9,4,3],"shifted_pitches":[3,4,9,7,6,11,5,9,2,9,4,3],"swapped_pitches":[3,4,9,7,6,5,12,9,2,9,4,3],"shift_direction":-1,"question_num":171,"has_decoy":false},{"rt":314.69999999925494,"stimulus":"[A] option 1, [L] option 2, [G] neither","key_press":65,"name":"choice","trial_type":"html-keyboard-response","trial_index":208,"time_elapsed":411225,"internal_node_id":"0.0-208.0","subject":"S1C1221","sona":"41532","block":2,"time":"2021-09-17T01:12:12.712Z","response":"1st","certainty":"high","char":"A","transposition":3,"order":["shifted","swapped"],"probe_pitches":[3,0,5,7,5,0,10,7,3,-2,5,3],"shifted_pitches":[3,0,5,7,5,0,11,7,3,-2,5,3],"swapped_pitches":[3,0,5,7,5,10,0,7,3,-2,5,3],"shift_direction":1,"question_num":181,"has_decoy":false},{"rt":4312.0999999996275,"stimulus":"[A] option 1, [L] option 2, [G] neither","key_press":71,"name":"choice","trial_type":"html-keyboard-response","trial_index":219,"time_elapsed":433851,"internal_node_id":"0.0-219.0","subject":"S1C1221","sona":"41532","block":2,"time":"2021-09-17T01:12:12.712Z","response":"neither","certainty":"high","char":"G","transposition":-1,"order":["swapped","shifted"],"probe_pitches":[0,-2,2,0,2,5,0,-2,7,10,5,0],"shifted_pitches":[0,-2,2,0,2,4,0,-2,7,10,5,0],"swapped_pitches":[0,-2,2,0,2,0,5,-2,7,10,5,0],"shift_direction":-1,"question_num":191,"has_decoy":false}]