[{"rt":3960.39999999851,"stimulus":"[A] option 1, [L] option 2, [G] neither","key_press":71,"name":"choice","trial_type":"html-keyboard-response","trial_index":10,"time_elapsed":22354,"internal_node_id":"0.0-10.0","subject":"S1C1221","sona":"41532","block":6,"time":"2021-09-17T01:40:25.924Z","response":"neither","certainty":"high","char":"G","transposition":-3,"order":["shifted","swapped"],"probe_pitches":[12,9,13,6,13,15,7,13,7,12,3,10],"shifted_pitches":[12,9,13,6,13,14,7,13,7,12,3,10],"swapped_pitches":[12,9,13,6,13,7,15,13,7,12,3,10],"shift_direction":-1,"question_num":1,"has_decoy":false},{"rt":2156.5999999996275,"stimulus":"[A] option 1, [L] option 2, [G] neither","key_press":65,"name":"choice","trial_type":"html-keyboard-response","trial_index":21,"time_elapsed":42780,"internal_node_id":"0.0-21.0","subject":"S1C1221","sona":"41532","block":6,"time":"2021-09-17T01:40:25.924Z","response":"1st","certainty":"high","char":"A","transposition":2,"order":["swapped","shifted"],"probe_pitches":[7,4,7,6,3,9,11,14,13,7,8,10],"shifted_pitches":[7,4,7,6,3,9,12,14,13,7,8,10],"swapped_pitches":[7,4,7,6,3,11,9,14,13,7,8,10],"shift_direction":1,"question_num":11,"has_decoy":false},{"rt":1807,"stimulus":"[A] option 1, [L] option 2, [G] neither","key_press":71,"name":"choice","trial_type":"html-keyboard-response","trial_index":32,"time_elapsed":63013,"internal_node_id":"0.0-32.0","subject":"S1C1221","sona":"41532","block":6,"time":"2021-09-17T01:40:25.924Z","response":"neither","certainty":"high","char":"G","transposition":-2,"order":["swapped","shifted"],"probe_pitches":[9,11,4,-1,7,-1,2,7,2,4,2,9],"shifted_pitches":[9,11,4,-1,7,0,2,7,2,4,2,9],"swapped_pitches":[9,11,4,-1,7,2,-1,7,2,4,2,9],"shift_direction":1,"question_num":21,"has_decoy":false},{"rt":454.2000000011176,"stimulus":"[A] option 1, [L] option 2, [G] neither","key_press":71,"name":"choice","trial_type":"html-keyboard-response","trial_index":43,"time_elapsed":83900,"internal_node_id":"0.0-43.0","subject":"S1C1221","sona":"41532","block":6,"time":"2021-09-17T01:40:25.924Z","response":"neither","certainty":"high","char":"G","transposition":0,"order":["shifted","swapped"],"probe_pitches":[2,-1,2,4,9,6,2,-1,9,11,-1,11],"shifted_pitches":[2,-1,2,4,9,6,3,-1,9,11,-1,11],"swapped_pitches":[2,-1,2,4,9,2,6,-1,9,11,-1,11],"shift_direction":1,"question_num":31,"has_decoy":false},{"rt":243.09999999962747,"stimulus":"[A] option 1, [L] option 2, [G] neither","key_press":76,"name":"choice","trial_type":"html-keyboard-response","trial_index":54,"time_elapsed":102309,"internal_node_id":"0.0-54.0","subject":"S1C1221","sona":"41532","block":6,"time":"2021-09-17T01:40:25.924Z","response":"2nd","certainty":"high","char":"L","transposition":-3,"order":["shifted","swapped"],"probe_pitches":[6,10,12,15,14,4,9,3,13,5,4,6],"shifted_pitches":[6,10,12,15,14,4,8,3,13,5,4,6],"swapped_pitches":[6,10,12,15,14,9,4,3,13,5,4,6],"shift_direction":-1,"question_num":41,"has_decoy":false},{"rt":4286.800000000745,"stimulus":"[A] option 1, [L] option 2, [G] neither","key_press":76,"name":"choice","trial_type":"html-keyboard-response","trial_index":65,"time_elapsed":125292,"internal_node_id":"0.0-65.0","subject":"S1C1221","sona":"41532","block":6,"time":"2021-09-17T01:40:25.924Z","response":"2nd","certainty":"high","char":"L","transposition":-3,"order":["swapped","shifted"],"probe_pitches":[1,6,-1,6,-1,6,4,8,1,-1,8,4],"shifted_pitches":[1,6,-1,6,-1,7,4,8,1,-1,8,4],"swapped_pitches":[1,6,-1,6,-1,4,6,8,1,-1,8,4],"shift_direction":1,"question_num":51,"has_decoy":false},{"rt":1654.5,"stimulus":"[A] option 1, [L] option 2, [G] neither","key_press":71,"name":"choice","trial_type":"html-keyboard-response","trial_index":76,"time_elapsed":152628,"internal_node_id":"0.0-76.0","subject":"S1C1221","sona":"41532","block":6,"time":"2021-09-17T01:40:25.924Z","response":"neither","certainty":"high","char":"G","transposition":-3,"order":["shifted","swapped"],"probe_pitches":[-1,3,6,-1,1,6,3,11,1,8,-1,8],"shifted_pitches":[-1,3,6,-1,1,6,4,11,1,8,-1,8],"swapped_pitches":[-1,3,6,-1,1,3,6,11,1,8,-1,8],"shift_direction":1,"question_num":61,"has_decoy":false},{"rt":1854.9000000003725,"stimulus":"[A] option 1, [L] option 2, [G] neither","key_press":76,"name":"choice","trial_type":"html-keyboard-response","trial_index":87,"time_elapsed":174420,"internal_node_id":"0.0-87.0","subject":"S1C1221","sona":"41532","block":6,"time":"2021-09-17T01:40:25.924Z","response":"2nd","certainty":"high","char":"L","transposition":0,"order":["swapped","shifted"],"probe_pitches":[3,6,5,3,5,9,12,6,14,3,12,4],"shifted_pitches":[3,6,5,3,5,10,12,6,14,3,12,4],"swapped_pitches":[3,6,5,3,5,12,9,6,14,3,12,4],"shift_direction":1,"question_num":71,"has_decoy":false},{"rt":4631.0999999996275,"stimulus":"[A] option 1, [L] option 2, [G] neither","key_press":71,"name":"choice","trial_type":"html-keyboard-response","trial_index":98,"time_elapsed":199556,"internal_node_id":"0.0-98.0","subject":"S1C1221","sona":"41532","block":6,"time":"2021-09-17T01:40:25.924Z","response":"neither","certainty":"high","char":"G","transposition":2,"order":["shifted","swapped"],"probe_pitches":[11,6,-1,2,4,9,2,6,11,4,9,2],"shifted_pitches":[11,6,-1,2,4,9,1,6,11,4,9,2],"swapped_pitches":[11,6,-1,2,4,2,9,6,11,4,9,2],"shift_direction":-1,"question_num":81,"has_decoy":false},{"rt":1714.9000000003725,"stimulus":"[A] option 1, [L] option 2, [G] neither","key_press":65,"name":"choice","trial_type":"html-keyboard-response","trial_index":109,"time_elapsed":221980,"internal_node_id":"0.0-109.0","subject":"S1C1221","sona":"41532","block":6,"time":"2021-09-17T01:40:25.924Z","response":"1st","certainty":"high","char":"A","transposition":-1,"order":["shifted","swapped"],"probe_pitches":[14,15,11,9,14,5,7,3,10,13,8,7],"shifted_pitches":[14,15,11,9,14,6,7,3,10,13,8,7],"swapped_pitches":[14,15,11,9,14,7,5,3,10,13,8,7],"shift_direction":1,"question_num":91,"has_decoy":false},{"rt":371.09999999962747,"stimulus":"[A] option 1, [L] option 2, [G] neither","key_press":76,"name":"choice","trial_type":"html-keyboard-response","trial_index":120,"time_elapsed":241516,"internal_node_id":"0.0-120.0","subject":"S1C1221","sona":"41532","block":6,"time":"2021-09-17T01:40:25.924Z","response":"2nd","certainty":"high","char":"L","transposition":3,"order":["shifted","swapped"],"probe_pitches":[-1,1,4,1,-1,6,1,8,6,11,1,8],"shifted_pitches":[-1,1,4,1,-1,6,0,8,6,11,1,8],"swapped_pitches":[-1,1,4,1,-1,1,6,8,6,11,1,8],"shift_direction":-1,"question_num":101,"has_decoy":false},{"rt":1208.8999999985099,"stimulus":"[A] option 1, [L] option 2, [G] neither","key_press":65,"name":"choice","trial_type":"html-keyboard-response","trial_index":131,"time_elapsed":261044,"internal_node_id":"0.0-131.0","subject":"S1C1221","sona":"41532","block":6,"time":"2021-09-17T01:40:25.924Z","response":"1st","certainty":"high","char":"A","transposition":-1,"order":["swapped","shifted"],"probe_pitches":[-1,4,9,1,4,6,11,4,11,1,11,6],"shifted_pitches":[-1,4,9,1,4,7,11,4,11,1,11,6],"swapped_pitches":[-1,4,9,1,4,11,6,4,11,1,11,6],"shift_direction":1,"question_num":111,"has_decoy":false},{"rt":5953.4000000003725,"stimulus":"[A] option 1, [L] option 2, [G] neither","key_press":71,"name":"choice","trial_type":"html-keyboard-response","trial_index":142,"time_elapsed":287028,"internal_node_id":"0.0-142.0","subject":"S1C1221","sona":"41532","block":6,"time":"2021-09-17T01:40:25.924Z","response":"neither","certainty":"high","char":"G","transposition":1,"order":["shifted","swapped"],"probe_pitches":[-1,1,-1,4,-1,9,1,-1,11,6,1,4],"shifted_pitches":[-1,1,-1,4,-1,8,1,-1,11,6,1,4],"swapped_pitches":[-1,1,-1,4,-1,1,9,-1,11,6,1,4],"shift_direction":-1,"question_num":121,"has_decoy":false},{"rt":2852.0999999996275,"stimulus":"[A] option 1, [L] option 2, [G] neither","key_press":71,"name":"choice","trial_type":"html-keyboard-response","trial_index":153,"time_elapsed":309916,"internal_node_id":"0.0-153.0","subject":"S1C1221","sona":"41532","block":6,"time":"2021-09-17T01:40:25.924Z","response":"neither","certainty":"high","char":"G","transposition":-1,"order":["swapped","shifted"],"probe_pitches":[14,10,11,15,7,8,10,12,14,6,4,13],"shifted_pitches":[14,10,11,15,7,9,10,12,14,6,4,13],"swapped_pitches":[14,10,11,15,7,10,8,12,14,6,4,13],"shift_direction":1,"question_num":131,"has_decoy":false},{"rt":1272.800000000745,"stimulus":"[A] option 1, [L] option 2, [G] neither","key_press":76,"name":"choice","trial_type":"html-keyboard-response","trial_index":164,"time_elapsed":330069,"internal_node_id":"0.0-164.0","subject":"S1C1221","sona":"41532","block":6,"time":"2021-09-17T01:40:25.924Z","response":"2nd","certainty":"high","char":"L","transposition":1,"order":["swapped","shifted"],"probe_pitches":[7,10,13,10,3,8,6,4,14,3,9,14],"shifted_pitches":[7,10,13,10,3,8,5,4,14,3,9,14],"swapped_pitches":[7,10,13,10,3,6,8,4,14,3,9,14],"shift_direction":-1,"question_num":141,"has_decoy":false},{"rt":2284.2999999988824,"stimulus":"[A] option 1, [L] option 2, [G] neither","key_press":71,"name":"choice","trial_type":"html-keyboard-response","trial_index":175,"time_elapsed":350700,"internal_node_id":"0.0-175.0","subject":"S1C1221","sona":"41532","block":6,"time":"2021-09-17T01:40:25.924Z","response":"neither","certainty":"high","char":"G","transposition":-2,"order":["shifted","swapped"],"probe_pitches":[9,12,5,7,14,4,12,8,3,9,3,5],"shifted_pitches":[9,12,5,7,14,4,11,8,3,9,3,5],"swapped_pitches":[9,12,5,7,14,12,4,8,3,9,3,5],"shift_direction":-1,"question_num":151,"has_decoy":false},{"rt":2635,"stimulus":"[A] option 1, [L] option 2, [G] neither","key_press":65,"name":"choice","trial_type":"html-keyboard-response","trial_index":186,"time_elapsed":371700,"internal_node_id":"0.0-186.0","subject":"S1C1221","sona":"41532","block":6,"time":"2021-09-17T01:40:25.924Z","response":"1st","certainty":"high","char":"A","transposition":-2,"order":["swapped","shifted"],"probe_pitches":[8,6,3,6,8,3,-1,11,3,11,1,6],"shifted_pitches":[8,6,3,6,8,3,-2,11,3,11,1,6],"swapped_pitches":[8,6,3,6,8,-1,3,11,3,11,1,6],"shift_direction":-1,"question_num":161,"has_decoy":false},{"rt":1322.5,"stimulus":"[A] option 1, [L] option 2, [G] neither","key_press":71,"name":"choice","trial_type":"html-keyboard-response","trial_index":197,"time_elapsed":391548,"internal_node_id":"0.0-197.0","subject":"S1C1221","sona":"41532","block":6,"time":"2021-09-17T01:40:25.924Z","response":"neither","certainty":"high","char":"G","transposition":3,"order":["swapped","shifted"],"probe_pitches":[10,11,4,6,7,14,11,4,3,5,3,14],"shifted_pitches":[10,11,4,6,7,13,11,4,3,5,3,14],"swapped_pitches":[10,11,4,6,7,11,14,4,3,5,3,14],"shift_direction":-1,"question_num":171,"has_decoy":false},{"rt":396.40000000037253,"stimulus":"[A] option 1, [L] option 2, [G] neither","key_press":76,"name":"choice","trial_type":"html-keyboard-response","trial_index":208,"time_elapsed":410460,"internal_node_id":"0.0-208.0","subject":"S1C1221","sona":"41532","block":6,"time":"2021-09-17T01:40:25.924Z","response":"2nd","certainty":"high","char":"L","transposition":-2,"order":["shifted","swapped"],"probe_pitches":[4,6,9,3,9,15,6,9,14,3,11,6],"shifted_pitches":[4,6,9,3,9,15,7,9,14,3,11,6],"swapped_pitches":[4,6,9,3,9,6,15,9,14,3,11,6],"shift_direction":1,"question_num":181,"has_decoy":false},{"rt":1481.199999999255,"stimulus":"[A] option 1, [L] option 2, [G] neither","key_press":76,"name":"choice","trial_type":"html-keyboard-response","trial_index":219,"time_elapsed":430556,"internal_node_id":"0.0-219.0","subject":"S1C1221","sona":"41532","block":6,"time":"2021-09-17T01:40:25.924Z","response":"2nd","certainty":"high","char":"L","transposition":-1,"order":["swapped","shifted"],"probe_pitches":[9,7,2,7,4,-1,9,7,9,4,7,2],"shifted_pitches":[9,7,2,7,4,-2,9,7,9,4,7,2],"swapped_pitches":[9,7,2,7,4,9,-1,7,9,4,7,2],"shift_direction":-1,"question_num":191,"has_decoy":false}]