[{"rt":10126.699999988079,"stimulus":"[A] option 1, [L] option 2, [G] neither","key_press":65,"name":"choice","trial_type":"html-keyboard-response","trial_index":15,"time_elapsed":156340,"internal_node_id":"0.0-15.0","response":"1st","certainty":"high","char":"A","transposition":2,"order":["shifted","swapped"],"probe_pitches":[1,6,1,8,13,6,13,3,11,1,13,3,13,11,8,6],"shifted_pitches":[1,6,1,8,13,6,13,2,11,1,13,3,13,11,8,6],"swapped_pitches":[1,6,1,8,13,6,13,11,3,1,13,3,13,11,8,6],"shift_direction":-1,"question_num":1,"has_decoy":false,"subject":"S1C1614","sona":"41877","block":1,"time":"2021-09-15T19:08:13.659Z"},{"rt":6655.899999976158,"stimulus":"[A] option 1, [L] option 2, [G] neither","key_press":65,"name":"choice","trial_type":"html-keyboard-response","trial_index":26,"time_elapsed":187787,"internal_node_id":"0.0-26.0","response":"1st","certainty":"high","char":"A","transposition":-3,"order":["swapped","shifted"],"probe_pitches":[1,0,-3,1,4,-1,0,-1,8,0,-3,5,3,-1,5,0],"shifted_pitches":[1,0,-3,1,4,-1,0,-1,7,0,-3,5,3,-1,5,0],"swapped_pitches":[1,0,-3,1,4,-1,0,8,-1,0,-3,5,3,-1,5,0],"shift_direction":-1,"question_num":11,"has_decoy":false,"subject":"S1C1614","sona":"41877","block":1,"time":"2021-09-15T19:08:13.659Z"},{"rt":1585.199999988079,"stimulus":"[A] option 1, [L] option 2, [G] neither","key_press":65,"name":"choice","trial_type":"html-keyboard-response","trial_index":37,"time_elapsed":212822,"internal_node_id":"0.0-37.0","response":"1st","certainty":"high","char":"A","transposition":-1,"order":["shifted","swapped"],"probe_pitches":[13,10,8,3,1,5,1,13,8,5,3,1,13,8,13,10],"shifted_pitches":[13,10,8,3,1,5,1,13,9,5,3,1,13,8,13,10],"swapped_pitches":[13,10,8,3,1,5,1,8,13,5,3,1,13,8,13,10],"shift_direction":1,"question_num":21,"has_decoy":false,"subject":"S1C1614","sona":"41877","block":1,"time":"2021-09-15T19:08:13.659Z"},{"rt":1332.1000000238419,"stimulus":"[A] option 1, [L] option 2, [G] neither","key_press":65,"name":"choice","trial_type":"html-keyboard-response","trial_index":48,"time_elapsed":239279,"internal_node_id":"0.0-48.0","response":"1st","certainty":"high","char":"A","transposition":-2,"order":["shifted","swapped"],"probe_pitches":[-1,4,-3,-2,7,5,6,-3,2,0,-2,1,-1,4,6,-2],"shifted_pitches":[-1,4,-3,-2,7,5,6,-4,2,0,-2,1,-1,4,6,-2],"swapped_pitches":[-1,4,-3,-2,7,5,6,2,-3,0,-2,1,-1,4,6,-2],"shift_direction":-1,"question_num":31,"has_decoy":false,"subject":"S1C1614","sona":"41877","block":1,"time":"2021-09-15T19:08:13.659Z"},{"rt":1909.5,"stimulus":"[A] option 1, [L] option 2, [G] neither","key_press":65,"name":"choice","trial_type":"html-keyboard-response","trial_index":59,"time_elapsed":264731,"internal_node_id":"0.0-59.0","response":"1st","certainty":"high","char":"A","transposition":-2,"order":["shifted","swapped"],"probe_pitches":[1,6,10,8,1,10,13,8,3,13,3,1,10,3,6,3],"shifted_pitches":[1,6,10,8,1,10,13,9,3,13,3,1,10,3,6,3],"swapped_pitches":[1,6,10,8,1,10,13,3,8,13,3,1,10,3,6,3],"shift_direction":1,"question_num":41,"has_decoy":false,"subject":"S1C1614","sona":"41877","block":1,"time":"2021-09-15T19:08:13.659Z"},{"rt":1239.9000000357628,"stimulus":"[A] option 1, [L] option 2, [G] neither","key_press":76,"name":"choice","trial_type":"html-keyboard-response","trial_index":70,"time_elapsed":288874,"internal_node_id":"0.0-70.0","response":"2nd","certainty":"high","char":"L","transposition":-2,"order":["swapped","shifted"],"probe_pitches":[4,1,4,6,4,1,11,13,9,11,9,1,4,13,1,4],"shifted_pitches":[4,1,4,6,4,1,11,13,10,11,9,1,4,13,1,4],"swapped_pitches":[4,1,4,6,4,1,11,9,13,11,9,1,4,13,1,4],"shift_direction":1,"question_num":51,"has_decoy":false,"subject":"S1C1614","sona":"41877","block":1,"time":"2021-09-15T19:08:13.659Z"},{"rt":1484,"stimulus":"[A] option 1, [L] option 2, [G] neither","key_press":76,"name":"choice","trial_type":"html-keyboard-response","trial_index":81,"time_elapsed":314156,"internal_node_id":"0.0-81.0","response":"2nd","certainty":"high","char":"L","transposition":-3,"order":["swapped","shifted"],"probe_pitches":[1,2,3,-3,2,9,-2,5,0,1,4,-2,6,0,-3,-2],"shifted_pitches":[1,2,3,-3,2,9,-2,5,-1,1,4,-2,6,0,-3,-2],"swapped_pitches":[1,2,3,-3,2,9,-2,0,5,1,4,-2,6,0,-3,-2],"shift_direction":-1,"question_num":61,"has_decoy":false,"subject":"S1C1614","sona":"41877","block":1,"time":"2021-09-15T19:08:13.659Z"},{"rt":1545.800000011921,"stimulus":"[A] option 1, [L] option 2, [G] neither","key_press":76,"name":"choice","trial_type":"html-keyboard-response","trial_index":92,"time_elapsed":356052,"internal_node_id":"0.0-92.0","response":"2nd","certainty":"high","char":"L","transposition":-1,"order":["shifted","swapped"],"probe_pitches":[1,0,5,0,-1,-3,-1,2,5,-1,4,8,6,8,4,6],"shifted_pitches":[1,0,5,0,-1,-3,-1,3,5,-1,4,8,6,8,4,6],"swapped_pitches":[1,0,5,0,-1,-3,-1,5,2,-1,4,8,6,8,4,6],"shift_direction":1,"question_num":71,"has_decoy":false,"subject":"S1C1614","sona":"41877","block":1,"time":"2021-09-15T19:08:13.659Z"},{"rt":963.6000000238419,"stimulus":"[A] option 1, [L] option 2, [G] neither","key_press":65,"name":"choice","trial_type":"html-keyboard-response","trial_index":103,"time_elapsed":380366,"internal_node_id":"0.0-103.0","response":"1st","certainty":"high","char":"A","transposition":2,"order":["swapped","shifted"],"probe_pitches":[7,6,3,2,4,6,-1,9,2,-3,8,2,-1,7,6,0],"shifted_pitches":[7,6,3,2,4,6,-1,9,1,-3,8,2,-1,7,6,0],"swapped_pitches":[7,6,3,2,4,6,-1,2,9,-3,8,2,-1,7,6,0],"shift_direction":-1,"question_num":81,"has_decoy":false,"subject":"S1C1614","sona":"41877","block":1,"time":"2021-09-15T19:08:13.659Z"},{"rt":834.7000000476837,"stimulus":"[A] option 1, [L] option 2, [G] neither","key_press":76,"name":"choice","trial_type":"html-keyboard-response","trial_index":114,"time_elapsed":403826,"internal_node_id":"0.0-114.0","response":"2nd","certainty":"high","char":"L","transposition":0,"order":["swapped","shifted"],"probe_pitches":[1,4,6,4,8,6,8,6,11,8,1,4,1,11,4,11],"shifted_pitches":[1,4,6,4,8,6,8,5,11,8,1,4,1,11,4,11],"swapped_pitches":[1,4,6,4,8,6,8,11,6,8,1,4,1,11,4,11],"shift_direction":-1,"question_num":91,"has_decoy":false,"subject":"S1C1614","sona":"41877","block":1,"time":"2021-09-15T19:08:13.659Z"},{"rt":997.7000000476837,"stimulus":"[A] option 1, [L] option 2, [G] neither","key_press":65,"name":"choice","trial_type":"html-keyboard-response","trial_index":125,"time_elapsed":428272,"internal_node_id":"0.0-125.0","response":"1st","certainty":"high","char":"A","transposition":-3,"order":["shifted","swapped"],"probe_pitches":[3,8,3,8,10,3,6,13,8,1,8,13,1,6,8,3],"shifted_pitches":[3,8,3,8,10,3,6,14,8,1,8,13,1,6,8,3],"swapped_pitches":[3,8,3,8,10,3,6,8,13,1,8,13,1,6,8,3],"shift_direction":1,"question_num":101,"has_decoy":false,"subject":"S1C1614","sona":"41877","block":1,"time":"2021-09-15T19:08:13.659Z"},{"rt":1983.8999999761581,"stimulus":"[A] option 1, [L] option 2, [G] neither","key_press":71,"name":"choice","trial_type":"html-keyboard-response","trial_index":136,"time_elapsed":452997,"internal_node_id":"0.0-136.0","response":"neither","certainty":"high","char":"G","transposition":-2,"order":["swapped","shifted"],"probe_pitches":[2,3,2,9,4,7,9,6,4,9,-3,2,9,-3,6,7],"shifted_pitches":[2,3,2,9,4,7,9,5,4,9,-3,2,9,-3,6,7],"swapped_pitches":[2,3,2,9,4,7,9,4,6,9,-3,2,9,-3,6,7],"shift_direction":-1,"question_num":111,"has_decoy":false,"subject":"S1C1614","sona":"41877","block":1,"time":"2021-09-15T19:08:13.659Z"},{"rt":1134.5999999642372,"stimulus":"[A] option 1, [L] option 2, [G] neither","key_press":65,"name":"choice","trial_type":"html-keyboard-response","trial_index":147,"time_elapsed":477429,"internal_node_id":"0.0-147.0","response":"1st","certainty":"high","char":"A","transposition":1,"order":["shifted","swapped"],"probe_pitches":[8,6,3,-1,8,3,-3,6,3,5,6,-1,2,-3,-2,1],"shifted_pitches":[8,6,3,-1,8,3,-3,6,4,5,6,-1,2,-3,-2,1],"swapped_pitches":[8,6,3,-1,8,3,-3,3,6,5,6,-1,2,-3,-2,1],"shift_direction":1,"question_num":121,"has_decoy":false,"subject":"S1C1614","sona":"41877","block":1,"time":"2021-09-15T19:08:13.659Z"},{"rt":670.8999999761581,"stimulus":"[A] option 1, [L] option 2, [G] neither","key_press":76,"name":"choice","trial_type":"html-keyboard-response","trial_index":158,"time_elapsed":500340,"internal_node_id":"0.0-158.0","response":"2nd","certainty":"high","char":"L","transposition":0,"order":["shifted","swapped"],"probe_pitches":[9,7,3,-3,3,9,-1,1,4,3,5,1,8,5,-3,-2],"shifted_pitches":[9,7,3,-3,3,9,-1,2,4,3,5,1,8,5,-3,-2],"swapped_pitches":[9,7,3,-3,3,9,-1,4,1,3,5,1,8,5,-3,-2],"shift_direction":1,"question_num":131,"has_decoy":false,"subject":"S1C1614","sona":"41877","block":1,"time":"2021-09-15T19:08:13.659Z"},{"rt":1763.5,"stimulus":"[A] option 1, [L] option 2, [G] neither","key_press":71,"name":"choice","trial_type":"html-keyboard-response","trial_index":169,"time_elapsed":525971,"internal_node_id":"0.0-169.0","response":"neither","certainty":"high","char":"G","transposition":3,"order":["swapped","shifted"],"probe_pitches":[7,8,9,5,-2,7,-1,5,1,2,3,7,9,0,-3,1],"shifted_pitches":[7,8,9,5,-2,7,-1,6,1,2,3,7,9,0,-3,1],"swapped_pitches":[7,8,9,5,-2,7,-1,1,5,2,3,7,9,0,-3,1],"shift_direction":1,"question_num":141,"has_decoy":false,"subject":"S1C1614","sona":"41877","block":1,"time":"2021-09-15T19:08:13.659Z"},{"rt":573.9000000357628,"stimulus":"[A] option 1, [L] option 2, [G] neither","key_press":76,"name":"choice","trial_type":"html-keyboard-response","trial_index":180,"time_elapsed":549597,"internal_node_id":"0.0-180.0","response":"2nd","certainty":"high","char":"L","transposition":1,"order":["swapped","shifted"],"probe_pitches":[11,13,6,13,8,1,6,11,13,1,6,13,3,11,8,3],"shifted_pitches":[11,13,6,13,8,1,6,11,12,1,6,13,3,11,8,3],"swapped_pitches":[11,13,6,13,8,1,6,13,11,1,6,13,3,11,8,3],"shift_direction":-1,"question_num":151,"has_decoy":false,"subject":"S1C1614","sona":"41877","block":1,"time":"2021-09-15T19:08:13.659Z"},{"rt":594.3000000119209,"stimulus":"[A] option 1, [L] option 2, [G] neither","key_press":76,"name":"choice","trial_type":"html-keyboard-response","trial_index":191,"time_elapsed":572519,"internal_node_id":"0.0-191.0","response":"2nd","certainty":"high","char":"L","transposition":-1,"order":["swapped","shifted"],"probe_pitches":[8,13,8,1,6,13,6,11,13,4,6,1,6,1,11,6],"shifted_pitches":[8,13,8,1,6,13,6,11,12,4,6,1,6,1,11,6],"swapped_pitches":[8,13,8,1,6,13,6,13,11,4,6,1,6,1,11,6],"shift_direction":-1,"question_num":161,"has_decoy":false,"subject":"S1C1614","sona":"41877","block":1,"time":"2021-09-15T19:08:13.659Z"},{"rt":1189,"stimulus":"[A] option 1, [L] option 2, [G] neither","key_press":76,"name":"choice","trial_type":"html-keyboard-response","trial_index":202,"time_elapsed":597279,"internal_node_id":"0.0-202.0","response":"2nd","certainty":"high","char":"L","transposition":-3,"order":["swapped","shifted"],"probe_pitches":[5,3,5,10,5,3,13,10,3,5,1,8,1,10,13,5],"shifted_pitches":[5,3,5,10,5,3,13,11,3,5,1,8,1,10,13,5],"swapped_pitches":[5,3,5,10,5,3,13,3,10,5,1,8,1,10,13,5],"shift_direction":1,"question_num":171,"has_decoy":false,"subject":"S1C1614","sona":"41877","block":1,"time":"2021-09-15T19:08:13.659Z"},{"rt":1471.1000000238419,"stimulus":"[A] option 1, [L] option 2, [G] neither","key_press":71,"name":"choice","trial_type":"html-keyboard-response","trial_index":213,"time_elapsed":621470,"internal_node_id":"0.0-213.0","response":"neither","certainty":"high","char":"G","transposition":3,"order":["shifted","swapped"],"probe_pitches":[13,9,6,4,11,1,6,11,13,1,6,1,13,1,13,9],"shifted_pitches":[13,9,6,4,11,1,6,11,12,1,6,1,13,1,13,9],"swapped_pitches":[13,9,6,4,11,1,6,13,11,1,6,1,13,1,13,9],"shift_direction":-1,"question_num":181,"has_decoy":false,"subject":"S1C1614","sona":"41877","block":1,"time":"2021-09-15T19:08:13.659Z"},{"rt":1056,"stimulus":"[A] option 1, [L] option 2, [G] neither","key_press":76,"name":"choice","trial_type":"html-keyboard-response","trial_index":224,"time_elapsed":646293,"internal_node_id":"0.0-224.0","response":"2nd","certainty":"high","char":"L","transposition":-1,"order":["shifted","swapped"],"probe_pitches":[5,8,7,3,-1,6,1,-3,-1,-2,-3,8,2,5,1,3],"shifted_pitches":[5,8,7,3,-1,6,1,-3,0,-2,-3,8,2,5,1,3],"swapped_pitches":[5,8,7,3,-1,6,1,-1,-3,-2,-3,8,2,5,1,3],"shift_direction":1,"question_num":191,"has_decoy":false,"subject":"S1C1614","sona":"41877","block":1,"time":"2021-09-15T19:08:13.659Z"}]