[{"rt":380.80000001192093,"stimulus":"[A] option 1, [L] option 2, [G] neither","key_press":76,"name":"choice","trial_type":"html-keyboard-response","trial_index":10,"time_elapsed":23290,"internal_node_id":"0.0-10.0","subject":"S1C1614","sona":"41877","block":4,"time":"2021-09-15T19:37:46.068Z","response":"2nd","certainty":"high","char":"L","transposition":-3,"order":["swapped","shifted"],"probe_pitches":[5,8,13,5,8,5,10,8,15,10,5,8,10,5,13,15],"shifted_pitches":[5,8,13,5,8,5,10,8,16,10,5,8,10,5,13,15],"swapped_pitches":[5,8,13,5,8,5,10,15,8,10,5,8,10,5,13,15],"shift_direction":1,"question_num":1,"has_decoy":false},{"rt":453.5999999642372,"stimulus":"[A] option 1, [L] option 2, [G] neither","key_press":65,"name":"choice","trial_type":"html-keyboard-response","trial_index":21,"time_elapsed":46425,"internal_node_id":"0.0-21.0","subject":"S1C1614","sona":"41877","block":4,"time":"2021-09-15T19:37:46.068Z","response":"1st","certainty":"high","char":"A","transposition":-2,"order":["shifted","swapped"],"probe_pitches":[10,12,7,10,5,3,5,12,3,7,5,3,5,12,7,12],"shifted_pitches":[10,12,7,10,5,3,5,13,3,7,5,3,5,12,7,12],"swapped_pitches":[10,12,7,10,5,3,5,3,12,7,5,3,5,12,7,12],"shift_direction":1,"question_num":11,"has_decoy":false},{"rt":377.0999999642372,"stimulus":"[A] option 1, [L] option 2, [G] neither","key_press":76,"name":"choice","trial_type":"html-keyboard-response","trial_index":32,"time_elapsed":68956,"internal_node_id":"0.0-32.0","subject":"S1C1614","sona":"41877","block":4,"time":"2021-09-15T19:37:46.068Z","response":"2nd","certainty":"high","char":"L","transposition":-1,"order":["swapped","shifted"],"probe_pitches":[6,3,10,15,13,8,6,13,8,6,15,10,15,10,8,13],"shifted_pitches":[6,3,10,15,13,8,6,13,7,6,15,10,15,10,8,13],"swapped_pitches":[6,3,10,15,13,8,6,8,13,6,15,10,15,10,8,13],"shift_direction":-1,"question_num":21,"has_decoy":false},{"rt":470.39999997615814,"stimulus":"[A] option 1, [L] option 2, [G] neither","key_press":65,"name":"choice","trial_type":"html-keyboard-response","trial_index":43,"time_elapsed":91823,"internal_node_id":"0.0-43.0","subject":"S1C1614","sona":"41877","block":4,"time":"2021-09-15T19:37:46.068Z","response":"1st","certainty":"high","char":"A","transposition":3,"order":["shifted","swapped"],"probe_pitches":[15,13,8,3,8,3,13,15,6,11,13,3,8,6,15,13],"shifted_pitches":[15,13,8,3,8,3,13,16,6,11,13,3,8,6,15,13],"swapped_pitches":[15,13,8,3,8,3,13,6,15,11,13,3,8,6,15,13],"shift_direction":1,"question_num":31,"has_decoy":false},{"rt":908.8000000119209,"stimulus":"[A] option 1, [L] option 2, [G] neither","key_press":65,"name":"choice","trial_type":"html-keyboard-response","trial_index":54,"time_elapsed":115152,"internal_node_id":"0.0-54.0","subject":"S1C1614","sona":"41877","block":4,"time":"2021-09-15T19:37:46.068Z","response":"1st","certainty":"high","char":"A","transposition":-2,"order":["shifted","swapped"],"probe_pitches":[10,6,3,10,8,10,13,10,15,13,8,13,10,8,13,15],"shifted_pitches":[10,6,3,10,8,10,13,9,15,13,8,13,10,8,13,15],"swapped_pitches":[10,6,3,10,8,10,13,15,10,13,8,13,10,8,13,15],"shift_direction":-1,"question_num":41,"has_decoy":false},{"rt":3030.199999988079,"stimulus":"[A] option 1, [L] option 2, [G] neither","key_press":65,"name":"choice","trial_type":"html-keyboard-response","trial_index":65,"time_elapsed":154777,"internal_node_id":"0.0-65.0","subject":"S1C1614","sona":"41877","block":4,"time":"2021-09-15T19:37:46.068Z","response":"1st","certainty":"high","char":"A","transposition":-3,"order":["shifted","swapped"],"probe_pitches":[7,3,4,8,5,3,13,7,9,11,12,4,11,14,2,8],"shifted_pitches":[7,3,4,8,5,3,13,6,9,11,12,4,11,14,2,8],"swapped_pitches":[7,3,4,8,5,3,13,9,7,11,12,4,11,14,2,8],"shift_direction":-1,"question_num":51,"has_decoy":false},{"rt":2496.100000023842,"stimulus":"[A] option 1, [L] option 2, [G] neither","key_press":65,"name":"choice","trial_type":"html-keyboard-response","trial_index":76,"time_elapsed":184126,"internal_node_id":"0.0-76.0","subject":"S1C1614","sona":"41877","block":4,"time":"2021-09-15T19:37:46.068Z","response":"1st","certainty":"high","char":"A","transposition":1,"order":["shifted","swapped"],"probe_pitches":[11,13,15,8,6,11,8,3,6,13,15,13,3,15,13,8],"shifted_pitches":[11,13,15,8,6,11,8,3,5,13,15,13,3,15,13,8],"swapped_pitches":[11,13,15,8,6,11,8,6,3,13,15,13,3,15,13,8],"shift_direction":-1,"question_num":61,"has_decoy":false},{"rt":4567,"stimulus":"[A] option 1, [L] option 2, [G] neither","key_press":71,"name":"choice","trial_type":"html-keyboard-response","trial_index":87,"time_elapsed":210842,"internal_node_id":"0.0-87.0","subject":"S1C1614","sona":"41877","block":4,"time":"2021-09-15T19:37:46.068Z","response":"neither","certainty":"high","char":"G","transposition":-1,"order":["shifted","swapped"],"probe_pitches":[13,10,12,10,7,10,7,10,5,2,11,14,2,11,8,11],"shifted_pitches":[13,10,12,10,7,10,7,10,4,2,11,14,2,11,8,11],"swapped_pitches":[13,10,12,10,7,10,7,5,10,2,11,14,2,11,8,11],"shift_direction":-1,"question_num":71,"has_decoy":false},{"rt":3754.5,"stimulus":"[A] option 1, [L] option 2, [G] neither","key_press":71,"name":"choice","trial_type":"html-keyboard-response","trial_index":98,"time_elapsed":237341,"internal_node_id":"0.0-98.0","subject":"S1C1614","sona":"41877","block":4,"time":"2021-09-15T19:37:46.068Z","response":"neither","certainty":"high","char":"G","transposition":-3,"order":["swapped","shifted"],"probe_pitches":[11,14,13,12,6,7,2,6,11,14,7,4,6,7,6,2],"shifted_pitches":[11,14,13,12,6,7,2,6,10,14,7,4,6,7,6,2],"swapped_pitches":[11,14,13,12,6,7,2,11,6,14,7,4,6,7,6,2],"shift_direction":-1,"question_num":81,"has_decoy":false},{"rt":547.8999999761581,"stimulus":"[A] option 1, [L] option 2, [G] neither","key_press":76,"name":"choice","trial_type":"html-keyboard-response","trial_index":109,"time_elapsed":261169,"internal_node_id":"0.0-109.0","subject":"S1C1614","sona":"41877","block":4,"time":"2021-09-15T19:37:46.068Z","response":"2nd","certainty":"high","char":"L","transposition":-3,"order":["swapped","shifted"],"probe_pitches":[7,3,5,7,10,5,3,7,10,3,10,12,10,12,5,7],"shifted_pitches":[7,3,5,7,10,5,3,7,11,3,10,12,10,12,5,7],"swapped_pitches":[7,3,5,7,10,5,3,10,7,3,10,12,10,12,5,7],"shift_direction":1,"question_num":91,"has_decoy":false},{"rt":3203.899999976158,"stimulus":"[A] option 1, [L] option 2, [G] neither","key_press":71,"name":"choice","trial_type":"html-keyboard-response","trial_index":120,"time_elapsed":286535,"internal_node_id":"0.0-120.0","subject":"S1C1614","sona":"41877","block":4,"time":"2021-09-15T19:37:46.068Z","response":"neither","certainty":"high","char":"G","transposition":3,"order":["shifted","swapped"],"probe_pitches":[7,6,4,12,5,6,4,12,7,9,5,7,9,3,4,11],"shifted_pitches":[7,6,4,12,5,6,4,13,7,9,5,7,9,3,4,11],"swapped_pitches":[7,6,4,12,5,6,4,7,12,9,5,7,9,3,4,11],"shift_direction":1,"question_num":101,"has_decoy":false},{"rt":1296.5,"stimulus":"[A] option 1, [L] option 2, [G] neither","key_press":71,"name":"choice","trial_type":"html-keyboard-response","trial_index":131,"time_elapsed":310393,"internal_node_id":"0.0-131.0","subject":"S1C1614","sona":"41877","block":4,"time":"2021-09-15T19:37:46.068Z","response":"neither","certainty":"high","char":"G","transposition":2,"order":["shifted","swapped"],"probe_pitches":[5,10,5,3,8,10,5,8,3,10,13,3,10,13,10,5],"shifted_pitches":[5,10,5,3,8,10,5,7,3,10,13,3,10,13,10,5],"swapped_pitches":[5,10,5,3,8,10,5,3,8,10,13,3,10,13,10,5],"shift_direction":-1,"question_num":111,"has_decoy":false},{"rt":448.60000002384186,"stimulus":"[A] option 1, [L] option 2, [G] neither","key_press":76,"name":"choice","trial_type":"html-keyboard-response","trial_index":142,"time_elapsed":333348,"internal_node_id":"0.0-142.0","subject":"S1C1614","sona":"41877","block":4,"time":"2021-09-15T19:37:46.068Z","response":"2nd","certainty":"high","char":"L","transposition":-1,"order":["swapped","shifted"],"probe_pitches":[2,5,4,6,3,5,6,9,14,11,9,14,4,10,6,2],"shifted_pitches":[2,5,4,6,3,5,6,8,14,11,9,14,4,10,6,2],"swapped_pitches":[2,5,4,6,3,5,6,14,9,11,9,14,4,10,6,2],"shift_direction":-1,"question_num":121,"has_decoy":false},{"rt":2947.300000011921,"stimulus":"[A] option 1, [L] option 2, [G] neither","key_press":71,"name":"choice","trial_type":"html-keyboard-response","trial_index":153,"time_elapsed":360721,"internal_node_id":"0.0-153.0","subject":"S1C1614","sona":"41877","block":4,"time":"2021-09-15T19:37:46.068Z","response":"neither","certainty":"high","char":"G","transposition":2,"order":["shifted","swapped"],"probe_pitches":[8,4,8,4,3,10,13,2,10,8,14,3,9,3,7,13],"shifted_pitches":[8,4,8,4,3,10,13,2,11,8,14,3,9,3,7,13],"swapped_pitches":[8,4,8,4,3,10,13,10,2,8,14,3,9,3,7,13],"shift_direction":1,"question_num":131,"has_decoy":false},{"rt":13467.100000023842,"stimulus":"[A] option 1, [L] option 2, [G] neither","key_press":76,"name":"choice","trial_type":"html-keyboard-response","trial_index":164,"time_elapsed":398147,"internal_node_id":"0.0-164.0","subject":"S1C1614","sona":"41877","block":4,"time":"2021-09-15T19:37:46.068Z","response":"2nd","certainty":"high","char":"L","transposition":0,"order":["swapped","shifted"],"probe_pitches":[11,8,7,6,10,11,9,13,11,8,13,11,14,5,7,13],"shifted_pitches":[11,8,7,6,10,11,9,13,12,8,13,11,14,5,7,13],"swapped_pitches":[11,8,7,6,10,11,9,11,13,8,13,11,14,5,7,13],"shift_direction":1,"question_num":141,"has_decoy":false},{"rt":915.8000000119209,"stimulus":"[A] option 1, [L] option 2, [G] neither","key_press":76,"name":"choice","trial_type":"html-keyboard-response","trial_index":175,"time_elapsed":422332,"internal_node_id":"0.0-175.0","subject":"S1C1614","sona":"41877","block":4,"time":"2021-09-15T19:37:46.068Z","response":"2nd","certainty":"high","char":"L","transposition":-1,"order":["swapped","shifted"],"probe_pitches":[12,10,5,10,3,8,10,15,12,5,12,10,12,5,8,12],"shifted_pitches":[12,10,5,10,3,8,10,15,11,5,12,10,12,5,8,12],"swapped_pitches":[12,10,5,10,3,8,10,12,15,5,12,10,12,5,8,12],"shift_direction":-1,"question_num":151,"has_decoy":false},{"rt":3425.600000023842,"stimulus":"[A] option 1, [L] option 2, [G] neither","key_press":71,"name":"choice","trial_type":"html-keyboard-response","trial_index":186,"time_elapsed":448180,"internal_node_id":"0.0-186.0","subject":"S1C1614","sona":"41877","block":4,"time":"2021-09-15T19:37:46.068Z","response":"neither","certainty":"high","char":"G","transposition":0,"order":["swapped","shifted"],"probe_pitches":[8,12,8,3,5,12,10,12,5,15,5,10,15,10,3,8],"shifted_pitches":[8,12,8,3,5,12,10,13,5,15,5,10,15,10,3,8],"swapped_pitches":[8,12,8,3,5,12,10,5,12,15,5,10,15,10,3,8],"shift_direction":1,"question_num":161,"has_decoy":false},{"rt":4755.699999988079,"stimulus":"[A] option 1, [L] option 2, [G] neither","key_press":71,"name":"choice","trial_type":"html-keyboard-response","trial_index":197,"time_elapsed":475132,"internal_node_id":"0.0-197.0","subject":"S1C1614","sona":"41877","block":4,"time":"2021-09-15T19:37:46.068Z","response":"neither","certainty":"high","char":"G","transposition":-2,"order":["swapped","shifted"],"probe_pitches":[3,2,6,8,10,3,2,8,7,3,10,11,10,3,14,7],"shifted_pitches":[3,2,6,8,10,3,2,9,7,3,10,11,10,3,14,7],"swapped_pitches":[3,2,6,8,10,3,2,7,8,3,10,11,10,3,14,7],"shift_direction":1,"question_num":171,"has_decoy":false},{"rt":1081.7999999523163,"stimulus":"[A] option 1, [L] option 2, [G] neither","key_press":76,"name":"choice","trial_type":"html-keyboard-response","trial_index":208,"time_elapsed":502999,"internal_node_id":"0.0-208.0","subject":"S1C1614","sona":"41877","block":4,"time":"2021-09-15T19:37:46.068Z","response":"2nd","certainty":"high","char":"L","transposition":-2,"order":["shifted","swapped"],"probe_pitches":[6,8,3,2,8,12,11,3,4,2,9,11,8,7,9,10],"shifted_pitches":[6,8,3,2,8,12,11,3,5,2,9,11,8,7,9,10],"swapped_pitches":[6,8,3,2,8,12,11,4,3,2,9,11,8,7,9,10],"shift_direction":1,"question_num":181,"has_decoy":false},{"rt":703.5,"stimulus":"[A] option 1, [L] option 2, [G] neither","key_press":65,"name":"choice","trial_type":"html-keyboard-response","trial_index":219,"time_elapsed":526882,"internal_node_id":"0.0-219.0","subject":"S1C1614","sona":"41877","block":4,"time":"2021-09-15T19:37:46.068Z","response":"1st","certainty":"high","char":"A","transposition":1,"order":["swapped","shifted"],"probe_pitches":[5,4,2,9,14,12,10,8,3,11,14,9,10,6,13,5],"shifted_pitches":[5,4,2,9,14,12,10,7,3,11,14,9,10,6,13,5],"swapped_pitches":[5,4,2,9,14,12,10,3,8,11,14,9,10,6,13,5],"shift_direction":-1,"question_num":191,"has_decoy":false}]