[{"rt":1165.1000000238419,"stimulus":"[A] option 1, [L] option 2, [G] neither","key_press":76,"name":"choice","trial_type":"html-keyboard-response","trial_index":10,"time_elapsed":23498,"internal_node_id":"0.0-10.0","subject":"S1C1614","sona":"41877","block":5,"time":"2021-09-15T19:45:55.349Z","response":"2nd","certainty":"high","char":"L","transposition":1,"order":["swapped","shifted"],"probe_pitches":[2,6,4,6,11,9,2,9,14,6,11,4,11,2,14,2],"shifted_pitches":[2,6,4,6,11,9,2,10,14,6,11,4,11,2,14,2],"swapped_pitches":[2,6,4,6,11,9,2,14,9,6,11,4,11,2,14,2],"shift_direction":1,"question_num":1,"has_decoy":false},{"rt":642.2000000476837,"stimulus":"[A] option 1, [L] option 2, [G] neither","key_press":76,"name":"choice","trial_type":"html-keyboard-response","trial_index":21,"time_elapsed":46394,"internal_node_id":"0.0-21.0","subject":"S1C1614","sona":"41877","block":5,"time":"2021-09-15T19:45:55.349Z","response":"2nd","certainty":"high","char":"L","transposition":0,"order":["shifted","swapped"],"probe_pitches":[9,4,6,-2,3,8,4,1,3,2,5,8,-2,8,-2,3],"shifted_pitches":[9,4,6,-2,3,8,4,0,3,2,5,8,-2,8,-2,3],"swapped_pitches":[9,4,6,-2,3,8,4,3,1,2,5,8,-2,8,-2,3],"shift_direction":-1,"question_num":11,"has_decoy":false},{"rt":1070.4000000357628,"stimulus":"[A] option 1, [L] option 2, [G] neither","key_press":71,"name":"choice","trial_type":"html-keyboard-response","trial_index":32,"time_elapsed":69713,"internal_node_id":"0.0-32.0","subject":"S1C1614","sona":"41877","block":5,"time":"2021-09-15T19:45:55.349Z","response":"neither","certainty":"high","char":"G","transposition":-2,"order":["swapped","shifted"],"probe_pitches":[8,3,-3,5,0,2,9,7,3,8,3,1,-1,5,-1,-2],"shifted_pitches":[8,3,-3,5,0,2,9,7,4,8,3,1,-1,5,-1,-2],"swapped_pitches":[8,3,-3,5,0,2,9,3,7,8,3,1,-1,5,-1,-2],"shift_direction":1,"question_num":21,"has_decoy":false},{"rt":390.69999998807907,"stimulus":"[A] option 1, [L] option 2, [G] neither","key_press":71,"name":"choice","trial_type":"html-keyboard-response","trial_index":43,"time_elapsed":92137,"internal_node_id":"0.0-43.0","subject":"S1C1614","sona":"41877","block":5,"time":"2021-09-15T19:45:55.349Z","response":"neither","certainty":"high","char":"G","transposition":3,"order":["shifted","swapped"],"probe_pitches":[9,14,7,12,14,7,14,4,12,9,12,2,9,14,9,14],"shifted_pitches":[9,14,7,12,14,7,14,5,12,9,12,2,9,14,9,14],"swapped_pitches":[9,14,7,12,14,7,14,12,4,9,12,2,9,14,9,14],"shift_direction":1,"question_num":31,"has_decoy":false},{"rt":9190.399999976158,"stimulus":"[A] option 1, [L] option 2, [G] neither","key_press":71,"name":"choice","trial_type":"html-keyboard-response","trial_index":54,"time_elapsed":123363,"internal_node_id":"0.0-54.0","subject":"S1C1614","sona":"41877","block":5,"time":"2021-09-15T19:45:55.349Z","response":"neither","certainty":"high","char":"G","transposition":-1,"order":["shifted","swapped"],"probe_pitches":[3,1,0,2,8,1,7,1,6,2,1,-1,-3,7,-1,-3],"shifted_pitches":[3,1,0,2,8,1,7,1,5,2,1,-1,-3,7,-1,-3],"swapped_pitches":[3,1,0,2,8,1,7,6,1,2,1,-1,-3,7,-1,-3],"shift_direction":-1,"question_num":41,"has_decoy":false},{"rt":350.9000000357628,"stimulus":"[A] option 1, [L] option 2, [G] neither","key_press":71,"name":"choice","trial_type":"html-keyboard-response","trial_index":65,"time_elapsed":153516,"internal_node_id":"0.0-65.0","subject":"S1C1614","sona":"41877","block":5,"time":"2021-09-15T19:45:55.349Z","response":"neither","certainty":"high","char":"G","transposition":3,"order":["swapped","shifted"],"probe_pitches":[9,6,0,7,4,1,-2,1,-1,4,0,-1,5,8,5,-1],"shifted_pitches":[9,6,0,7,4,1,-2,2,-1,4,0,-1,5,8,5,-1],"swapped_pitches":[9,6,0,7,4,1,-2,-1,1,4,0,-1,5,8,5,-1],"shift_direction":1,"question_num":51,"has_decoy":false},{"rt":939.1000000238419,"stimulus":"[A] option 1, [L] option 2, [G] neither","key_press":71,"name":"choice","trial_type":"html-keyboard-response","trial_index":76,"time_elapsed":179464,"internal_node_id":"0.0-76.0","subject":"S1C1614","sona":"41877","block":5,"time":"2021-09-15T19:45:55.349Z","response":"neither","certainty":"high","char":"G","transposition":-3,"order":["swapped","shifted"],"probe_pitches":[10,14,7,12,14,7,5,2,12,7,14,12,14,7,14,7],"shifted_pitches":[10,14,7,12,14,7,5,2,13,7,14,12,14,7,14,7],"swapped_pitches":[10,14,7,12,14,7,5,12,2,7,14,12,14,7,14,7],"shift_direction":1,"question_num":61,"has_decoy":false},{"rt":622.5999999642372,"stimulus":"[A] option 1, [L] option 2, [G] neither","key_press":65,"name":"choice","trial_type":"html-keyboard-response","trial_index":87,"time_elapsed":202625,"internal_node_id":"0.0-87.0","subject":"S1C1614","sona":"41877","block":5,"time":"2021-09-15T19:45:55.349Z","response":"1st","certainty":"high","char":"A","transposition":-2,"order":["shifted","swapped"],"probe_pitches":[9,11,14,7,9,14,4,2,11,7,9,11,4,2,11,9],"shifted_pitches":[9,11,14,7,9,14,4,2,10,7,9,11,4,2,11,9],"swapped_pitches":[9,11,14,7,9,14,4,11,2,7,9,11,4,2,11,9],"shift_direction":-1,"question_num":71,"has_decoy":false},{"rt":2105,"stimulus":"[A] option 1, [L] option 2, [G] neither","key_press":71,"name":"choice","trial_type":"html-keyboard-response","trial_index":98,"time_elapsed":227291,"internal_node_id":"0.0-98.0","subject":"S1C1614","sona":"41877","block":5,"time":"2021-09-15T19:45:55.349Z","response":"neither","certainty":"high","char":"G","transposition":-3,"order":["swapped","shifted"],"probe_pitches":[8,6,2,9,5,1,-2,8,2,-1,9,4,1,4,2,-3],"shifted_pitches":[8,6,2,9,5,1,-2,8,3,-1,9,4,1,4,2,-3],"swapped_pitches":[8,6,2,9,5,1,-2,2,8,-1,9,4,1,4,2,-3],"shift_direction":1,"question_num":81,"has_decoy":false},{"rt":900.1999999880791,"stimulus":"[A] option 1, [L] option 2, [G] neither","key_press":65,"name":"choice","trial_type":"html-keyboard-response","trial_index":109,"time_elapsed":251532,"internal_node_id":"0.0-109.0","subject":"S1C1614","sona":"41877","block":5,"time":"2021-09-15T19:45:55.349Z","response":"1st","certainty":"high","char":"A","transposition":0,"order":["shifted","swapped"],"probe_pitches":[14,12,10,2,5,12,5,7,2,14,2,12,14,2,7,5],"shifted_pitches":[14,12,10,2,5,12,5,7,1,14,2,12,14,2,7,5],"swapped_pitches":[14,12,10,2,5,12,5,2,7,14,2,12,14,2,7,5],"shift_direction":-1,"question_num":91,"has_decoy":false},{"rt":987.3999999761581,"stimulus":"[A] option 1, [L] option 2, [G] neither","key_press":71,"name":"choice","trial_type":"html-keyboard-response","trial_index":120,"time_elapsed":275528,"internal_node_id":"0.0-120.0","subject":"S1C1614","sona":"41877","block":5,"time":"2021-09-15T19:45:55.349Z","response":"neither","certainty":"high","char":"G","transposition":-2,"order":["shifted","swapped"],"probe_pitches":[7,8,9,5,3,4,9,2,7,-1,2,-2,7,6,-2,8],"shifted_pitches":[7,8,9,5,3,4,9,1,7,-1,2,-2,7,6,-2,8],"swapped_pitches":[7,8,9,5,3,4,9,7,2,-1,2,-2,7,6,-2,8],"shift_direction":-1,"question_num":101,"has_decoy":false},{"rt":1191.2000000476837,"stimulus":"[A] option 1, [L] option 2, [G] neither","key_press":65,"name":"choice","trial_type":"html-keyboard-response","trial_index":131,"time_elapsed":298900,"internal_node_id":"0.0-131.0","subject":"S1C1614","sona":"41877","block":5,"time":"2021-09-15T19:45:55.349Z","response":"1st","certainty":"high","char":"A","transposition":-1,"order":["shifted","swapped"],"probe_pitches":[14,9,14,7,2,5,14,7,2,12,7,12,2,7,14,9],"shifted_pitches":[14,9,14,7,2,5,14,6,2,12,7,12,2,7,14,9],"swapped_pitches":[14,9,14,7,2,5,14,2,7,12,7,12,2,7,14,9],"shift_direction":-1,"question_num":111,"has_decoy":false},{"rt":1399.1000000238419,"stimulus":"[A] option 1, [L] option 2, [G] neither","key_press":65,"name":"choice","trial_type":"html-keyboard-response","trial_index":142,"time_elapsed":322804,"internal_node_id":"0.0-142.0","subject":"S1C1614","sona":"41877","block":5,"time":"2021-09-15T19:45:55.349Z","response":"1st","certainty":"high","char":"A","transposition":-1,"order":["shifted","swapped"],"probe_pitches":[1,4,0,-3,2,-1,3,7,1,8,1,0,3,5,-1,8],"shifted_pitches":[1,4,0,-3,2,-1,3,6,1,8,1,0,3,5,-1,8],"swapped_pitches":[1,4,0,-3,2,-1,3,1,7,8,1,0,3,5,-1,8],"shift_direction":-1,"question_num":121,"has_decoy":false},{"rt":375.5,"stimulus":"[A] option 1, [L] option 2, [G] neither","key_press":65,"name":"choice","trial_type":"html-keyboard-response","trial_index":153,"time_elapsed":346724,"internal_node_id":"0.0-153.0","subject":"S1C1614","sona":"41877","block":5,"time":"2021-09-15T19:45:55.349Z","response":"1st","certainty":"high","char":"A","transposition":-3,"order":["shifted","swapped"],"probe_pitches":[6,4,9,6,14,6,2,6,4,14,4,6,11,4,11,2],"shifted_pitches":[6,4,9,6,14,6,2,6,5,14,4,6,11,4,11,2],"swapped_pitches":[6,4,9,6,14,6,2,4,6,14,4,6,11,4,11,2],"shift_direction":1,"question_num":131,"has_decoy":false},{"rt":667.1000000238419,"stimulus":"[A] option 1, [L] option 2, [G] neither","key_press":71,"name":"choice","trial_type":"html-keyboard-response","trial_index":164,"time_elapsed":369426,"internal_node_id":"0.0-164.0","subject":"S1C1614","sona":"41877","block":5,"time":"2021-09-15T19:45:55.349Z","response":"neither","certainty":"high","char":"G","transposition":2,"order":["swapped","shifted"],"probe_pitches":[-3,0,6,1,8,1,8,2,-2,7,9,1,9,-2,2,5],"shifted_pitches":[-3,0,6,1,8,1,8,2,-1,7,9,1,9,-2,2,5],"swapped_pitches":[-3,0,6,1,8,1,8,-2,2,7,9,1,9,-2,2,5],"shift_direction":1,"question_num":141,"has_decoy":false},{"rt":972.1999999880791,"stimulus":"[A] option 1, [L] option 2, [G] neither","key_press":71,"name":"choice","trial_type":"html-keyboard-response","trial_index":175,"time_elapsed":393123,"internal_node_id":"0.0-175.0","subject":"S1C1614","sona":"41877","block":5,"time":"2021-09-15T19:45:55.349Z","response":"neither","certainty":"high","char":"G","transposition":-3,"order":["swapped","shifted"],"probe_pitches":[-3,3,6,4,-2,2,5,9,8,2,6,1,5,6,3,1],"shifted_pitches":[-3,3,6,4,-2,2,5,9,7,2,6,1,5,6,3,1],"swapped_pitches":[-3,3,6,4,-2,2,5,8,9,2,6,1,5,6,3,1],"shift_direction":-1,"question_num":151,"has_decoy":false},{"rt":384.89999997615814,"stimulus":"[A] option 1, [L] option 2, [G] neither","key_press":76,"name":"choice","trial_type":"html-keyboard-response","trial_index":186,"time_elapsed":416552,"internal_node_id":"0.0-186.0","subject":"S1C1614","sona":"41877","block":5,"time":"2021-09-15T19:45:55.349Z","response":"2nd","certainty":"high","char":"L","transposition":2,"order":["swapped","shifted"],"probe_pitches":[12,7,9,12,5,9,2,12,7,5,12,9,2,5,2,5],"shifted_pitches":[12,7,9,12,5,9,2,11,7,5,12,9,2,5,2,5],"swapped_pitches":[12,7,9,12,5,9,2,7,12,5,12,9,2,5,2,5],"shift_direction":-1,"question_num":161,"has_decoy":false},{"rt":407.5,"stimulus":"[A] option 1, [L] option 2, [G] neither","key_press":76,"name":"choice","trial_type":"html-keyboard-response","trial_index":197,"time_elapsed":439364,"internal_node_id":"0.0-197.0","subject":"S1C1614","sona":"41877","block":5,"time":"2021-09-15T19:45:55.349Z","response":"2nd","certainty":"high","char":"L","transposition":-2,"order":["swapped","shifted"],"probe_pitches":[7,2,4,11,4,9,11,9,2,14,11,7,14,2,11,4],"shifted_pitches":[7,2,4,11,4,9,11,8,2,14,11,7,14,2,11,4],"swapped_pitches":[7,2,4,11,4,9,11,2,9,14,11,7,14,2,11,4],"shift_direction":-1,"question_num":171,"has_decoy":false},{"rt":344.89999997615814,"stimulus":"[A] option 1, [L] option 2, [G] neither","key_press":65,"name":"choice","trial_type":"html-keyboard-response","trial_index":208,"time_elapsed":462667,"internal_node_id":"0.0-208.0","subject":"S1C1614","sona":"41877","block":5,"time":"2021-09-15T19:45:55.349Z","response":"1st","certainty":"high","char":"A","transposition":1,"order":["shifted","swapped"],"probe_pitches":[6,3,-3,1,2,9,1,7,-2,0,1,9,-3,5,-3,9],"shifted_pitches":[6,3,-3,1,2,9,1,8,-2,0,1,9,-3,5,-3,9],"swapped_pitches":[6,3,-3,1,2,9,1,-2,7,0,1,9,-3,5,-3,9],"shift_direction":1,"question_num":181,"has_decoy":false},{"rt":398.19999998807907,"stimulus":"[A] option 1, [L] option 2, [G] neither","key_press":76,"name":"choice","trial_type":"html-keyboard-response","trial_index":219,"time_elapsed":485403,"internal_node_id":"0.0-219.0","subject":"S1C1614","sona":"41877","block":5,"time":"2021-09-15T19:45:55.349Z","response":"2nd","certainty":"high","char":"L","transposition":-1,"order":["swapped","shifted"],"probe_pitches":[4,7,4,9,12,2,7,12,2,4,7,2,9,2,4,14],"shifted_pitches":[4,7,4,9,12,2,7,12,3,4,7,2,9,2,4,14],"swapped_pitches":[4,7,4,9,12,2,7,2,12,4,7,2,9,2,4,14],"shift_direction":1,"question_num":191,"has_decoy":false}]