[{"rt":8028.800000011921,"stimulus":"[A] option 1, [L] option 2, [G] neither","key_press":71,"name":"choice","trial_type":"html-keyboard-response","trial_index":10,"time_elapsed":30272,"internal_node_id":"0.0-10.0","subject":"S1C1614","sona":"41877","block":6,"time":"2021-09-15T19:53:55.775Z","response":"neither","certainty":"high","char":"G","transposition":-3,"order":["swapped","shifted"],"probe_pitches":[6,8,4,7,4,2,12,10,7,5,4,8,10,6,1,5],"shifted_pitches":[6,8,4,7,4,2,12,11,7,5,4,8,10,6,1,5],"swapped_pitches":[6,8,4,7,4,2,12,7,10,5,4,8,10,6,1,5],"shift_direction":1,"question_num":1,"has_decoy":false},{"rt":1134.699999988079,"stimulus":"[A] option 1, [L] option 2, [G] neither","key_press":71,"name":"choice","trial_type":"html-keyboard-response","trial_index":21,"time_elapsed":53789,"internal_node_id":"0.0-21.0","subject":"S1C1614","sona":"41877","block":6,"time":"2021-09-15T19:53:55.775Z","response":"neither","certainty":"high","char":"G","transposition":1,"order":["swapped","shifted"],"probe_pitches":[10,13,6,9,6,3,5,11,3,12,8,7,2,9,11,5],"shifted_pitches":[10,13,6,9,6,3,5,11,4,12,8,7,2,9,11,5],"swapped_pitches":[10,13,6,9,6,3,5,3,11,12,8,7,2,9,11,5],"shift_direction":1,"question_num":11,"has_decoy":false},{"rt":362.69999998807907,"stimulus":"[A] option 1, [L] option 2, [G] neither","key_press":76,"name":"choice","trial_type":"html-keyboard-response","trial_index":32,"time_elapsed":76691,"internal_node_id":"0.0-32.0","subject":"S1C1614","sona":"41877","block":6,"time":"2021-09-15T19:53:55.775Z","response":"2nd","certainty":"high","char":"L","transposition":-2,"order":["swapped","shifted"],"probe_pitches":[10,4,9,7,11,8,7,3,13,1,7,1,13,1,13,9],"shifted_pitches":[10,4,9,7,11,8,7,3,12,1,7,1,13,1,13,9],"swapped_pitches":[10,4,9,7,11,8,7,13,3,1,7,1,13,1,13,9],"shift_direction":-1,"question_num":21,"has_decoy":false},{"rt":365.5,"stimulus":"[A] option 1, [L] option 2, [G] neither","key_press":76,"name":"choice","trial_type":"html-keyboard-response","trial_index":43,"time_elapsed":99547,"internal_node_id":"0.0-43.0","subject":"S1C1614","sona":"41877","block":6,"time":"2021-09-15T19:53:55.775Z","response":"2nd","certainty":"high","char":"L","transposition":1,"order":["swapped","shifted"],"probe_pitches":[9,4,6,11,4,11,1,-1,11,9,-1,9,6,-1,1,6],"shifted_pitches":[9,4,6,11,4,11,1,-1,12,9,-1,9,6,-1,1,6],"swapped_pitches":[9,4,6,11,4,11,1,11,-1,9,-1,9,6,-1,1,6],"shift_direction":1,"question_num":31,"has_decoy":false},{"rt":376.69999998807907,"stimulus":"[A] option 1, [L] option 2, [G] neither","key_press":65,"name":"choice","trial_type":"html-keyboard-response","trial_index":54,"time_elapsed":122295,"internal_node_id":"0.0-54.0","subject":"S1C1614","sona":"41877","block":6,"time":"2021-09-15T19:53:55.775Z","response":"1st","certainty":"high","char":"A","transposition":-2,"order":["shifted","swapped"],"probe_pitches":[4,2,4,6,2,11,2,6,11,9,6,4,9,4,-1,4],"shifted_pitches":[4,2,4,6,2,11,2,5,11,9,6,4,9,4,-1,4],"swapped_pitches":[4,2,4,6,2,11,2,11,6,9,6,4,9,4,-1,4],"shift_direction":-1,"question_num":41,"has_decoy":false},{"rt":468.10000002384186,"stimulus":"[A] option 1, [L] option 2, [G] neither","key_press":76,"name":"choice","trial_type":"html-keyboard-response","trial_index":65,"time_elapsed":145181,"internal_node_id":"0.0-65.0","subject":"S1C1614","sona":"41877","block":6,"time":"2021-09-15T19:53:55.775Z","response":"2nd","certainty":"high","char":"L","transposition":0,"order":["swapped","shifted"],"probe_pitches":[6,11,6,11,9,-1,2,4,9,2,4,-1,4,-1,9,-1],"shifted_pitches":[6,11,6,11,9,-1,2,5,9,2,4,-1,4,-1,9,-1],"swapped_pitches":[6,11,6,11,9,-1,2,9,4,2,4,-1,4,-1,9,-1],"shift_direction":1,"question_num":51,"has_decoy":false},{"rt":668.8000000119209,"stimulus":"[A] option 1, [L] option 2, [G] neither","key_press":71,"name":"choice","trial_type":"html-keyboard-response","trial_index":76,"time_elapsed":168229,"internal_node_id":"0.0-76.0","subject":"S1C1614","sona":"41877","block":6,"time":"2021-09-15T19:53:55.775Z","response":"neither","certainty":"high","char":"G","transposition":-3,"order":["shifted","swapped"],"probe_pitches":[6,5,1,5,12,3,10,6,4,10,2,13,5,12,13,6],"shifted_pitches":[6,5,1,5,12,3,10,7,4,10,2,13,5,12,13,6],"swapped_pitches":[6,5,1,5,12,3,10,4,6,10,2,13,5,12,13,6],"shift_direction":1,"question_num":61,"has_decoy":false},{"rt":1529.3999999761581,"stimulus":"[A] option 1, [L] option 2, [G] neither","key_press":71,"name":"choice","trial_type":"html-keyboard-response","trial_index":87,"time_elapsed":192109,"internal_node_id":"0.0-87.0","subject":"S1C1614","sona":"41877","block":6,"time":"2021-09-15T19:53:55.775Z","response":"neither","certainty":"high","char":"G","transposition":-3,"order":["shifted","swapped"],"probe_pitches":[9,7,9,7,9,7,11,2,7,9,-1,4,11,2,-1,7],"shifted_pitches":[9,7,9,7,9,7,11,2,6,9,-1,4,11,2,-1,7],"swapped_pitches":[9,7,9,7,9,7,11,7,2,9,-1,4,11,2,-1,7],"shift_direction":-1,"question_num":71,"has_decoy":false},{"rt":663.2999999523163,"stimulus":"[A] option 1, [L] option 2, [G] neither","key_press":71,"name":"choice","trial_type":"html-keyboard-response","trial_index":98,"time_elapsed":216059,"internal_node_id":"0.0-98.0","subject":"S1C1614","sona":"41877","block":6,"time":"2021-09-15T19:53:55.775Z","response":"neither","certainty":"high","char":"G","transposition":-2,"order":["swapped","shifted"],"probe_pitches":[2,6,13,6,1,3,4,9,10,2,13,7,2,13,4,3],"shifted_pitches":[2,6,13,6,1,3,4,8,10,2,13,7,2,13,4,3],"swapped_pitches":[2,6,13,6,1,3,4,10,9,2,13,7,2,13,4,3],"shift_direction":-1,"question_num":81,"has_decoy":false},{"rt":1485.699999988079,"stimulus":"[A] option 1, [L] option 2, [G] neither","key_press":71,"name":"choice","trial_type":"html-keyboard-response","trial_index":109,"time_elapsed":240305,"internal_node_id":"0.0-109.0","subject":"S1C1614","sona":"41877","block":6,"time":"2021-09-15T19:53:55.775Z","response":"neither","certainty":"high","char":"G","transposition":-1,"order":["swapped","shifted"],"probe_pitches":[-1,1,8,1,3,-1,6,3,8,1,6,11,-1,8,1,8],"shifted_pitches":[-1,1,8,1,3,-1,6,3,9,1,6,11,-1,8,1,8],"swapped_pitches":[-1,1,8,1,3,-1,6,8,3,1,6,11,-1,8,1,8],"shift_direction":1,"question_num":91,"has_decoy":false},{"rt":794.1999999880791,"stimulus":"[A] option 1, [L] option 2, [G] neither","key_press":65,"name":"choice","trial_type":"html-keyboard-response","trial_index":120,"time_elapsed":264237,"internal_node_id":"0.0-120.0","subject":"S1C1614","sona":"41877","block":6,"time":"2021-09-15T19:53:55.775Z","response":"1st","certainty":"high","char":"A","transposition":-2,"order":["shifted","swapped"],"probe_pitches":[-1,1,4,6,8,6,4,1,11,6,11,4,-1,4,11,8],"shifted_pitches":[-1,1,4,6,8,6,4,2,11,6,11,4,-1,4,11,8],"swapped_pitches":[-1,1,4,6,8,6,4,11,1,6,11,4,-1,4,11,8],"shift_direction":1,"question_num":101,"has_decoy":false},{"rt":1499,"stimulus":"[A] option 1, [L] option 2, [G] neither","key_press":71,"name":"choice","trial_type":"html-keyboard-response","trial_index":131,"time_elapsed":287785,"internal_node_id":"0.0-131.0","subject":"S1C1614","sona":"41877","block":6,"time":"2021-09-15T19:53:55.775Z","response":"neither","certainty":"high","char":"G","transposition":2,"order":["shifted","swapped"],"probe_pitches":[2,5,11,12,11,5,8,10,4,13,3,11,12,8,11,10],"shifted_pitches":[2,5,11,12,11,5,8,9,4,13,3,11,12,8,11,10],"swapped_pitches":[2,5,11,12,11,5,8,4,10,13,3,11,12,8,11,10],"shift_direction":-1,"question_num":111,"has_decoy":false},{"rt":379.7999999523163,"stimulus":"[A] option 1, [L] option 2, [G] neither","key_press":65,"name":"choice","trial_type":"html-keyboard-response","trial_index":142,"time_elapsed":310964,"internal_node_id":"0.0-142.0","subject":"S1C1614","sona":"41877","block":6,"time":"2021-09-15T19:53:55.775Z","response":"1st","certainty":"high","char":"A","transposition":2,"order":["shifted","swapped"],"probe_pitches":[9,4,9,4,9,7,-1,4,11,2,4,7,2,-1,9,4],"shifted_pitches":[9,4,9,4,9,7,-1,3,11,2,4,7,2,-1,9,4],"swapped_pitches":[9,4,9,4,9,7,-1,11,4,2,4,7,2,-1,9,4],"shift_direction":-1,"question_num":121,"has_decoy":false},{"rt":454.69999998807907,"stimulus":"[A] option 1, [L] option 2, [G] neither","key_press":76,"name":"choice","trial_type":"html-keyboard-response","trial_index":153,"time_elapsed":333786,"internal_node_id":"0.0-153.0","subject":"S1C1614","sona":"41877","block":6,"time":"2021-09-15T19:53:55.775Z","response":"2nd","certainty":"high","char":"L","transposition":-3,"order":["swapped","shifted"],"probe_pitches":[9,6,11,4,11,1,4,-1,11,6,4,9,-1,9,11,4],"shifted_pitches":[9,6,11,4,11,1,4,-1,10,6,4,9,-1,9,11,4],"swapped_pitches":[9,6,11,4,11,1,4,11,-1,6,4,9,-1,9,11,4],"shift_direction":-1,"question_num":131,"has_decoy":false},{"rt":1195.7999999523163,"stimulus":"[A] option 1, [L] option 2, [G] neither","key_press":71,"name":"choice","trial_type":"html-keyboard-response","trial_index":164,"time_elapsed":357391,"internal_node_id":"0.0-164.0","subject":"S1C1614","sona":"41877","block":6,"time":"2021-09-15T19:53:55.775Z","response":"neither","certainty":"high","char":"G","transposition":3,"order":["shifted","swapped"],"probe_pitches":[8,4,7,2,11,4,7,6,9,2,6,12,1,2,13,7],"shifted_pitches":[8,4,7,2,11,4,7,5,9,2,6,12,1,2,13,7],"swapped_pitches":[8,4,7,2,11,4,7,9,6,2,6,12,1,2,13,7],"shift_direction":-1,"question_num":141,"has_decoy":false},{"rt":1341.5,"stimulus":"[A] option 1, [L] option 2, [G] neither","key_press":71,"name":"choice","trial_type":"html-keyboard-response","trial_index":175,"time_elapsed":381099,"internal_node_id":"0.0-175.0","subject":"S1C1614","sona":"41877","block":6,"time":"2021-09-15T19:53:55.775Z","response":"neither","certainty":"high","char":"G","transposition":0,"order":["shifted","swapped"],"probe_pitches":[11,12,9,3,2,9,2,1,9,11,5,13,9,11,7,5],"shifted_pitches":[11,12,9,3,2,9,2,1,10,11,5,13,9,11,7,5],"swapped_pitches":[11,12,9,3,2,9,2,9,1,11,5,13,9,11,7,5],"shift_direction":1,"question_num":151,"has_decoy":false},{"rt":579.6000000238419,"stimulus":"[A] option 1, [L] option 2, [G] neither","key_press":65,"name":"choice","trial_type":"html-keyboard-response","trial_index":186,"time_elapsed":403890,"internal_node_id":"0.0-186.0","subject":"S1C1614","sona":"41877","block":6,"time":"2021-09-15T19:53:55.775Z","response":"1st","certainty":"high","char":"A","transposition":-1,"order":["swapped","shifted"],"probe_pitches":[10,11,12,13,5,3,1,9,5,7,9,7,9,13,12,8],"shifted_pitches":[10,11,12,13,5,3,1,9,6,7,9,7,9,13,12,8],"swapped_pitches":[10,11,12,13,5,3,1,5,9,7,9,7,9,13,12,8],"shift_direction":1,"question_num":161,"has_decoy":false},{"rt":761.3999999761581,"stimulus":"[A] option 1, [L] option 2, [G] neither","key_press":65,"name":"choice","trial_type":"html-keyboard-response","trial_index":197,"time_elapsed":426919,"internal_node_id":"0.0-197.0","subject":"S1C1614","sona":"41877","block":6,"time":"2021-09-15T19:53:55.775Z","response":"1st","certainty":"high","char":"A","transposition":-1,"order":["shifted","swapped"],"probe_pitches":[10,5,4,11,4,6,9,6,4,11,7,13,9,13,7,9],"shifted_pitches":[10,5,4,11,4,6,9,6,3,11,7,13,9,13,7,9],"swapped_pitches":[10,5,4,11,4,6,9,4,6,11,7,13,9,13,7,9],"shift_direction":-1,"question_num":171,"has_decoy":false},{"rt":2055.800000011921,"stimulus":"[A] option 1, [L] option 2, [G] neither","key_press":71,"name":"choice","trial_type":"html-keyboard-response","trial_index":208,"time_elapsed":451318,"internal_node_id":"0.0-208.0","subject":"S1C1614","sona":"41877","block":6,"time":"2021-09-15T19:53:55.775Z","response":"neither","certainty":"high","char":"G","transposition":3,"order":["shifted","swapped"],"probe_pitches":[3,8,3,6,-1,6,3,-1,6,8,1,8,-1,8,11,3],"shifted_pitches":[3,8,3,6,-1,6,3,0,6,8,1,8,-1,8,11,3],"swapped_pitches":[3,8,3,6,-1,6,3,6,-1,8,1,8,-1,8,11,3],"shift_direction":1,"question_num":181,"has_decoy":false},{"rt":1297.699999988079,"stimulus":"[A] option 1, [L] option 2, [G] neither","key_press":71,"name":"choice","trial_type":"html-keyboard-response","trial_index":219,"time_elapsed":475770,"internal_node_id":"0.0-219.0","subject":"S1C1614","sona":"41877","block":6,"time":"2021-09-15T19:53:55.775Z","response":"neither","certainty":"high","char":"G","transposition":-1,"order":["swapped","shifted"],"probe_pitches":[11,6,-1,1,-1,1,8,6,1,11,4,6,8,6,11,6],"shifted_pitches":[11,6,-1,1,-1,1,8,6,0,11,4,6,8,6,11,6],"swapped_pitches":[11,6,-1,1,-1,1,8,1,6,11,4,6,8,6,11,6],"shift_direction":-1,"question_num":191,"has_decoy":false}]