[{"rt":443.7999999523163,"stimulus":"[A] option 1, [L] option 2, [G] neither","key_press":76,"name":"choice","trial_type":"html-keyboard-response","trial_index":10,"time_elapsed":24391,"internal_node_id":"0.0-10.0","subject":"S1C1614","sona":"41877","block":3,"time":"2021-09-15T19:28:52.433Z","response":"2nd","certainty":"high","char":"L","transposition":1,"order":["swapped","shifted"],"probe_pitches":[9,6,9,4,-1,4,-1,-3,4,-1,-3,6,1,6,9,-3],"shifted_pitches":[9,6,9,4,-1,4,-1,-4,4,-1,-3,6,1,6,9,-3],"swapped_pitches":[9,6,9,4,-1,4,-1,4,-3,-1,-3,6,1,6,9,-3],"shift_direction":-1,"question_num":1,"has_decoy":false},{"rt":1001.8999999761581,"stimulus":"[A] option 1, [L] option 2, [G] neither","key_press":76,"name":"choice","trial_type":"html-keyboard-response","trial_index":21,"time_elapsed":48163,"internal_node_id":"0.0-21.0","subject":"S1C1614","sona":"41877","block":3,"time":"2021-09-15T19:28:52.433Z","response":"2nd","certainty":"high","char":"L","transposition":3,"order":["swapped","shifted"],"probe_pitches":[5,2,7,4,-1,9,0,5,9,6,-1,4,-2,0,7,-3],"shifted_pitches":[5,2,7,4,-1,9,0,5,8,6,-1,4,-2,0,7,-3],"swapped_pitches":[5,2,7,4,-1,9,0,9,5,6,-1,4,-2,0,7,-3],"shift_direction":-1,"question_num":11,"has_decoy":false},{"rt":403.69999998807907,"stimulus":"[A] option 1, [L] option 2, [G] neither","key_press":71,"name":"choice","trial_type":"html-keyboard-response","trial_index":32,"time_elapsed":70780,"internal_node_id":"0.0-32.0","subject":"S1C1614","sona":"41877","block":3,"time":"2021-09-15T19:28:52.433Z","response":"neither","certainty":"high","char":"G","transposition":0,"order":["shifted","swapped"],"probe_pitches":[1,3,1,4,5,-3,-2,2,-1,9,3,7,-3,4,3,4],"shifted_pitches":[1,3,1,4,5,-3,-2,2,0,9,3,7,-3,4,3,4],"swapped_pitches":[1,3,1,4,5,-3,-2,-1,2,9,3,7,-3,4,3,4],"shift_direction":1,"question_num":21,"has_decoy":false},{"rt":365.4000000357628,"stimulus":"[A] option 1, [L] option 2, [G] neither","key_press":76,"name":"choice","trial_type":"html-keyboard-response","trial_index":43,"time_elapsed":93169,"internal_node_id":"0.0-43.0","subject":"S1C1614","sona":"41877","block":3,"time":"2021-09-15T19:28:52.433Z","response":"2nd","certainty":"high","char":"L","transposition":1,"order":["swapped","shifted"],"probe_pitches":[5,4,9,1,5,2,5,0,4,-2,3,1,-2,7,1,4],"shifted_pitches":[5,4,9,1,5,2,5,-1,4,-2,3,1,-2,7,1,4],"swapped_pitches":[5,4,9,1,5,2,5,4,0,-2,3,1,-2,7,1,4],"shift_direction":-1,"question_num":31,"has_decoy":false},{"rt":1012.6000000238419,"stimulus":"[A] option 1, [L] option 2, [G] neither","key_press":76,"name":"choice","trial_type":"html-keyboard-response","trial_index":54,"time_elapsed":116840,"internal_node_id":"0.0-54.0","subject":"S1C1614","sona":"41877","block":3,"time":"2021-09-15T19:28:52.433Z","response":"2nd","certainty":"high","char":"L","transposition":-1,"order":["shifted","swapped"],"probe_pitches":[-3,3,9,8,2,-2,-3,6,5,0,4,9,8,1,-1,9],"shifted_pitches":[-3,3,9,8,2,-2,-3,7,5,0,4,9,8,1,-1,9],"swapped_pitches":[-3,3,9,8,2,-2,-3,5,6,0,4,9,8,1,-1,9],"shift_direction":1,"question_num":41,"has_decoy":false},{"rt":382.0999999642372,"stimulus":"[A] option 1, [L] option 2, [G] neither","key_press":65,"name":"choice","trial_type":"html-keyboard-response","trial_index":65,"time_elapsed":140284,"internal_node_id":"0.0-65.0","subject":"S1C1614","sona":"41877","block":3,"time":"2021-09-15T19:28:52.433Z","response":"1st","certainty":"high","char":"A","transposition":-1,"order":["shifted","swapped"],"probe_pitches":[2,4,-1,4,7,-3,-1,2,-3,9,7,-1,9,-1,7,9],"shifted_pitches":[2,4,-1,4,7,-3,-1,3,-3,9,7,-1,9,-1,7,9],"swapped_pitches":[2,4,-1,4,7,-3,-1,-3,2,9,7,-1,9,-1,7,9],"shift_direction":1,"question_num":51,"has_decoy":false},{"rt":447.2999999523163,"stimulus":"[A] option 1, [L] option 2, [G] neither","key_press":76,"name":"choice","trial_type":"html-keyboard-response","trial_index":76,"time_elapsed":163261,"internal_node_id":"0.0-76.0","subject":"S1C1614","sona":"41877","block":3,"time":"2021-09-15T19:28:52.433Z","response":"2nd","certainty":"high","char":"L","transposition":0,"order":["swapped","shifted"],"probe_pitches":[0,5,2,-3,5,9,2,7,-3,9,2,9,0,-3,2,9],"shifted_pitches":[0,5,2,-3,5,9,2,7,-2,9,2,9,0,-3,2,9],"swapped_pitches":[0,5,2,-3,5,9,2,-3,7,9,2,9,0,-3,2,9],"shift_direction":1,"question_num":61,"has_decoy":false},{"rt":520.1999999880791,"stimulus":"[A] option 1, [L] option 2, [G] neither","key_press":76,"name":"choice","trial_type":"html-keyboard-response","trial_index":87,"time_elapsed":186246,"internal_node_id":"0.0-87.0","subject":"S1C1614","sona":"41877","block":3,"time":"2021-09-15T19:28:52.433Z","response":"2nd","certainty":"high","char":"L","transposition":-2,"order":["swapped","shifted"],"probe_pitches":[5,4,1,-3,-2,1,8,0,5,9,8,1,7,8,7,2],"shifted_pitches":[5,4,1,-3,-2,1,8,0,6,9,8,1,7,8,7,2],"swapped_pitches":[5,4,1,-3,-2,1,8,5,0,9,8,1,7,8,7,2],"shift_direction":1,"question_num":71,"has_decoy":false},{"rt":1486.8999999761581,"stimulus":"[A] option 1, [L] option 2, [G] neither","key_press":76,"name":"choice","trial_type":"html-keyboard-response","trial_index":98,"time_elapsed":210173,"internal_node_id":"0.0-98.0","subject":"S1C1614","sona":"41877","block":3,"time":"2021-09-15T19:28:52.433Z","response":"2nd","certainty":"high","char":"L","transposition":-2,"order":["shifted","swapped"],"probe_pitches":[6,1,0,6,-1,8,2,6,3,0,7,-1,3,0,1,0],"shifted_pitches":[6,1,0,6,-1,8,2,5,3,0,7,-1,3,0,1,0],"swapped_pitches":[6,1,0,6,-1,8,2,3,6,0,7,-1,3,0,1,0],"shift_direction":-1,"question_num":81,"has_decoy":false},{"rt":2177.600000023842,"stimulus":"[A] option 1, [L] option 2, [G] neither","key_press":71,"name":"choice","trial_type":"html-keyboard-response","trial_index":109,"time_elapsed":235088,"internal_node_id":"0.0-109.0","subject":"S1C1614","sona":"41877","block":3,"time":"2021-09-15T19:28:52.433Z","response":"neither","certainty":"high","char":"G","transposition":-1,"order":["shifted","swapped"],"probe_pitches":[7,6,0,2,1,4,-2,1,4,6,-2,1,-2,-1,5,0],"shifted_pitches":[7,6,0,2,1,4,-2,1,3,6,-2,1,-2,-1,5,0],"swapped_pitches":[7,6,0,2,1,4,-2,4,1,6,-2,1,-2,-1,5,0],"shift_direction":-1,"question_num":91,"has_decoy":false},{"rt":1424.0999999642372,"stimulus":"[A] option 1, [L] option 2, [G] neither","key_press":71,"name":"choice","trial_type":"html-keyboard-response","trial_index":120,"time_elapsed":258969,"internal_node_id":"0.0-120.0","subject":"S1C1614","sona":"41877","block":3,"time":"2021-09-15T19:28:52.433Z","response":"neither","certainty":"high","char":"G","transposition":-3,"order":["swapped","shifted"],"probe_pitches":[9,4,7,4,9,4,-1,7,2,9,7,-1,4,9,-1,7],"shifted_pitches":[9,4,7,4,9,4,-1,6,2,9,7,-1,4,9,-1,7],"swapped_pitches":[9,4,7,4,9,4,-1,2,7,9,7,-1,4,9,-1,7],"shift_direction":-1,"question_num":101,"has_decoy":false},{"rt":482.5,"stimulus":"[A] option 1, [L] option 2, [G] neither","key_press":76,"name":"choice","trial_type":"html-keyboard-response","trial_index":131,"time_elapsed":284998,"internal_node_id":"0.0-131.0","subject":"S1C1614","sona":"41877","block":3,"time":"2021-09-15T19:28:52.433Z","response":"2nd","certainty":"high","char":"L","transposition":2,"order":["swapped","shifted"],"probe_pitches":[3,8,3,5,-1,8,6,2,3,-1,-3,5,7,2,3,2],"shifted_pitches":[3,8,3,5,-1,8,6,1,3,-1,-3,5,7,2,3,2],"swapped_pitches":[3,8,3,5,-1,8,6,3,2,-1,-3,5,7,2,3,2],"shift_direction":-1,"question_num":111,"has_decoy":false},{"rt":595.3000000119209,"stimulus":"[A] option 1, [L] option 2, [G] neither","key_press":65,"name":"choice","trial_type":"html-keyboard-response","trial_index":142,"time_elapsed":307628,"internal_node_id":"0.0-142.0","subject":"S1C1614","sona":"41877","block":3,"time":"2021-09-15T19:28:52.433Z","response":"1st","certainty":"high","char":"A","transposition":3,"order":["swapped","shifted"],"probe_pitches":[9,6,9,2,-1,4,6,2,4,-1,-3,-1,4,-3,4,2],"shifted_pitches":[9,6,9,2,-1,4,6,2,3,-1,-3,-1,4,-3,4,2],"swapped_pitches":[9,6,9,2,-1,4,6,4,2,-1,-3,-1,4,-3,4,2],"shift_direction":-1,"question_num":121,"has_decoy":false},{"rt":2585.5,"stimulus":"[A] option 1, [L] option 2, [G] neither","key_press":71,"name":"choice","trial_type":"html-keyboard-response","trial_index":153,"time_elapsed":332295,"internal_node_id":"0.0-153.0","subject":"S1C1614","sona":"41877","block":3,"time":"2021-09-15T19:28:52.433Z","response":"neither","certainty":"high","char":"G","transposition":-3,"order":["shifted","swapped"],"probe_pitches":[1,-3,4,-2,6,9,-1,0,1,-2,6,-3,0,3,-3,1],"shifted_pitches":[1,-3,4,-2,6,9,-1,0,2,-2,6,-3,0,3,-3,1],"swapped_pitches":[1,-3,4,-2,6,9,-1,1,0,-2,6,-3,0,3,-3,1],"shift_direction":1,"question_num":131,"has_decoy":false},{"rt":4198.699999988079,"stimulus":"[A] option 1, [L] option 2, [G] neither","key_press":71,"name":"choice","trial_type":"html-keyboard-response","trial_index":164,"time_elapsed":360020,"internal_node_id":"0.0-164.0","subject":"S1C1614","sona":"41877","block":3,"time":"2021-09-15T19:28:52.433Z","response":"neither","certainty":"high","char":"G","transposition":-2,"order":["shifted","swapped"],"probe_pitches":[2,4,0,7,9,0,7,2,4,7,0,9,-3,9,0,2],"shifted_pitches":[2,4,0,7,9,0,7,3,4,7,0,9,-3,9,0,2],"swapped_pitches":[2,4,0,7,9,0,7,4,2,7,0,9,-3,9,0,2],"shift_direction":1,"question_num":141,"has_decoy":false},{"rt":612.8999999761581,"stimulus":"[A] option 1, [L] option 2, [G] neither","key_press":76,"name":"choice","trial_type":"html-keyboard-response","trial_index":175,"time_elapsed":383506,"internal_node_id":"0.0-175.0","subject":"S1C1614","sona":"41877","block":3,"time":"2021-09-15T19:28:52.433Z","response":"2nd","certainty":"high","char":"L","transposition":-1,"order":["swapped","shifted"],"probe_pitches":[9,4,9,1,6,4,9,6,-1,1,6,-1,6,1,4,1],"shifted_pitches":[9,4,9,1,6,4,9,6,-2,1,6,-1,6,1,4,1],"swapped_pitches":[9,4,9,1,6,4,9,-1,6,1,6,-1,6,1,4,1],"shift_direction":-1,"question_num":151,"has_decoy":false},{"rt":974.3000000119209,"stimulus":"[A] option 1, [L] option 2, [G] neither","key_press":76,"name":"choice","trial_type":"html-keyboard-response","trial_index":186,"time_elapsed":406806,"internal_node_id":"0.0-186.0","subject":"S1C1614","sona":"41877","block":3,"time":"2021-09-15T19:28:52.433Z","response":"2nd","certainty":"high","char":"L","transposition":-3,"order":["shifted","swapped"],"probe_pitches":[7,2,9,4,-3,2,4,0,9,4,9,4,-3,7,-3,4],"shifted_pitches":[7,2,9,4,-3,2,4,0,8,4,9,4,-3,7,-3,4],"swapped_pitches":[7,2,9,4,-3,2,4,9,0,4,9,4,-3,7,-3,4],"shift_direction":-1,"question_num":161,"has_decoy":false},{"rt":3154.900000035763,"stimulus":"[A] option 1, [L] option 2, [G] neither","key_press":71,"name":"choice","trial_type":"html-keyboard-response","trial_index":197,"time_elapsed":432470,"internal_node_id":"0.0-197.0","subject":"S1C1614","sona":"41877","block":3,"time":"2021-09-15T19:28:52.433Z","response":"neither","certainty":"high","char":"G","transposition":-2,"order":["shifted","swapped"],"probe_pitches":[-3,2,0,5,-3,0,5,-3,9,2,7,2,0,2,9,-3],"shifted_pitches":[-3,2,0,5,-3,0,5,-2,9,2,7,2,0,2,9,-3],"swapped_pitches":[-3,2,0,5,-3,0,5,9,-3,2,7,2,0,2,9,-3],"shift_direction":1,"question_num":171,"has_decoy":false},{"rt":370.89999997615814,"stimulus":"[A] option 1, [L] option 2, [G] neither","key_press":65,"name":"choice","trial_type":"html-keyboard-response","trial_index":208,"time_elapsed":456165,"internal_node_id":"0.0-208.0","subject":"S1C1614","sona":"41877","block":3,"time":"2021-09-15T19:28:52.433Z","response":"1st","certainty":"high","char":"A","transposition":2,"order":["shifted","swapped"],"probe_pitches":[9,6,2,6,2,-1,9,6,2,9,2,-3,6,4,-3,-1],"shifted_pitches":[9,6,2,6,2,-1,9,6,3,9,2,-3,6,4,-3,-1],"swapped_pitches":[9,6,2,6,2,-1,9,2,6,9,2,-3,6,4,-3,-1],"shift_direction":1,"question_num":181,"has_decoy":false},{"rt":1446.1000000238419,"stimulus":"[A] option 1, [L] option 2, [G] neither","key_press":65,"name":"choice","trial_type":"html-keyboard-response","trial_index":219,"time_elapsed":480099,"internal_node_id":"0.0-219.0","subject":"S1C1614","sona":"41877","block":3,"time":"2021-09-15T19:28:52.433Z","response":"1st","certainty":"high","char":"A","transposition":-3,"order":["swapped","shifted"],"probe_pitches":[2,-1,2,0,3,9,8,3,6,-2,-3,8,-3,6,-3,1],"shifted_pitches":[2,-1,2,0,3,9,8,4,6,-2,-3,8,-3,6,-3,1],"swapped_pitches":[2,-1,2,0,3,9,8,6,3,-2,-3,8,-3,6,-3,1],"shift_direction":1,"question_num":191,"has_decoy":false}]