[{"rt":718.6999999880791,"stimulus":"[A] option 1, [L] option 2, [G] neither","key_press":76,"name":"choice","trial_type":"html-keyboard-response","trial_index":10,"time_elapsed":26497,"internal_node_id":"0.0-10.0","subject":"S1C1614","sona":"41877","block":2,"time":"2021-09-15T19:20:47.251Z","response":"2nd","certainty":"high","char":"L","transposition":3,"order":["swapped","shifted"],"probe_pitches":[6,4,6,13,8,4,8,11,6,8,1,13,11,13,11,1],"shifted_pitches":[6,4,6,13,8,4,8,12,6,8,1,13,11,13,11,1],"swapped_pitches":[6,4,6,13,8,4,8,6,11,8,1,13,11,13,11,1],"shift_direction":1,"question_num":1,"has_decoy":false},{"rt":1113.3999999761581,"stimulus":"[A] option 1, [L] option 2, [G] neither","key_press":76,"name":"choice","trial_type":"html-keyboard-response","trial_index":21,"time_elapsed":50626,"internal_node_id":"0.0-21.0","subject":"S1C1614","sona":"41877","block":2,"time":"2021-09-15T19:20:47.251Z","response":"2nd","certainty":"high","char":"L","transposition":-1,"order":["shifted","swapped"],"probe_pitches":[8,3,8,1,3,6,1,10,8,13,1,3,10,13,3,10],"shifted_pitches":[8,3,8,1,3,6,1,11,8,13,1,3,10,13,3,10],"swapped_pitches":[8,3,8,1,3,6,1,8,10,13,1,3,10,13,3,10],"shift_direction":1,"question_num":11,"has_decoy":false},{"rt":556.3000000119209,"stimulus":"[A] option 1, [L] option 2, [G] neither","key_press":65,"name":"choice","trial_type":"html-keyboard-response","trial_index":32,"time_elapsed":74314,"internal_node_id":"0.0-32.0","subject":"S1C1614","sona":"41877","block":2,"time":"2021-09-15T19:20:47.251Z","response":"1st","certainty":"high","char":"A","transposition":-1,"order":["shifted","swapped"],"probe_pitches":[9,4,-1,3,9,5,9,-1,4,1,8,0,6,9,-1,8],"shifted_pitches":[9,4,-1,3,9,5,9,-2,4,1,8,0,6,9,-1,8],"swapped_pitches":[9,4,-1,3,9,5,9,4,-1,1,8,0,6,9,-1,8],"shift_direction":-1,"question_num":21,"has_decoy":false},{"rt":393.5,"stimulus":"[A] option 1, [L] option 2, [G] neither","key_press":65,"name":"choice","trial_type":"html-keyboard-response","trial_index":43,"time_elapsed":96897,"internal_node_id":"0.0-43.0","subject":"S1C1614","sona":"41877","block":2,"time":"2021-09-15T19:20:47.251Z","response":"1st","certainty":"high","char":"A","transposition":0,"order":["shifted","swapped"],"probe_pitches":[4,6,4,9,6,1,9,6,4,11,6,1,4,11,4,6],"shifted_pitches":[4,6,4,9,6,1,9,6,3,11,6,1,4,11,4,6],"swapped_pitches":[4,6,4,9,6,1,9,4,6,11,6,1,4,11,4,6],"shift_direction":-1,"question_num":31,"has_decoy":false},{"rt":576.9000000357628,"stimulus":"[A] option 1, [L] option 2, [G] neither","key_press":65,"name":"choice","trial_type":"html-keyboard-response","trial_index":54,"time_elapsed":121251,"internal_node_id":"0.0-54.0","subject":"S1C1614","sona":"41877","block":2,"time":"2021-09-15T19:20:47.251Z","response":"1st","certainty":"high","char":"A","transposition":-2,"order":["shifted","swapped"],"probe_pitches":[1,5,8,10,3,10,13,5,10,8,3,5,3,13,3,8],"shifted_pitches":[1,5,8,10,3,10,13,5,9,8,3,5,3,13,3,8],"swapped_pitches":[1,5,8,10,3,10,13,10,5,8,3,5,3,13,3,8],"shift_direction":-1,"question_num":41,"has_decoy":false},{"rt":1748.300000011921,"stimulus":"[A] option 1, [L] option 2, [G] neither","key_press":71,"name":"choice","trial_type":"html-keyboard-response","trial_index":65,"time_elapsed":174464,"internal_node_id":"0.0-65.0","subject":"S1C1614","sona":"41877","block":2,"time":"2021-09-15T19:20:47.251Z","response":"neither","certainty":"high","char":"G","transposition":-3,"order":["swapped","shifted"],"probe_pitches":[1,7,3,5,7,3,5,-1,3,4,7,1,3,7,9,5],"shifted_pitches":[1,7,3,5,7,3,5,-1,2,4,7,1,3,7,9,5],"swapped_pitches":[1,7,3,5,7,3,5,3,-1,4,7,1,3,7,9,5],"shift_direction":-1,"question_num":51,"has_decoy":false},{"rt":1640.300000011921,"stimulus":"[A] option 1, [L] option 2, [G] neither","key_press":71,"name":"choice","trial_type":"html-keyboard-response","trial_index":76,"time_elapsed":199346,"internal_node_id":"0.0-76.0","subject":"S1C1614","sona":"41877","block":2,"time":"2021-09-15T19:20:47.251Z","response":"neither","certainty":"high","char":"G","transposition":1,"order":["swapped","shifted"],"probe_pitches":[2,4,6,1,4,5,2,9,5,6,1,-1,4,10,5,11],"shifted_pitches":[2,4,6,1,4,5,2,8,5,6,1,-1,4,10,5,11],"swapped_pitches":[2,4,6,1,4,5,2,5,9,6,1,-1,4,10,5,11],"shift_direction":-1,"question_num":61,"has_decoy":false},{"rt":1160.199999988079,"stimulus":"[A] option 1, [L] option 2, [G] neither","key_press":65,"name":"choice","trial_type":"html-keyboard-response","trial_index":87,"time_elapsed":223378,"internal_node_id":"0.0-87.0","subject":"S1C1614","sona":"41877","block":2,"time":"2021-09-15T19:20:47.251Z","response":"1st","certainty":"high","char":"A","transposition":2,"order":["shifted","swapped"],"probe_pitches":[9,3,1,0,3,8,-1,4,5,11,2,-1,4,3,0,4],"shifted_pitches":[9,3,1,0,3,8,-1,4,6,11,2,-1,4,3,0,4],"swapped_pitches":[9,3,1,0,3,8,-1,5,4,11,2,-1,4,3,0,4],"shift_direction":1,"question_num":71,"has_decoy":false},{"rt":860.8000000119209,"stimulus":"[A] option 1, [L] option 2, [G] neither","key_press":65,"name":"choice","trial_type":"html-keyboard-response","trial_index":98,"time_elapsed":246998,"internal_node_id":"0.0-98.0","subject":"S1C1614","sona":"41877","block":2,"time":"2021-09-15T19:20:47.251Z","response":"1st","certainty":"high","char":"A","transposition":-3,"order":["shifted","swapped"],"probe_pitches":[1,6,13,11,8,1,11,6,3,11,1,13,6,11,13,6],"shifted_pitches":[1,6,13,11,8,1,11,7,3,11,1,13,6,11,13,6],"swapped_pitches":[1,6,13,11,8,1,11,3,6,11,1,13,6,11,13,6],"shift_direction":1,"question_num":81,"has_decoy":false},{"rt":485.2999999523163,"stimulus":"[A] option 1, [L] option 2, [G] neither","key_press":76,"name":"choice","trial_type":"html-keyboard-response","trial_index":109,"time_elapsed":302457,"internal_node_id":"0.0-109.0","subject":"S1C1614","sona":"41877","block":2,"time":"2021-09-15T19:20:47.251Z","response":"2nd","certainty":"high","char":"L","transposition":1,"order":["swapped","shifted"],"probe_pitches":[13,10,8,3,8,5,8,3,1,8,10,1,5,3,13,5],"shifted_pitches":[13,10,8,3,8,5,8,2,1,8,10,1,5,3,13,5],"swapped_pitches":[13,10,8,3,8,5,8,1,3,8,10,1,5,3,13,5],"shift_direction":-1,"question_num":91,"has_decoy":false},{"rt":474.89999997615814,"stimulus":"[A] option 1, [L] option 2, [G] neither","key_press":76,"name":"choice","trial_type":"html-keyboard-response","trial_index":120,"time_elapsed":325460,"internal_node_id":"0.0-120.0","subject":"S1C1614","sona":"41877","block":2,"time":"2021-09-15T19:20:47.251Z","response":"2nd","certainty":"high","char":"L","transposition":-3,"order":["swapped","shifted"],"probe_pitches":[1,6,4,1,6,11,4,11,6,8,11,13,6,4,13,6],"shifted_pitches":[1,6,4,1,6,11,4,11,7,8,11,13,6,4,13,6],"swapped_pitches":[1,6,4,1,6,11,4,6,11,8,11,13,6,4,13,6],"shift_direction":1,"question_num":101,"has_decoy":false},{"rt":837.3000000119209,"stimulus":"[A] option 1, [L] option 2, [G] neither","key_press":76,"name":"choice","trial_type":"html-keyboard-response","trial_index":131,"time_elapsed":348702,"internal_node_id":"0.0-131.0","subject":"S1C1614","sona":"41877","block":2,"time":"2021-09-15T19:20:47.251Z","response":"2nd","certainty":"high","char":"L","transposition":-1,"order":["shifted","swapped"],"probe_pitches":[8,2,5,11,4,2,10,2,8,-1,2,3,7,-1,6,3],"shifted_pitches":[8,2,5,11,4,2,10,2,9,-1,2,3,7,-1,6,3],"swapped_pitches":[8,2,5,11,4,2,10,8,2,-1,2,3,7,-1,6,3],"shift_direction":1,"question_num":111,"has_decoy":false},{"rt":577.5999999642372,"stimulus":"[A] option 1, [L] option 2, [G] neither","key_press":65,"name":"choice","trial_type":"html-keyboard-response","trial_index":142,"time_elapsed":371328,"internal_node_id":"0.0-142.0","subject":"S1C1614","sona":"41877","block":2,"time":"2021-09-15T19:20:47.251Z","response":"1st","certainty":"high","char":"A","transposition":0,"order":["shifted","swapped"],"probe_pitches":[1,0,4,11,2,1,6,3,4,10,0,8,10,7,6,10],"shifted_pitches":[1,0,4,11,2,1,6,3,5,10,0,8,10,7,6,10],"swapped_pitches":[1,0,4,11,2,1,6,4,3,10,0,8,10,7,6,10],"shift_direction":1,"question_num":121,"has_decoy":false},{"rt":982.3000000119209,"stimulus":"[A] option 1, [L] option 2, [G] neither","key_press":65,"name":"choice","trial_type":"html-keyboard-response","trial_index":153,"time_elapsed":395541,"internal_node_id":"0.0-153.0","subject":"S1C1614","sona":"41877","block":2,"time":"2021-09-15T19:20:47.251Z","response":"1st","certainty":"high","char":"A","transposition":-2,"order":["swapped","shifted"],"probe_pitches":[6,1,6,8,13,6,8,11,3,13,1,13,8,1,6,3],"shifted_pitches":[6,1,6,8,13,6,8,12,3,13,1,13,8,1,6,3],"swapped_pitches":[6,1,6,8,13,6,8,3,11,13,1,13,8,1,6,3],"shift_direction":1,"question_num":131,"has_decoy":false},{"rt":494.89999997615814,"stimulus":"[A] option 1, [L] option 2, [G] neither","key_press":65,"name":"choice","trial_type":"html-keyboard-response","trial_index":164,"time_elapsed":421619,"internal_node_id":"0.0-164.0","subject":"S1C1614","sona":"41877","block":2,"time":"2021-09-15T19:20:47.251Z","response":"1st","certainty":"high","char":"A","transposition":-1,"order":["shifted","swapped"],"probe_pitches":[9,13,9,11,6,4,6,13,4,6,13,11,6,11,1,4],"shifted_pitches":[9,13,9,11,6,4,6,13,3,6,13,11,6,11,1,4],"swapped_pitches":[9,13,9,11,6,4,6,4,13,6,13,11,6,11,1,4],"shift_direction":-1,"question_num":141,"has_decoy":false},{"rt":1401.3999999761581,"stimulus":"[A] option 1, [L] option 2, [G] neither","key_press":71,"name":"choice","trial_type":"html-keyboard-response","trial_index":175,"time_elapsed":445367,"internal_node_id":"0.0-175.0","subject":"S1C1614","sona":"41877","block":2,"time":"2021-09-15T19:20:47.251Z","response":"neither","certainty":"high","char":"G","transposition":3,"order":["swapped","shifted"],"probe_pitches":[8,4,9,1,10,0,4,8,-1,0,6,10,11,6,9,0],"shifted_pitches":[8,4,9,1,10,0,4,7,-1,0,6,10,11,6,9,0],"swapped_pitches":[8,4,9,1,10,0,4,-1,8,0,6,10,11,6,9,0],"shift_direction":-1,"question_num":151,"has_decoy":false},{"rt":1271,"stimulus":"[A] option 1, [L] option 2, [G] neither","key_press":71,"name":"choice","trial_type":"html-keyboard-response","trial_index":186,"time_elapsed":469296,"internal_node_id":"0.0-186.0","subject":"S1C1614","sona":"41877","block":2,"time":"2021-09-15T19:20:47.251Z","response":"neither","certainty":"high","char":"G","transposition":-3,"order":["swapped","shifted"],"probe_pitches":[5,7,1,4,9,4,5,2,8,-1,2,1,4,7,4,11],"shifted_pitches":[5,7,1,4,9,4,5,3,8,-1,2,1,4,7,4,11],"swapped_pitches":[5,7,1,4,9,4,5,8,2,-1,2,1,4,7,4,11],"shift_direction":1,"question_num":161,"has_decoy":false},{"rt":1209,"stimulus":"[A] option 1, [L] option 2, [G] neither","key_press":71,"name":"choice","trial_type":"html-keyboard-response","trial_index":197,"time_elapsed":493996,"internal_node_id":"0.0-197.0","subject":"S1C1614","sona":"41877","block":2,"time":"2021-09-15T19:20:47.251Z","response":"neither","certainty":"high","char":"G","transposition":-2,"order":["swapped","shifted"],"probe_pitches":[-1,2,7,1,9,1,7,-1,5,9,1,7,8,0,1,8],"shifted_pitches":[-1,2,7,1,9,1,7,-1,4,9,1,7,8,0,1,8],"swapped_pitches":[-1,2,7,1,9,1,7,5,-1,9,1,7,8,0,1,8],"shift_direction":-1,"question_num":171,"has_decoy":false},{"rt":2936.300000011921,"stimulus":"[A] option 1, [L] option 2, [G] neither","key_press":71,"name":"choice","trial_type":"html-keyboard-response","trial_index":208,"time_elapsed":519819,"internal_node_id":"0.0-208.0","subject":"S1C1614","sona":"41877","block":2,"time":"2021-09-15T19:20:47.251Z","response":"neither","certainty":"high","char":"G","transposition":-2,"order":["shifted","swapped"],"probe_pitches":[11,9,3,9,0,-1,4,0,9,7,0,5,7,3,8,11],"shifted_pitches":[11,9,3,9,0,-1,4,1,9,7,0,5,7,3,8,11],"swapped_pitches":[11,9,3,9,0,-1,4,9,0,7,0,5,7,3,8,11],"shift_direction":1,"question_num":181,"has_decoy":false},{"rt":384.0999999642372,"stimulus":"[A] option 1, [L] option 2, [G] neither","key_press":65,"name":"choice","trial_type":"html-keyboard-response","trial_index":219,"time_elapsed":543150,"internal_node_id":"0.0-219.0","subject":"S1C1614","sona":"41877","block":2,"time":"2021-09-15T19:20:47.251Z","response":"1st","certainty":"high","char":"A","transposition":2,"order":["swapped","shifted"],"probe_pitches":[8,3,1,3,8,10,13,1,6,13,8,6,13,8,10,13],"shifted_pitches":[8,3,1,3,8,10,13,1,5,13,8,6,13,8,10,13],"swapped_pitches":[8,3,1,3,8,10,13,6,1,13,8,6,13,8,10,13],"shift_direction":-1,"question_num":191,"has_decoy":false}]