[{"rt":14834.699999988079,"stimulus":"[A] option 1, [L] option 2, [G] neither","key_press":65,"name":"choice","trial_type":"html-keyboard-response","trial_index":15,"time_elapsed":135403,"internal_node_id":"0.0-15.0","response":"1st","certainty":"high","char":"A","transposition":-1,"order":["shifted","swapped"],"probe_pitches":[4,1,-3,1,-1,4,-3,6,9,-3,6,1,4,9,6,1],"shifted_pitches":[4,1,-3,1,-1,4,-3,6,10,-3,6,1,4,9,6,1],"swapped_pitches":[4,1,-3,1,-1,4,-3,9,6,-3,6,1,4,9,6,1],"shift_direction":1,"question_num":1,"has_decoy":false,"subject":"S1C1675","sona":"41576","block":1,"time":"2021-09-27T23:42:42.011Z"},{"rt":4296.4000000059605,"stimulus":"[A] option 1, [L] option 2, [G] neither","key_press":76,"name":"choice","trial_type":"html-keyboard-response","trial_index":26,"time_elapsed":164145,"internal_node_id":"0.0-26.0","response":"2nd","certainty":"high","char":"L","transposition":1,"order":["swapped","shifted"],"probe_pitches":[-1,0,6,9,11,7,-1,3,1,4,1,0,8,0,7,0],"shifted_pitches":[-1,0,6,9,11,7,-1,2,1,4,1,0,8,0,7,0],"swapped_pitches":[-1,0,6,9,11,7,-1,1,3,4,1,0,8,0,7,0],"shift_direction":-1,"question_num":11,"has_decoy":false,"subject":"S1C1675","sona":"41576","block":1,"time":"2021-09-27T23:42:42.011Z"},{"rt":1402.3999999761581,"stimulus":"[A] option 1, [L] option 2, [G] neither","key_press":76,"name":"choice","trial_type":"html-keyboard-response","trial_index":37,"time_elapsed":189469,"internal_node_id":"0.0-37.0","response":"2nd","certainty":"high","char":"L","transposition":-3,"order":["shifted","swapped"],"probe_pitches":[-3,-1,6,9,1,-1,4,-3,9,1,-3,6,-3,-1,-3,-1],"shifted_pitches":[-3,-1,6,9,1,-1,4,-3,8,1,-3,6,-3,-1,-3,-1],"swapped_pitches":[-3,-1,6,9,1,-1,4,9,-3,1,-3,6,-3,-1,-3,-1],"shift_direction":-1,"question_num":21,"has_decoy":false,"subject":"S1C1675","sona":"41576","block":1,"time":"2021-09-27T23:42:42.011Z"},{"rt":1347.199999988079,"stimulus":"[A] option 1, [L] option 2, [G] neither","key_press":65,"name":"choice","trial_type":"html-keyboard-response","trial_index":48,"time_elapsed":213722,"internal_node_id":"0.0-48.0","response":"1st","certainty":"high","char":"A","transposition":-1,"order":["swapped","shifted"],"probe_pitches":[-3,0,4,2,7,0,7,9,2,0,9,2,0,4,0,-3],"shifted_pitches":[-3,0,4,2,7,0,7,10,2,0,9,2,0,4,0,-3],"swapped_pitches":[-3,0,4,2,7,0,7,2,9,0,9,2,0,4,0,-3],"shift_direction":1,"question_num":31,"has_decoy":false,"subject":"S1C1675","sona":"41576","block":1,"time":"2021-09-27T23:42:42.011Z"},{"rt":1210.0999999940395,"stimulus":"[A] option 1, [L] option 2, [G] neither","key_press":76,"name":"choice","trial_type":"html-keyboard-response","trial_index":59,"time_elapsed":249650,"internal_node_id":"0.0-59.0","response":"2nd","certainty":"high","char":"L","transposition":-1,"order":["shifted","swapped"],"probe_pitches":[0,4,6,1,7,0,11,2,6,11,6,0,10,1,2,8],"shifted_pitches":[0,4,6,1,7,0,11,3,6,11,6,0,10,1,2,8],"swapped_pitches":[0,4,6,1,7,0,11,6,2,11,6,0,10,1,2,8],"shift_direction":1,"question_num":41,"has_decoy":false,"subject":"S1C1675","sona":"41576","block":1,"time":"2021-09-27T23:42:42.011Z"},{"rt":1569.9000000059605,"stimulus":"[A] option 1, [L] option 2, [G] neither","key_press":71,"name":"choice","trial_type":"html-keyboard-response","trial_index":70,"time_elapsed":274856,"internal_node_id":"0.0-70.0","response":"neither","certainty":"high","char":"G","transposition":3,"order":["shifted","swapped"],"probe_pitches":[0,2,1,-1,6,9,-1,7,9,3,-1,11,9,3,6,5],"shifted_pitches":[0,2,1,-1,6,9,-1,8,9,3,-1,11,9,3,6,5],"swapped_pitches":[0,2,1,-1,6,9,-1,9,7,3,-1,11,9,3,6,5],"shift_direction":1,"question_num":51,"has_decoy":false,"subject":"S1C1675","sona":"41576","block":1,"time":"2021-09-27T23:42:42.011Z"},{"rt":941.5999999940395,"stimulus":"[A] option 1, [L] option 2, [G] neither","key_press":76,"name":"choice","trial_type":"html-keyboard-response","trial_index":81,"time_elapsed":298717,"internal_node_id":"0.0-81.0","response":"2nd","certainty":"high","char":"L","transposition":3,"order":["swapped","shifted"],"probe_pitches":[9,4,-3,-1,6,-3,2,4,6,-1,4,-3,2,9,-3,6],"shifted_pitches":[9,4,-3,-1,6,-3,2,5,6,-1,4,-3,2,9,-3,6],"swapped_pitches":[9,4,-3,-1,6,-3,2,6,4,-1,4,-3,2,9,-3,6],"shift_direction":1,"question_num":61,"has_decoy":false,"subject":"S1C1675","sona":"41576","block":1,"time":"2021-09-27T23:42:42.011Z"},{"rt":921.6999999880791,"stimulus":"[A] option 1, [L] option 2, [G] neither","key_press":76,"name":"choice","trial_type":"html-keyboard-response","trial_index":92,"time_elapsed":322484,"internal_node_id":"0.0-92.0","response":"2nd","certainty":"high","char":"L","transposition":-2,"order":["swapped","shifted"],"probe_pitches":[0,5,4,5,7,10,3,8,5,2,0,-1,2,3,2,7],"shifted_pitches":[0,5,4,5,7,10,3,9,5,2,0,-1,2,3,2,7],"swapped_pitches":[0,5,4,5,7,10,3,5,8,2,0,-1,2,3,2,7],"shift_direction":1,"question_num":71,"has_decoy":false,"subject":"S1C1675","sona":"41576","block":1,"time":"2021-09-27T23:42:42.011Z"},{"rt":1731.5,"stimulus":"[A] option 1, [L] option 2, [G] neither","key_press":71,"name":"choice","trial_type":"html-keyboard-response","trial_index":103,"time_elapsed":347371,"internal_node_id":"0.0-103.0","response":"neither","certainty":"high","char":"G","transposition":-3,"order":["shifted","swapped"],"probe_pitches":[8,11,9,7,11,4,11,2,6,4,3,2,1,4,-1,1],"shifted_pitches":[8,11,9,7,11,4,11,2,5,4,3,2,1,4,-1,1],"swapped_pitches":[8,11,9,7,11,4,11,6,2,4,3,2,1,4,-1,1],"shift_direction":-1,"question_num":81,"has_decoy":false,"subject":"S1C1675","sona":"41576","block":1,"time":"2021-09-27T23:42:42.011Z"},{"rt":1394.2999999821186,"stimulus":"[A] option 1, [L] option 2, [G] neither","key_press":65,"name":"choice","trial_type":"html-keyboard-response","trial_index":114,"time_elapsed":371950,"internal_node_id":"0.0-114.0","response":"1st","certainty":"high","char":"A","transposition":-2,"order":["swapped","shifted"],"probe_pitches":[9,7,0,7,2,5,9,5,2,-3,9,2,5,7,5,7],"shifted_pitches":[9,7,0,7,2,5,9,4,2,-3,9,2,5,7,5,7],"swapped_pitches":[9,7,0,7,2,5,9,2,5,-3,9,2,5,7,5,7],"shift_direction":-1,"question_num":91,"has_decoy":false,"subject":"S1C1675","sona":"41576","block":1,"time":"2021-09-27T23:42:42.011Z"},{"rt":2861.2999999821186,"stimulus":"[A] option 1, [L] option 2, [G] neither","key_press":65,"name":"choice","trial_type":"html-keyboard-response","trial_index":125,"time_elapsed":397575,"internal_node_id":"0.0-125.0","response":"1st","certainty":"high","char":"A","transposition":-3,"order":["swapped","shifted"],"probe_pitches":[2,4,9,7,-1,-3,-1,7,9,-3,9,-3,4,-3,2,9],"shifted_pitches":[2,4,9,7,-1,-3,-1,6,9,-3,9,-3,4,-3,2,9],"swapped_pitches":[2,4,9,7,-1,-3,-1,9,7,-3,9,-3,4,-3,2,9],"shift_direction":-1,"question_num":101,"has_decoy":false,"subject":"S1C1675","sona":"41576","block":1,"time":"2021-09-27T23:42:42.011Z"},{"rt":2096.4000000059605,"stimulus":"[A] option 1, [L] option 2, [G] neither","key_press":76,"name":"choice","trial_type":"html-keyboard-response","trial_index":136,"time_elapsed":422398,"internal_node_id":"0.0-136.0","response":"2nd","certainty":"high","char":"L","transposition":2,"order":["shifted","swapped"],"probe_pitches":[4,6,2,4,-3,6,2,-3,-1,6,-1,-3,2,9,4,-1],"shifted_pitches":[4,6,2,4,-3,6,2,-3,-2,6,-1,-3,2,9,4,-1],"swapped_pitches":[4,6,2,4,-3,6,2,-1,-3,6,-1,-3,2,9,4,-1],"shift_direction":-1,"question_num":111,"has_decoy":false,"subject":"S1C1675","sona":"41576","block":1,"time":"2021-09-27T23:42:42.011Z"},{"rt":796.6999999880791,"stimulus":"[A] option 1, [L] option 2, [G] neither","key_press":76,"name":"choice","trial_type":"html-keyboard-response","trial_index":147,"time_elapsed":448818,"internal_node_id":"0.0-147.0","response":"2nd","certainty":"high","char":"L","transposition":-2,"order":["shifted","swapped"],"probe_pitches":[2,7,0,-3,2,9,5,7,-3,0,5,2,0,-3,7,-3],"shifted_pitches":[2,7,0,-3,2,9,5,7,-2,0,5,2,0,-3,7,-3],"swapped_pitches":[2,7,0,-3,2,9,5,-3,7,0,5,2,0,-3,7,-3],"shift_direction":1,"question_num":121,"has_decoy":false,"subject":"S1C1675","sona":"41576","block":1,"time":"2021-09-27T23:42:42.011Z"},{"rt":1587,"stimulus":"[A] option 1, [L] option 2, [G] neither","key_press":71,"name":"choice","trial_type":"html-keyboard-response","trial_index":158,"time_elapsed":473436,"internal_node_id":"0.0-158.0","response":"neither","certainty":"high","char":"G","transposition":0,"order":["shifted","swapped"],"probe_pitches":[9,4,-3,2,7,0,2,7,0,9,2,0,2,9,7,9],"shifted_pitches":[9,4,-3,2,7,0,2,7,1,9,2,0,2,9,7,9],"swapped_pitches":[9,4,-3,2,7,0,2,0,7,9,2,0,2,9,7,9],"shift_direction":1,"question_num":131,"has_decoy":false,"subject":"S1C1675","sona":"41576","block":1,"time":"2021-09-27T23:42:42.011Z"},{"rt":538.4000000059605,"stimulus":"[A] option 1, [L] option 2, [G] neither","key_press":76,"name":"choice","trial_type":"html-keyboard-response","trial_index":169,"time_elapsed":497270,"internal_node_id":"0.0-169.0","response":"2nd","certainty":"high","char":"L","transposition":-2,"order":["swapped","shifted"],"probe_pitches":[11,8,11,9,4,11,7,8,2,11,10,2,6,5,-1,9],"shifted_pitches":[11,8,11,9,4,11,7,8,1,11,10,2,6,5,-1,9],"swapped_pitches":[11,8,11,9,4,11,7,2,8,11,10,2,6,5,-1,9],"shift_direction":-1,"question_num":141,"has_decoy":false,"subject":"S1C1675","sona":"41576","block":1,"time":"2021-09-27T23:42:42.011Z"},{"rt":426,"stimulus":"[A] option 1, [L] option 2, [G] neither","key_press":65,"name":"choice","trial_type":"html-keyboard-response","trial_index":180,"time_elapsed":521123,"internal_node_id":"0.0-180.0","response":"1st","certainty":"high","char":"A","transposition":1,"order":["swapped","shifted"],"probe_pitches":[4,9,2,9,7,-1,4,-1,2,-3,-1,4,2,7,4,7],"shifted_pitches":[4,9,2,9,7,-1,4,-2,2,-3,-1,4,2,7,4,7],"swapped_pitches":[4,9,2,9,7,-1,4,2,-1,-3,-1,4,2,7,4,7],"shift_direction":-1,"question_num":151,"has_decoy":false,"subject":"S1C1675","sona":"41576","block":1,"time":"2021-09-27T23:42:42.011Z"},{"rt":1442.5999999940395,"stimulus":"[A] option 1, [L] option 2, [G] neither","key_press":71,"name":"choice","trial_type":"html-keyboard-response","trial_index":191,"time_elapsed":545950,"internal_node_id":"0.0-191.0","response":"neither","certainty":"high","char":"G","transposition":0,"order":["swapped","shifted"],"probe_pitches":[9,8,1,0,-1,8,5,9,7,3,-1,2,3,4,11,4],"shifted_pitches":[9,8,1,0,-1,8,5,9,6,3,-1,2,3,4,11,4],"swapped_pitches":[9,8,1,0,-1,8,5,7,9,3,-1,2,3,4,11,4],"shift_direction":-1,"question_num":161,"has_decoy":false,"subject":"S1C1675","sona":"41576","block":1,"time":"2021-09-27T23:42:42.011Z"},{"rt":2338,"stimulus":"[A] option 1, [L] option 2, [G] neither","key_press":65,"name":"choice","trial_type":"html-keyboard-response","trial_index":202,"time_elapsed":572658,"internal_node_id":"0.0-202.0","response":"1st","certainty":"high","char":"A","transposition":-3,"order":["shifted","swapped"],"probe_pitches":[10,6,2,4,3,0,6,8,10,0,1,0,2,0,1,0],"shifted_pitches":[10,6,2,4,3,0,6,7,10,0,1,0,2,0,1,0],"swapped_pitches":[10,6,2,4,3,0,6,10,8,0,1,0,2,0,1,0],"shift_direction":-1,"question_num":171,"has_decoy":false,"subject":"S1C1675","sona":"41576","block":1,"time":"2021-09-27T23:42:42.011Z"},{"rt":2185.7000000178814,"stimulus":"[A] option 1, [L] option 2, [G] neither","key_press":71,"name":"choice","trial_type":"html-keyboard-response","trial_index":213,"time_elapsed":597367,"internal_node_id":"0.0-213.0","response":"neither","certainty":"high","char":"G","transposition":-1,"order":["swapped","shifted"],"probe_pitches":[5,2,-1,7,2,6,-1,0,9,8,7,0,11,9,1,4],"shifted_pitches":[5,2,-1,7,2,6,-1,0,10,8,7,0,11,9,1,4],"swapped_pitches":[5,2,-1,7,2,6,-1,9,0,8,7,0,11,9,1,4],"shift_direction":1,"question_num":181,"has_decoy":false,"subject":"S1C1675","sona":"41576","block":1,"time":"2021-09-27T23:42:42.011Z"},{"rt":5070.899999976158,"stimulus":"[A] option 1, [L] option 2, [G] neither","key_press":65,"name":"choice","trial_type":"html-keyboard-response","trial_index":224,"time_elapsed":625348,"internal_node_id":"0.0-224.0","response":"1st","certainty":"high","char":"A","transposition":2,"order":["shifted","swapped"],"probe_pitches":[7,9,3,10,2,-1,8,6,3,1,9,7,0,7,6,11],"shifted_pitches":[7,9,3,10,2,-1,8,6,4,1,9,7,0,7,6,11],"swapped_pitches":[7,9,3,10,2,-1,8,3,6,1,9,7,0,7,6,11],"shift_direction":1,"question_num":191,"has_decoy":false,"subject":"S1C1675","sona":"41576","block":1,"time":"2021-09-27T23:42:42.011Z"}]