[{"rt":314.89999997615814,"stimulus":"[A] option 1, [L] option 2, [G] neither","key_press":76,"name":"choice","trial_type":"html-keyboard-response","trial_index":10,"time_elapsed":25094,"internal_node_id":"0.0-10.0","subject":"S1C1675","sona":"41576","block":3,"time":"2021-09-27T23:59:40.080Z","response":"2nd","certainty":"high","char":"L","transposition":1,"order":["swapped","shifted"],"probe_pitches":[-3,2,7,2,0,-3,4,0,2,4,2,0,2,-3,9,4],"shifted_pitches":[-3,2,7,2,0,-3,4,-1,2,4,2,0,2,-3,9,4],"swapped_pitches":[-3,2,7,2,0,-3,4,2,0,4,2,0,2,-3,9,4],"shift_direction":-1,"question_num":1,"has_decoy":false},{"rt":674.4000000059605,"stimulus":"[A] option 1, [L] option 2, [G] neither","key_press":65,"name":"choice","trial_type":"html-keyboard-response","trial_index":21,"time_elapsed":48099,"internal_node_id":"0.0-21.0","subject":"S1C1675","sona":"41576","block":3,"time":"2021-09-27T23:59:40.080Z","response":"1st","certainty":"high","char":"A","transposition":-1,"order":["shifted","swapped"],"probe_pitches":[3,8,12,11,3,10,5,3,9,4,8,6,12,5,11,7],"shifted_pitches":[3,8,12,11,3,10,5,2,9,4,8,6,12,5,11,7],"swapped_pitches":[3,8,12,11,3,10,5,9,3,4,8,6,12,5,11,7],"shift_direction":-1,"question_num":11,"has_decoy":false},{"rt":915.3999999761581,"stimulus":"[A] option 1, [L] option 2, [G] neither","key_press":76,"name":"choice","trial_type":"html-keyboard-response","trial_index":32,"time_elapsed":72202,"internal_node_id":"0.0-32.0","subject":"S1C1675","sona":"41576","block":3,"time":"2021-09-27T23:59:40.080Z","response":"2nd","certainty":"high","char":"L","transposition":0,"order":["shifted","swapped"],"probe_pitches":[-1,4,-1,7,2,4,-1,-3,9,7,4,9,7,9,2,4],"shifted_pitches":[-1,4,-1,7,2,4,-1,-2,9,7,4,9,7,9,2,4],"swapped_pitches":[-1,4,-1,7,2,4,-1,9,-3,7,4,9,7,9,2,4],"shift_direction":1,"question_num":21,"has_decoy":false},{"rt":292.09999999403954,"stimulus":"[A] option 1, [L] option 2, [G] neither","key_press":76,"name":"choice","trial_type":"html-keyboard-response","trial_index":43,"time_elapsed":96263,"internal_node_id":"0.0-43.0","subject":"S1C1675","sona":"41576","block":3,"time":"2021-09-27T23:59:40.080Z","response":"2nd","certainty":"high","char":"L","transposition":-2,"order":["swapped","shifted"],"probe_pitches":[9,10,12,10,5,8,12,10,14,3,10,9,13,8,13,8],"shifted_pitches":[9,10,12,10,5,8,12,11,14,3,10,9,13,8,13,8],"swapped_pitches":[9,10,12,10,5,8,12,14,10,3,10,9,13,8,13,8],"shift_direction":1,"question_num":31,"has_decoy":false},{"rt":46.599999994039536,"stimulus":"[A] option 1, [L] option 2, [G] neither","key_press":65,"name":"choice","trial_type":"html-keyboard-response","trial_index":54,"time_elapsed":120204,"internal_node_id":"0.0-54.0","subject":"S1C1675","sona":"41576","block":3,"time":"2021-09-27T23:59:40.080Z","response":"1st","certainty":"high","char":"A","transposition":-2,"order":["shifted","swapped"],"probe_pitches":[-1,4,2,-3,2,-3,4,-3,2,-1,7,9,4,-1,7,-3],"shifted_pitches":[-1,4,2,-3,2,-3,4,-3,3,-1,7,9,4,-1,7,-3],"swapped_pitches":[-1,4,2,-3,2,-3,4,2,-3,-1,7,9,4,-1,7,-3],"shift_direction":1,"question_num":41,"has_decoy":false},{"rt":1379.0999999940395,"stimulus":"[A] option 1, [L] option 2, [G] neither","key_press":76,"name":"choice","trial_type":"html-keyboard-response","trial_index":65,"time_elapsed":144015,"internal_node_id":"0.0-65.0","subject":"S1C1675","sona":"41576","block":3,"time":"2021-09-27T23:59:40.080Z","response":"2nd","certainty":"high","char":"L","transposition":3,"order":["swapped","shifted"],"probe_pitches":[7,10,11,8,13,4,12,13,5,11,8,3,5,7,14,4],"shifted_pitches":[7,10,11,8,13,4,12,13,6,11,8,3,5,7,14,4],"swapped_pitches":[7,10,11,8,13,4,12,5,13,11,8,3,5,7,14,4],"shift_direction":1,"question_num":51,"has_decoy":false},{"rt":3143.9000000059605,"stimulus":"[A] option 1, [L] option 2, [G] neither","key_press":65,"name":"choice","trial_type":"html-keyboard-response","trial_index":76,"time_elapsed":170377,"internal_node_id":"0.0-76.0","subject":"S1C1675","sona":"41576","block":3,"time":"2021-09-27T23:59:40.080Z","response":"1st","certainty":"high","char":"A","transposition":2,"order":["swapped","shifted"],"probe_pitches":[6,8,9,3,8,7,14,10,12,14,9,8,12,10,5,7],"shifted_pitches":[6,8,9,3,8,7,14,10,13,14,9,8,12,10,5,7],"swapped_pitches":[6,8,9,3,8,7,14,12,10,14,9,8,12,10,5,7],"shift_direction":1,"question_num":61,"has_decoy":false},{"rt":309.59999999403954,"stimulus":"[A] option 1, [L] option 2, [G] neither","key_press":76,"name":"choice","trial_type":"html-keyboard-response","trial_index":87,"time_elapsed":193693,"internal_node_id":"0.0-87.0","subject":"S1C1675","sona":"41576","block":3,"time":"2021-09-27T23:59:40.080Z","response":"2nd","certainty":"high","char":"L","transposition":-1,"order":["swapped","shifted"],"probe_pitches":[4,6,1,6,4,-1,-3,4,1,-1,-3,4,1,-3,6,-1],"shifted_pitches":[4,6,1,6,4,-1,-3,5,1,-1,-3,4,1,-3,6,-1],"swapped_pitches":[4,6,1,6,4,-1,-3,1,4,-1,-3,4,1,-3,6,-1],"shift_direction":1,"question_num":71,"has_decoy":false},{"rt":1368.5,"stimulus":"[A] option 1, [L] option 2, [G] neither","key_press":65,"name":"choice","trial_type":"html-keyboard-response","trial_index":98,"time_elapsed":217386,"internal_node_id":"0.0-98.0","subject":"S1C1675","sona":"41576","block":3,"time":"2021-09-27T23:59:40.080Z","response":"1st","certainty":"high","char":"A","transposition":-3,"order":["shifted","swapped"],"probe_pitches":[14,9,7,6,11,13,11,12,9,10,14,12,14,10,15,11],"shifted_pitches":[14,9,7,6,11,13,11,12,8,10,14,12,14,10,15,11],"swapped_pitches":[14,9,7,6,11,13,11,9,12,10,14,12,14,10,15,11],"shift_direction":-1,"question_num":81,"has_decoy":false},{"rt":2585.5,"stimulus":"[A] option 1, [L] option 2, [G] neither","key_press":65,"name":"choice","trial_type":"html-keyboard-response","trial_index":109,"time_elapsed":244608,"internal_node_id":"0.0-109.0","subject":"S1C1675","sona":"41576","block":3,"time":"2021-09-27T23:59:40.080Z","response":"1st","certainty":"high","char":"A","transposition":-1,"order":["shifted","swapped"],"probe_pitches":[7,3,10,6,7,5,14,10,4,15,12,14,11,7,3,6],"shifted_pitches":[7,3,10,6,7,5,14,9,4,15,12,14,11,7,3,6],"swapped_pitches":[7,3,10,6,7,5,14,4,10,15,12,14,11,7,3,6],"shift_direction":-1,"question_num":91,"has_decoy":false},{"rt":295.30000001192093,"stimulus":"[A] option 1, [L] option 2, [G] neither","key_press":76,"name":"choice","trial_type":"html-keyboard-response","trial_index":120,"time_elapsed":269348,"internal_node_id":"0.0-120.0","subject":"S1C1675","sona":"41576","block":3,"time":"2021-09-27T23:59:40.080Z","response":"2nd","certainty":"high","char":"L","transposition":1,"order":["swapped","shifted"],"probe_pitches":[3,6,11,6,4,14,11,9,4,3,8,11,13,4,11,13],"shifted_pitches":[3,6,11,6,4,14,11,10,4,3,8,11,13,4,11,13],"swapped_pitches":[3,6,11,6,4,14,11,4,9,3,8,11,13,4,11,13],"shift_direction":1,"question_num":101,"has_decoy":false},{"rt":1816.800000011921,"stimulus":"[A] option 1, [L] option 2, [G] neither","key_press":65,"name":"choice","trial_type":"html-keyboard-response","trial_index":131,"time_elapsed":294083,"internal_node_id":"0.0-131.0","subject":"S1C1675","sona":"41576","block":3,"time":"2021-09-27T23:59:40.080Z","response":"1st","certainty":"high","char":"A","transposition":0,"order":["shifted","swapped"],"probe_pitches":[13,9,11,7,6,10,5,3,13,4,3,15,11,4,6,4],"shifted_pitches":[13,9,11,7,6,10,5,3,12,4,3,15,11,4,6,4],"swapped_pitches":[13,9,11,7,6,10,5,13,3,4,3,15,11,4,6,4],"shift_direction":-1,"question_num":111,"has_decoy":false},{"rt":259.2000000178814,"stimulus":"[A] option 1, [L] option 2, [G] neither","key_press":71,"name":"choice","trial_type":"html-keyboard-response","trial_index":142,"time_elapsed":317199,"internal_node_id":"0.0-142.0","subject":"S1C1675","sona":"41576","block":3,"time":"2021-09-27T23:59:40.080Z","response":"neither","certainty":"high","char":"G","transposition":-1,"order":["swapped","shifted"],"probe_pitches":[4,1,6,1,4,9,1,-1,9,1,9,-1,9,1,-3,9],"shifted_pitches":[4,1,6,1,4,9,1,-2,9,1,9,-1,9,1,-3,9],"swapped_pitches":[4,1,6,1,4,9,1,9,-1,1,9,-1,9,1,-3,9],"shift_direction":-1,"question_num":121,"has_decoy":false},{"rt":349.5,"stimulus":"[A] option 1, [L] option 2, [G] neither","key_press":65,"name":"choice","trial_type":"html-keyboard-response","trial_index":153,"time_elapsed":339906,"internal_node_id":"0.0-153.0","subject":"S1C1675","sona":"41576","block":3,"time":"2021-09-27T23:59:40.080Z","response":"1st","certainty":"high","char":"A","transposition":-2,"order":["shifted","swapped"],"probe_pitches":[7,9,4,-3,2,-3,4,7,-3,9,-3,2,0,4,0,9],"shifted_pitches":[7,9,4,-3,2,-3,4,7,-4,9,-3,2,0,4,0,9],"swapped_pitches":[7,9,4,-3,2,-3,4,-3,7,9,-3,2,0,4,0,9],"shift_direction":-1,"question_num":131,"has_decoy":false},{"rt":3529.699999988079,"stimulus":"[A] option 1, [L] option 2, [G] neither","key_press":65,"name":"choice","trial_type":"html-keyboard-response","trial_index":164,"time_elapsed":366149,"internal_node_id":"0.0-164.0","subject":"S1C1675","sona":"41576","block":3,"time":"2021-09-27T23:59:40.080Z","response":"1st","certainty":"high","char":"A","transposition":-2,"order":["shifted","swapped"],"probe_pitches":[5,6,11,15,11,8,11,6,8,4,9,11,4,10,9,4],"shifted_pitches":[5,6,11,15,11,8,11,7,8,4,9,11,4,10,9,4],"swapped_pitches":[5,6,11,15,11,8,11,8,6,4,9,11,4,10,9,4],"shift_direction":1,"question_num":141,"has_decoy":false},{"rt":1052.4000000059605,"stimulus":"[A] option 1, [L] option 2, [G] neither","key_press":65,"name":"choice","trial_type":"html-keyboard-response","trial_index":175,"time_elapsed":394218,"internal_node_id":"0.0-175.0","subject":"S1C1675","sona":"41576","block":3,"time":"2021-09-27T23:59:40.080Z","response":"1st","certainty":"high","char":"A","transposition":2,"order":["shifted","swapped"],"probe_pitches":[7,2,7,5,-3,0,9,5,0,-3,7,9,-3,0,5,9],"shifted_pitches":[7,2,7,5,-3,0,9,5,-1,-3,7,9,-3,0,5,9],"swapped_pitches":[7,2,7,5,-3,0,9,0,5,-3,7,9,-3,0,5,9],"shift_direction":-1,"question_num":151,"has_decoy":false},{"rt":4252.5999999940395,"stimulus":"[A] option 1, [L] option 2, [G] neither","key_press":71,"name":"choice","trial_type":"html-keyboard-response","trial_index":186,"time_elapsed":420851,"internal_node_id":"0.0-186.0","subject":"S1C1675","sona":"41576","block":3,"time":"2021-09-27T23:59:40.080Z","response":"neither","certainty":"high","char":"G","transposition":3,"order":["swapped","shifted"],"probe_pitches":[-3,2,7,2,9,7,0,5,2,7,0,5,2,-3,5,7],"shifted_pitches":[-3,2,7,2,9,7,0,6,2,7,0,5,2,-3,5,7],"swapped_pitches":[-3,2,7,2,9,7,0,2,5,7,0,5,2,-3,5,7],"shift_direction":1,"question_num":161,"has_decoy":false},{"rt":6103.300000011921,"stimulus":"[A] option 1, [L] option 2, [G] neither","key_press":76,"name":"choice","trial_type":"html-keyboard-response","trial_index":197,"time_elapsed":450769,"internal_node_id":"0.0-197.0","subject":"S1C1675","sona":"41576","block":3,"time":"2021-09-27T23:59:40.080Z","response":"2nd","certainty":"high","char":"L","transposition":-3,"order":["swapped","shifted"],"probe_pitches":[-3,2,-1,-3,-1,9,2,-3,4,6,-1,9,2,-1,9,4],"shifted_pitches":[-3,2,-1,-3,-1,9,2,-3,5,6,-1,9,2,-1,9,4],"swapped_pitches":[-3,2,-1,-3,-1,9,2,4,-3,6,-1,9,2,-1,9,4],"shift_direction":1,"question_num":171,"has_decoy":false},{"rt":605.5,"stimulus":"[A] option 1, [L] option 2, [G] neither","key_press":76,"name":"choice","trial_type":"html-keyboard-response","trial_index":208,"time_elapsed":474207,"internal_node_id":"0.0-208.0","subject":"S1C1675","sona":"41576","block":3,"time":"2021-09-27T23:59:40.080Z","response":"2nd","certainty":"high","char":"L","transposition":-3,"order":["shifted","swapped"],"probe_pitches":[2,-3,-1,-3,4,9,6,-1,2,9,-1,6,4,2,-1,9],"shifted_pitches":[2,-3,-1,-3,4,9,6,-1,1,9,-1,6,4,2,-1,9],"swapped_pitches":[2,-3,-1,-3,4,9,6,2,-1,9,-1,6,4,2,-1,9],"shift_direction":-1,"question_num":181,"has_decoy":false},{"rt":1300.800000011921,"stimulus":"[A] option 1, [L] option 2, [G] neither","key_press":71,"name":"choice","trial_type":"html-keyboard-response","trial_index":219,"time_elapsed":498081,"internal_node_id":"0.0-219.0","subject":"S1C1675","sona":"41576","block":3,"time":"2021-09-27T23:59:40.080Z","response":"neither","certainty":"high","char":"G","transposition":-3,"order":["swapped","shifted"],"probe_pitches":[7,10,15,11,13,15,7,8,6,12,10,3,12,3,4,12],"shifted_pitches":[7,10,15,11,13,15,7,8,5,12,10,3,12,3,4,12],"swapped_pitches":[7,10,15,11,13,15,7,6,8,12,10,3,12,3,4,12],"shift_direction":-1,"question_num":191,"has_decoy":false}]