[{"rt":1175.300000011921,"stimulus":"[A] option 1, [L] option 2, [G] neither","key_press":76,"name":"choice","trial_type":"html-keyboard-response","trial_index":10,"time_elapsed":24554,"internal_node_id":"0.0-10.0","subject":"S1C1675","sona":"41576","block":6,"time":"2021-09-28T00:24:45.043Z","response":"2nd","certainty":"high","char":"L","transposition":-3,"order":["swapped","shifted"],"probe_pitches":[9,5,9,2,9,2,9,14,2,12,2,9,2,12,14,7],"shifted_pitches":[9,5,9,2,9,2,9,14,3,12,2,9,2,12,14,7],"swapped_pitches":[9,5,9,2,9,2,9,2,14,12,2,9,2,12,14,7],"shift_direction":1,"question_num":1,"has_decoy":false},{"rt":1326.5,"stimulus":"[A] option 1, [L] option 2, [G] neither","key_press":71,"name":"choice","trial_type":"html-keyboard-response","trial_index":21,"time_elapsed":48295,"internal_node_id":"0.0-21.0","subject":"S1C1675","sona":"41576","block":6,"time":"2021-09-28T00:24:45.043Z","response":"neither","certainty":"high","char":"G","transposition":-2,"order":["swapped","shifted"],"probe_pitches":[9,14,7,2,4,9,7,12,4,9,12,9,7,9,7,9],"shifted_pitches":[9,14,7,2,4,9,7,12,3,9,12,9,7,9,7,9],"swapped_pitches":[9,14,7,2,4,9,7,4,12,9,12,9,7,9,7,9],"shift_direction":-1,"question_num":11,"has_decoy":false},{"rt":535.7999999821186,"stimulus":"[A] option 1, [L] option 2, [G] neither","key_press":76,"name":"choice","trial_type":"html-keyboard-response","trial_index":32,"time_elapsed":71083,"internal_node_id":"0.0-32.0","subject":"S1C1675","sona":"41576","block":6,"time":"2021-09-28T00:24:45.043Z","response":"2nd","certainty":"high","char":"L","transposition":-1,"order":["shifted","swapped"],"probe_pitches":[14,11,6,14,6,4,14,11,2,14,9,11,2,14,9,4],"shifted_pitches":[14,11,6,14,6,4,14,11,1,14,9,11,2,14,9,4],"swapped_pitches":[14,11,6,14,6,4,14,2,11,14,9,11,2,14,9,4],"shift_direction":-1,"question_num":21,"has_decoy":false},{"rt":3911.800000011921,"stimulus":"[A] option 1, [L] option 2, [G] neither","key_press":76,"name":"choice","trial_type":"html-keyboard-response","trial_index":43,"time_elapsed":97290,"internal_node_id":"0.0-43.0","subject":"S1C1675","sona":"41576","block":6,"time":"2021-09-28T00:24:45.043Z","response":"2nd","certainty":"high","char":"L","transposition":3,"order":["shifted","swapped"],"probe_pitches":[8,14,7,13,12,7,13,5,3,2,11,4,5,2,10,3],"shifted_pitches":[8,14,7,13,12,7,13,6,3,2,11,4,5,2,10,3],"swapped_pitches":[8,14,7,13,12,7,13,3,5,2,11,4,5,2,10,3],"shift_direction":1,"question_num":31,"has_decoy":false},{"rt":773.3000000119209,"stimulus":"[A] option 1, [L] option 2, [G] neither","key_press":76,"name":"choice","trial_type":"html-keyboard-response","trial_index":54,"time_elapsed":120829,"internal_node_id":"0.0-54.0","subject":"S1C1675","sona":"41576","block":6,"time":"2021-09-28T00:24:45.043Z","response":"2nd","certainty":"high","char":"L","transposition":2,"order":["shifted","swapped"],"probe_pitches":[9,11,4,2,7,4,7,11,14,7,9,14,7,14,7,14],"shifted_pitches":[9,11,4,2,7,4,7,10,14,7,9,14,7,14,7,14],"swapped_pitches":[9,11,4,2,7,4,7,14,11,7,9,14,7,14,7,14],"shift_direction":-1,"question_num":41,"has_decoy":false},{"rt":1755.699999988079,"stimulus":"[A] option 1, [L] option 2, [G] neither","key_press":76,"name":"choice","trial_type":"html-keyboard-response","trial_index":65,"time_elapsed":144689,"internal_node_id":"0.0-65.0","subject":"S1C1675","sona":"41576","block":6,"time":"2021-09-28T00:24:45.043Z","response":"2nd","certainty":"high","char":"L","transposition":0,"order":["swapped","shifted"],"probe_pitches":[5,7,5,9,13,7,13,10,9,11,12,13,14,4,11,6],"shifted_pitches":[5,7,5,9,13,7,13,10,8,11,12,13,14,4,11,6],"swapped_pitches":[5,7,5,9,13,7,13,9,10,11,12,13,14,4,11,6],"shift_direction":-1,"question_num":51,"has_decoy":false},{"rt":746.8999999761581,"stimulus":"[A] option 1, [L] option 2, [G] neither","key_press":76,"name":"choice","trial_type":"html-keyboard-response","trial_index":76,"time_elapsed":167889,"internal_node_id":"0.0-76.0","subject":"S1C1675","sona":"41576","block":6,"time":"2021-09-28T00:24:45.043Z","response":"2nd","certainty":"high","char":"L","transposition":-1,"order":["shifted","swapped"],"probe_pitches":[12,9,12,7,12,9,4,7,12,2,9,14,12,7,4,7],"shifted_pitches":[12,9,12,7,12,9,4,6,12,2,9,14,12,7,4,7],"swapped_pitches":[12,9,12,7,12,9,4,12,7,2,9,14,12,7,4,7],"shift_direction":-1,"question_num":61,"has_decoy":false},{"rt":2835.800000011921,"stimulus":"[A] option 1, [L] option 2, [G] neither","key_press":65,"name":"choice","trial_type":"html-keyboard-response","trial_index":87,"time_elapsed":193006,"internal_node_id":"0.0-87.0","subject":"S1C1675","sona":"41576","block":6,"time":"2021-09-28T00:24:45.043Z","response":"1st","certainty":"high","char":"A","transposition":-3,"order":["swapped","shifted"],"probe_pitches":[13,14,13,11,14,7,9,11,10,13,6,3,11,6,11,2],"shifted_pitches":[13,14,13,11,14,7,9,12,10,13,6,3,11,6,11,2],"swapped_pitches":[13,14,13,11,14,7,9,10,11,13,6,3,11,6,11,2],"shift_direction":1,"question_num":71,"has_decoy":false},{"rt":3961.699999988079,"stimulus":"[A] option 1, [L] option 2, [G] neither","key_press":76,"name":"choice","trial_type":"html-keyboard-response","trial_index":98,"time_elapsed":220410,"internal_node_id":"0.0-98.0","subject":"S1C1675","sona":"41576","block":6,"time":"2021-09-28T00:24:45.043Z","response":"2nd","certainty":"high","char":"L","transposition":1,"order":["swapped","shifted"],"probe_pitches":[10,13,9,8,6,4,14,9,4,3,4,12,2,8,13,3],"shifted_pitches":[10,13,9,8,6,4,14,9,5,3,4,12,2,8,13,3],"swapped_pitches":[10,13,9,8,6,4,14,4,9,3,4,12,2,8,13,3],"shift_direction":1,"question_num":81,"has_decoy":false},{"rt":707,"stimulus":"[A] option 1, [L] option 2, [G] neither","key_press":71,"name":"choice","trial_type":"html-keyboard-response","trial_index":109,"time_elapsed":243647,"internal_node_id":"0.0-109.0","subject":"S1C1675","sona":"41576","block":6,"time":"2021-09-28T00:24:45.043Z","response":"neither","certainty":"high","char":"G","transposition":-3,"order":["shifted","swapped"],"probe_pitches":[12,14,12,5,14,9,14,2,7,12,7,12,5,2,9,2],"shifted_pitches":[12,14,12,5,14,9,14,3,7,12,7,12,5,2,9,2],"swapped_pitches":[12,14,12,5,14,9,14,7,2,12,7,12,5,2,9,2],"shift_direction":1,"question_num":91,"has_decoy":false},{"rt":11985.5,"stimulus":"[A] option 1, [L] option 2, [G] neither","key_press":71,"name":"choice","trial_type":"html-keyboard-response","trial_index":120,"time_elapsed":278005,"internal_node_id":"0.0-120.0","subject":"S1C1675","sona":"41576","block":6,"time":"2021-09-28T00:24:45.043Z","response":"neither","certainty":"high","char":"G","transposition":-3,"order":["shifted","swapped"],"probe_pitches":[5,7,14,9,12,14,4,11,14,8,6,8,2,4,9,12],"shifted_pitches":[5,7,14,9,12,14,4,10,14,8,6,8,2,4,9,12],"swapped_pitches":[5,7,14,9,12,14,4,14,11,8,6,8,2,4,9,12],"shift_direction":-1,"question_num":101,"has_decoy":false},{"rt":2522.0999999940395,"stimulus":"[A] option 1, [L] option 2, [G] neither","key_press":71,"name":"choice","trial_type":"html-keyboard-response","trial_index":131,"time_elapsed":308905,"internal_node_id":"0.0-131.0","subject":"S1C1675","sona":"41576","block":6,"time":"2021-09-28T00:24:45.043Z","response":"neither","certainty":"high","char":"G","transposition":-2,"order":["shifted","swapped"],"probe_pitches":[4,7,5,12,3,4,7,14,12,5,4,7,13,10,12,10],"shifted_pitches":[4,7,5,12,3,4,7,14,11,5,4,7,13,10,12,10],"swapped_pitches":[4,7,5,12,3,4,7,12,14,5,4,7,13,10,12,10],"shift_direction":-1,"question_num":111,"has_decoy":false},{"rt":1141.300000011921,"stimulus":"[A] option 1, [L] option 2, [G] neither","key_press":65,"name":"choice","trial_type":"html-keyboard-response","trial_index":142,"time_elapsed":334804,"internal_node_id":"0.0-142.0","subject":"S1C1675","sona":"41576","block":6,"time":"2021-09-28T00:24:45.043Z","response":"1st","certainty":"high","char":"A","transposition":0,"order":["swapped","shifted"],"probe_pitches":[11,14,11,4,6,4,6,4,11,6,9,6,2,9,14,4],"shifted_pitches":[11,14,11,4,6,4,6,4,12,6,9,6,2,9,14,4],"swapped_pitches":[11,14,11,4,6,4,6,11,4,6,9,6,2,9,14,4],"shift_direction":1,"question_num":121,"has_decoy":false},{"rt":1967.2000000178814,"stimulus":"[A] option 1, [L] option 2, [G] neither","key_press":71,"name":"choice","trial_type":"html-keyboard-response","trial_index":153,"time_elapsed":359052,"internal_node_id":"0.0-153.0","subject":"S1C1675","sona":"41576","block":6,"time":"2021-09-28T00:24:45.043Z","response":"neither","certainty":"high","char":"G","transposition":3,"order":["shifted","swapped"],"probe_pitches":[14,12,7,2,7,12,2,12,10,5,10,12,7,2,14,10],"shifted_pitches":[14,12,7,2,7,12,2,12,11,5,10,12,7,2,14,10],"swapped_pitches":[14,12,7,2,7,12,2,10,12,5,10,12,7,2,14,10],"shift_direction":1,"question_num":131,"has_decoy":false},{"rt":3047.9000000059605,"stimulus":"[A] option 1, [L] option 2, [G] neither","key_press":76,"name":"choice","trial_type":"html-keyboard-response","trial_index":164,"time_elapsed":384469,"internal_node_id":"0.0-164.0","subject":"S1C1675","sona":"41576","block":6,"time":"2021-09-28T00:24:45.043Z","response":"2nd","certainty":"high","char":"L","transposition":2,"order":["shifted","swapped"],"probe_pitches":[10,4,9,10,12,9,11,6,2,13,5,8,10,14,11,8],"shifted_pitches":[10,4,9,10,12,9,11,7,2,13,5,8,10,14,11,8],"swapped_pitches":[10,4,9,10,12,9,11,2,6,13,5,8,10,14,11,8],"shift_direction":1,"question_num":141,"has_decoy":false},{"rt":15394.5,"stimulus":"[A] option 1, [L] option 2, [G] neither","key_press":76,"name":"choice","trial_type":"html-keyboard-response","trial_index":175,"time_elapsed":425086,"internal_node_id":"0.0-175.0","subject":"S1C1675","sona":"41576","block":6,"time":"2021-09-28T00:24:45.043Z","response":"2nd","certainty":"high","char":"L","transposition":-2,"order":["swapped","shifted"],"probe_pitches":[7,2,3,10,7,3,12,14,10,5,3,2,11,10,5,11],"shifted_pitches":[7,2,3,10,7,3,12,14,9,5,3,2,11,10,5,11],"swapped_pitches":[7,2,3,10,7,3,12,10,14,5,3,2,11,10,5,11],"shift_direction":-1,"question_num":151,"has_decoy":false},{"rt":770.2000000178814,"stimulus":"[A] option 1, [L] option 2, [G] neither","key_press":76,"name":"choice","trial_type":"html-keyboard-response","trial_index":186,"time_elapsed":448177,"internal_node_id":"0.0-186.0","subject":"S1C1675","sona":"41576","block":6,"time":"2021-09-28T00:24:45.043Z","response":"2nd","certainty":"high","char":"L","transposition":-2,"order":["swapped","shifted"],"probe_pitches":[14,10,14,10,2,10,7,12,10,7,10,14,5,7,14,12],"shifted_pitches":[14,10,14,10,2,10,7,11,10,7,10,14,5,7,14,12],"swapped_pitches":[14,10,14,10,2,10,7,10,12,7,10,14,5,7,14,12],"shift_direction":-1,"question_num":161,"has_decoy":false},{"rt":824.2000000178814,"stimulus":"[A] option 1, [L] option 2, [G] neither","key_press":65,"name":"choice","trial_type":"html-keyboard-response","trial_index":197,"time_elapsed":471306,"internal_node_id":"0.0-197.0","subject":"S1C1675","sona":"41576","block":6,"time":"2021-09-28T00:24:45.043Z","response":"1st","certainty":"high","char":"A","transposition":1,"order":["swapped","shifted"],"probe_pitches":[7,9,2,4,7,14,11,9,2,11,4,11,2,14,2,14],"shifted_pitches":[7,9,2,4,7,14,11,10,2,11,4,11,2,14,2,14],"swapped_pitches":[7,9,2,4,7,14,11,2,9,11,4,11,2,14,2,14],"shift_direction":1,"question_num":171,"has_decoy":false},{"rt":4577.299999982119,"stimulus":"[A] option 1, [L] option 2, [G] neither","key_press":76,"name":"choice","trial_type":"html-keyboard-response","trial_index":208,"time_elapsed":498139,"internal_node_id":"0.0-208.0","subject":"S1C1675","sona":"41576","block":6,"time":"2021-09-28T00:24:45.043Z","response":"2nd","certainty":"high","char":"L","transposition":-1,"order":["shifted","swapped"],"probe_pitches":[4,10,3,2,8,10,2,3,14,6,9,3,10,11,10,12],"shifted_pitches":[4,10,3,2,8,10,2,3,13,6,9,3,10,11,10,12],"swapped_pitches":[4,10,3,2,8,10,2,14,3,6,9,3,10,11,10,12],"shift_direction":-1,"question_num":181,"has_decoy":false},{"rt":726.7000000178814,"stimulus":"[A] option 1, [L] option 2, [G] neither","key_press":76,"name":"choice","trial_type":"html-keyboard-response","trial_index":219,"time_elapsed":521185,"internal_node_id":"0.0-219.0","subject":"S1C1675","sona":"41576","block":6,"time":"2021-09-28T00:24:45.043Z","response":"2nd","certainty":"high","char":"L","transposition":-1,"order":["swapped","shifted"],"probe_pitches":[9,13,7,2,11,6,7,3,8,12,5,12,9,13,3,10],"shifted_pitches":[9,13,7,2,11,6,7,4,8,12,5,12,9,13,3,10],"swapped_pitches":[9,13,7,2,11,6,7,8,3,12,5,12,9,13,3,10],"shift_direction":1,"question_num":191,"has_decoy":false}]