[{"rt":342.5,"stimulus":"[A] option 1, [L] option 2, [G] neither","key_press":71,"name":"choice","trial_type":"html-keyboard-response","trial_index":10,"time_elapsed":24118,"internal_node_id":"0.0-10.0","subject":"S1C1675","sona":"41576","block":2,"time":"2021-09-27T23:51:18.875Z","response":"neither","certainty":"high","char":"G","transposition":-1,"order":["shifted","swapped"],"probe_pitches":[3,7,4,7,5,12,15,6,10,12,15,8,10,5,7,12],"shifted_pitches":[3,7,4,7,5,12,15,6,9,12,15,8,10,5,7,12],"swapped_pitches":[3,7,4,7,5,12,15,10,6,12,15,8,10,5,7,12],"shift_direction":-1,"question_num":1,"has_decoy":false},{"rt":792.8000000119209,"stimulus":"[A] option 1, [L] option 2, [G] neither","key_press":65,"name":"choice","trial_type":"html-keyboard-response","trial_index":21,"time_elapsed":47498,"internal_node_id":"0.0-21.0","subject":"S1C1675","sona":"41576","block":2,"time":"2021-09-27T23:51:18.875Z","response":"1st","certainty":"high","char":"A","transposition":-2,"order":["swapped","shifted"],"probe_pitches":[6,4,11,4,1,6,-1,8,11,4,6,-1,4,-1,6,-1],"shifted_pitches":[6,4,11,4,1,6,-1,9,11,4,6,-1,4,-1,6,-1],"swapped_pitches":[6,4,11,4,1,6,-1,11,8,4,6,-1,4,-1,6,-1],"shift_direction":1,"question_num":11,"has_decoy":false},{"rt":408,"stimulus":"[A] option 1, [L] option 2, [G] neither","key_press":76,"name":"choice","trial_type":"html-keyboard-response","trial_index":32,"time_elapsed":70698,"internal_node_id":"0.0-32.0","subject":"S1C1675","sona":"41576","block":2,"time":"2021-09-27T23:51:18.875Z","response":"2nd","certainty":"high","char":"L","transposition":3,"order":["swapped","shifted"],"probe_pitches":[9,4,6,4,6,9,2,4,9,2,11,-1,6,9,6,11],"shifted_pitches":[9,4,6,4,6,9,2,4,8,2,11,-1,6,9,6,11],"swapped_pitches":[9,4,6,4,6,9,2,9,4,2,11,-1,6,9,6,11],"shift_direction":-1,"question_num":21,"has_decoy":false},{"rt":419.19999998807907,"stimulus":"[A] option 1, [L] option 2, [G] neither","key_press":76,"name":"choice","trial_type":"html-keyboard-response","trial_index":43,"time_elapsed":103358,"internal_node_id":"0.0-43.0","subject":"S1C1675","sona":"41576","block":2,"time":"2021-09-27T23:51:18.875Z","response":"2nd","certainty":"high","char":"L","transposition":-2,"order":["swapped","shifted"],"probe_pitches":[15,11,7,3,11,14,6,7,9,13,5,3,4,10,3,15],"shifted_pitches":[15,11,7,3,11,14,6,7,8,13,5,3,4,10,3,15],"swapped_pitches":[15,11,7,3,11,14,6,9,7,13,5,3,4,10,3,15],"shift_direction":-1,"question_num":31,"has_decoy":false},{"rt":760.9000000059605,"stimulus":"[A] option 1, [L] option 2, [G] neither","key_press":76,"name":"choice","trial_type":"html-keyboard-response","trial_index":54,"time_elapsed":127446,"internal_node_id":"0.0-54.0","subject":"S1C1675","sona":"41576","block":2,"time":"2021-09-27T23:51:18.875Z","response":"2nd","certainty":"high","char":"L","transposition":2,"order":["swapped","shifted"],"probe_pitches":[13,14,10,13,5,15,9,11,15,8,6,9,4,14,6,7],"shifted_pitches":[13,14,10,13,5,15,9,12,15,8,6,9,4,14,6,7],"swapped_pitches":[13,14,10,13,5,15,9,15,11,8,6,9,4,14,6,7],"shift_direction":1,"question_num":41,"has_decoy":false},{"rt":1408.7999999821186,"stimulus":"[A] option 1, [L] option 2, [G] neither","key_press":76,"name":"choice","trial_type":"html-keyboard-response","trial_index":65,"time_elapsed":152323,"internal_node_id":"0.0-65.0","subject":"S1C1675","sona":"41576","block":2,"time":"2021-09-27T23:51:18.875Z","response":"2nd","certainty":"high","char":"L","transposition":0,"order":["shifted","swapped"],"probe_pitches":[9,3,8,9,4,9,7,13,12,3,15,12,8,4,7,15],"shifted_pitches":[9,3,8,9,4,9,7,14,12,3,15,12,8,4,7,15],"swapped_pitches":[9,3,8,9,4,9,7,12,13,3,15,12,8,4,7,15],"shift_direction":1,"question_num":51,"has_decoy":false},{"rt":510.60000002384186,"stimulus":"[A] option 1, [L] option 2, [G] neither","key_press":76,"name":"choice","trial_type":"html-keyboard-response","trial_index":76,"time_elapsed":175662,"internal_node_id":"0.0-76.0","subject":"S1C1675","sona":"41576","block":2,"time":"2021-09-27T23:51:18.875Z","response":"2nd","certainty":"high","char":"L","transposition":1,"order":["shifted","swapped"],"probe_pitches":[12,9,3,9,12,15,4,3,9,4,6,4,15,4,14,4],"shifted_pitches":[12,9,3,9,12,15,4,3,10,4,6,4,15,4,14,4],"swapped_pitches":[12,9,3,9,12,15,4,9,3,4,6,4,15,4,14,4],"shift_direction":1,"question_num":61,"has_decoy":false},{"rt":389.80000001192093,"stimulus":"[A] option 1, [L] option 2, [G] neither","key_press":76,"name":"choice","trial_type":"html-keyboard-response","trial_index":87,"time_elapsed":199108,"internal_node_id":"0.0-87.0","subject":"S1C1675","sona":"41576","block":2,"time":"2021-09-27T23:51:18.875Z","response":"2nd","certainty":"high","char":"L","transposition":-3,"order":["swapped","shifted"],"probe_pitches":[-1,4,11,6,1,11,4,6,-1,4,9,-1,11,-1,11,1],"shifted_pitches":[-1,4,11,6,1,11,4,6,-2,4,9,-1,11,-1,11,1],"swapped_pitches":[-1,4,11,6,1,11,4,-1,6,4,9,-1,11,-1,11,1],"shift_direction":-1,"question_num":71,"has_decoy":false},{"rt":1987.0999999940395,"stimulus":"[A] option 1, [L] option 2, [G] neither","key_press":65,"name":"choice","trial_type":"html-keyboard-response","trial_index":98,"time_elapsed":223861,"internal_node_id":"0.0-98.0","subject":"S1C1675","sona":"41576","block":2,"time":"2021-09-27T23:51:18.875Z","response":"1st","certainty":"high","char":"A","transposition":2,"order":["swapped","shifted"],"probe_pitches":[11,8,11,8,4,8,11,1,6,11,4,6,8,4,11,8],"shifted_pitches":[11,8,11,8,4,8,11,1,5,11,4,6,8,4,11,8],"swapped_pitches":[11,8,11,8,4,8,11,6,1,11,4,6,8,4,11,8],"shift_direction":-1,"question_num":81,"has_decoy":false},{"rt":5026.300000011921,"stimulus":"[A] option 1, [L] option 2, [G] neither","key_press":65,"name":"choice","trial_type":"html-keyboard-response","trial_index":109,"time_elapsed":251411,"internal_node_id":"0.0-109.0","subject":"S1C1675","sona":"41576","block":2,"time":"2021-09-27T23:51:18.875Z","response":"1st","certainty":"high","char":"A","transposition":3,"order":["swapped","shifted"],"probe_pitches":[14,11,14,12,14,4,14,6,3,11,7,13,8,11,8,14],"shifted_pitches":[14,11,14,12,14,4,14,5,3,11,7,13,8,11,8,14],"swapped_pitches":[14,11,14,12,14,4,14,3,6,11,7,13,8,11,8,14],"shift_direction":-1,"question_num":91,"has_decoy":false},{"rt":491.69999998807907,"stimulus":"[A] option 1, [L] option 2, [G] neither","key_press":76,"name":"choice","trial_type":"html-keyboard-response","trial_index":120,"time_elapsed":275425,"internal_node_id":"0.0-120.0","subject":"S1C1675","sona":"41576","block":2,"time":"2021-09-27T23:51:18.875Z","response":"2nd","certainty":"high","char":"L","transposition":-3,"order":["shifted","swapped"],"probe_pitches":[5,9,14,11,5,15,5,7,8,14,3,7,14,7,12,8],"shifted_pitches":[5,9,14,11,5,15,5,6,8,14,3,7,14,7,12,8],"swapped_pitches":[5,9,14,11,5,15,5,8,7,14,3,7,14,7,12,8],"shift_direction":-1,"question_num":101,"has_decoy":false},{"rt":9228.59999999404,"stimulus":"[A] option 1, [L] option 2, [G] neither","key_press":65,"name":"choice","trial_type":"html-keyboard-response","trial_index":131,"time_elapsed":307242,"internal_node_id":"0.0-131.0","subject":"S1C1675","sona":"41576","block":2,"time":"2021-09-27T23:51:18.875Z","response":"1st","certainty":"high","char":"A","transposition":1,"order":["shifted","swapped"],"probe_pitches":[-1,3,1,3,-1,8,1,8,6,1,-1,6,8,6,-1,11],"shifted_pitches":[-1,3,1,3,-1,8,1,8,5,1,-1,6,8,6,-1,11],"swapped_pitches":[-1,3,1,3,-1,8,1,6,8,1,-1,6,8,6,-1,11],"shift_direction":-1,"question_num":111,"has_decoy":false},{"rt":478.69999998807907,"stimulus":"[A] option 1, [L] option 2, [G] neither","key_press":76,"name":"choice","trial_type":"html-keyboard-response","trial_index":142,"time_elapsed":330295,"internal_node_id":"0.0-142.0","subject":"S1C1675","sona":"41576","block":2,"time":"2021-09-27T23:51:18.875Z","response":"2nd","certainty":"high","char":"L","transposition":-1,"order":["swapped","shifted"],"probe_pitches":[3,5,8,9,11,5,3,15,6,4,6,8,10,3,9,10],"shifted_pitches":[3,5,8,9,11,5,3,15,7,4,6,8,10,3,9,10],"swapped_pitches":[3,5,8,9,11,5,3,6,15,4,6,8,10,3,9,10],"shift_direction":1,"question_num":121,"has_decoy":false},{"rt":1262.8999999761581,"stimulus":"[A] option 1, [L] option 2, [G] neither","key_press":65,"name":"choice","trial_type":"html-keyboard-response","trial_index":153,"time_elapsed":355718,"internal_node_id":"0.0-153.0","subject":"S1C1675","sona":"41576","block":2,"time":"2021-09-27T23:51:18.875Z","response":"1st","certainty":"high","char":"A","transposition":-2,"order":["shifted","swapped"],"probe_pitches":[6,1,4,11,9,11,1,6,4,11,6,-1,11,6,-1,1],"shifted_pitches":[6,1,4,11,9,11,1,7,4,11,6,-1,11,6,-1,1],"swapped_pitches":[6,1,4,11,9,11,1,4,6,11,6,-1,11,6,-1,1],"shift_direction":1,"question_num":131,"has_decoy":false},{"rt":359.09999999403954,"stimulus":"[A] option 1, [L] option 2, [G] neither","key_press":65,"name":"choice","trial_type":"html-keyboard-response","trial_index":164,"time_elapsed":379059,"internal_node_id":"0.0-164.0","subject":"S1C1675","sona":"41576","block":2,"time":"2021-09-27T23:51:18.875Z","response":"1st","certainty":"high","char":"A","transposition":-3,"order":["swapped","shifted"],"probe_pitches":[11,9,6,4,2,11,4,11,2,9,4,2,9,-1,6,2],"shifted_pitches":[11,9,6,4,2,11,4,12,2,9,4,2,9,-1,6,2],"swapped_pitches":[11,9,6,4,2,11,4,2,11,9,4,2,9,-1,6,2],"shift_direction":1,"question_num":141,"has_decoy":false},{"rt":3543.5,"stimulus":"[A] option 1, [L] option 2, [G] neither","key_press":71,"name":"choice","trial_type":"html-keyboard-response","trial_index":175,"time_elapsed":406986,"internal_node_id":"0.0-175.0","subject":"S1C1675","sona":"41576","block":2,"time":"2021-09-27T23:51:18.875Z","response":"neither","certainty":"high","char":"G","transposition":-1,"order":["shifted","swapped"],"probe_pitches":[7,4,2,4,7,4,-1,9,4,11,7,4,9,11,2,11],"shifted_pitches":[7,4,2,4,7,4,-1,10,4,11,7,4,9,11,2,11],"swapped_pitches":[7,4,2,4,7,4,-1,4,9,11,7,4,9,11,2,11],"shift_direction":1,"question_num":151,"has_decoy":false},{"rt":439.80000001192093,"stimulus":"[A] option 1, [L] option 2, [G] neither","key_press":76,"name":"choice","trial_type":"html-keyboard-response","trial_index":186,"time_elapsed":430311,"internal_node_id":"0.0-186.0","subject":"S1C1675","sona":"41576","block":2,"time":"2021-09-27T23:51:18.875Z","response":"2nd","certainty":"high","char":"L","transposition":-3,"order":["shifted","swapped"],"probe_pitches":[14,9,14,15,12,6,9,12,10,7,12,4,9,11,6,9],"shifted_pitches":[14,9,14,15,12,6,9,13,10,7,12,4,9,11,6,9],"swapped_pitches":[14,9,14,15,12,6,9,10,12,7,12,4,9,11,6,9],"shift_direction":1,"question_num":161,"has_decoy":false},{"rt":13320.300000011921,"stimulus":"[A] option 1, [L] option 2, [G] neither","key_press":76,"name":"choice","trial_type":"html-keyboard-response","trial_index":197,"time_elapsed":466845,"internal_node_id":"0.0-197.0","subject":"S1C1675","sona":"41576","block":2,"time":"2021-09-27T23:51:18.875Z","response":"2nd","certainty":"high","char":"L","transposition":-1,"order":["shifted","swapped"],"probe_pitches":[6,8,6,3,-1,8,3,8,6,3,1,6,-1,1,8,3],"shifted_pitches":[6,8,6,3,-1,8,3,7,6,3,1,6,-1,1,8,3],"swapped_pitches":[6,8,6,3,-1,8,3,6,8,3,1,6,-1,1,8,3],"shift_direction":-1,"question_num":171,"has_decoy":false},{"rt":665.4000000059605,"stimulus":"[A] option 1, [L] option 2, [G] neither","key_press":65,"name":"choice","trial_type":"html-keyboard-response","trial_index":208,"time_elapsed":490295,"internal_node_id":"0.0-208.0","subject":"S1C1675","sona":"41576","block":2,"time":"2021-09-27T23:51:18.875Z","response":"1st","certainty":"high","char":"A","transposition":0,"order":["shifted","swapped"],"probe_pitches":[7,11,7,-1,2,4,11,7,2,11,9,-1,2,11,2,11],"shifted_pitches":[7,11,7,-1,2,4,11,7,3,11,9,-1,2,11,2,11],"swapped_pitches":[7,11,7,-1,2,4,11,2,7,11,9,-1,2,11,2,11],"shift_direction":1,"question_num":181,"has_decoy":false},{"rt":708.9000000059605,"stimulus":"[A] option 1, [L] option 2, [G] neither","key_press":65,"name":"choice","trial_type":"html-keyboard-response","trial_index":219,"time_elapsed":514059,"internal_node_id":"0.0-219.0","subject":"S1C1675","sona":"41576","block":2,"time":"2021-09-27T23:51:18.875Z","response":"1st","certainty":"high","char":"A","transposition":-2,"order":["swapped","shifted"],"probe_pitches":[13,15,10,12,10,3,8,10,12,6,4,8,15,13,6,15],"shifted_pitches":[13,15,10,12,10,3,8,10,11,6,4,8,15,13,6,15],"swapped_pitches":[13,15,10,12,10,3,8,12,10,6,4,8,15,13,6,15],"shift_direction":-1,"question_num":191,"has_decoy":false}]