[{"rt":449.09999999403954,"stimulus":"[A] option 1, [L] option 2, [G] neither","key_press":71,"name":"choice","trial_type":"html-keyboard-response","trial_index":10,"time_elapsed":25145,"internal_node_id":"0.0-10.0","subject":"S1C1675","sona":"41576","block":5,"time":"2021-09-28T00:15:59.677Z","response":"neither","certainty":"high","char":"G","transposition":0,"order":["shifted","swapped"],"probe_pitches":[2,4,3,2,0,1,8,-1,4,1,7,1,6,7,10,9],"shifted_pitches":[2,4,3,2,0,1,8,-1,5,1,7,1,6,7,10,9],"swapped_pitches":[2,4,3,2,0,1,8,4,-1,1,7,1,6,7,10,9],"shift_direction":1,"question_num":1,"has_decoy":false},{"rt":1681.1000000238419,"stimulus":"[A] option 1, [L] option 2, [G] neither","key_press":71,"name":"choice","trial_type":"html-keyboard-response","trial_index":21,"time_elapsed":49081,"internal_node_id":"0.0-21.0","subject":"S1C1675","sona":"41576","block":5,"time":"2021-09-28T00:15:59.677Z","response":"neither","certainty":"high","char":"G","transposition":-1,"order":["shifted","swapped"],"probe_pitches":[4,-1,4,2,11,2,9,2,-1,4,9,2,-1,7,2,11],"shifted_pitches":[4,-1,4,2,11,2,9,1,-1,4,9,2,-1,7,2,11],"swapped_pitches":[4,-1,4,2,11,2,9,-1,2,4,9,2,-1,7,2,11],"shift_direction":-1,"question_num":11,"has_decoy":false},{"rt":2258.9000000059605,"stimulus":"[A] option 1, [L] option 2, [G] neither","key_press":76,"name":"choice","trial_type":"html-keyboard-response","trial_index":32,"time_elapsed":73654,"internal_node_id":"0.0-32.0","subject":"S1C1675","sona":"41576","block":5,"time":"2021-09-28T00:15:59.677Z","response":"2nd","certainty":"high","char":"L","transposition":-1,"order":["shifted","swapped"],"probe_pitches":[6,4,11,4,9,-1,9,6,-1,1,11,-1,4,1,-1,4],"shifted_pitches":[6,4,11,4,9,-1,9,6,-2,1,11,-1,4,1,-1,4],"swapped_pitches":[6,4,11,4,9,-1,9,-1,6,1,11,-1,4,1,-1,4],"shift_direction":-1,"question_num":21,"has_decoy":false},{"rt":1395.800000011921,"stimulus":"[A] option 1, [L] option 2, [G] neither","key_press":71,"name":"choice","trial_type":"html-keyboard-response","trial_index":43,"time_elapsed":98176,"internal_node_id":"0.0-43.0","subject":"S1C1675","sona":"41576","block":5,"time":"2021-09-28T00:15:59.677Z","response":"neither","certainty":"high","char":"G","transposition":-3,"order":["shifted","swapped"],"probe_pitches":[2,-1,2,-1,7,9,2,-1,9,4,9,7,2,-1,7,9],"shifted_pitches":[2,-1,2,-1,7,9,2,0,9,4,9,7,2,-1,7,9],"swapped_pitches":[2,-1,2,-1,7,9,2,9,-1,4,9,7,2,-1,7,9],"shift_direction":1,"question_num":31,"has_decoy":false},{"rt":1014.5,"stimulus":"[A] option 1, [L] option 2, [G] neither","key_press":71,"name":"choice","trial_type":"html-keyboard-response","trial_index":54,"time_elapsed":121449,"internal_node_id":"0.0-54.0","subject":"S1C1675","sona":"41576","block":5,"time":"2021-09-28T00:15:59.677Z","response":"neither","certainty":"high","char":"G","transposition":-2,"order":["shifted","swapped"],"probe_pitches":[3,8,6,8,11,3,11,6,8,3,11,-1,3,1,8,11],"shifted_pitches":[3,8,6,8,11,3,11,5,8,3,11,-1,3,1,8,11],"swapped_pitches":[3,8,6,8,11,3,11,8,6,3,11,-1,3,1,8,11],"shift_direction":-1,"question_num":41,"has_decoy":false},{"rt":315.80000001192093,"stimulus":"[A] option 1, [L] option 2, [G] neither","key_press":76,"name":"choice","trial_type":"html-keyboard-response","trial_index":65,"time_elapsed":144207,"internal_node_id":"0.0-65.0","subject":"S1C1675","sona":"41576","block":5,"time":"2021-09-28T00:15:59.677Z","response":"2nd","certainty":"high","char":"L","transposition":-2,"order":["swapped","shifted"],"probe_pitches":[-2,-1,0,4,-1,3,2,8,-2,0,8,4,3,-2,-1,5],"shifted_pitches":[-2,-1,0,4,-1,3,2,7,-2,0,8,4,3,-2,-1,5],"swapped_pitches":[-2,-1,0,4,-1,3,2,-2,8,0,8,4,3,-2,-1,5],"shift_direction":-1,"question_num":51,"has_decoy":false},{"rt":479.2000000178814,"stimulus":"[A] option 1, [L] option 2, [G] neither","key_press":65,"name":"choice","trial_type":"html-keyboard-response","trial_index":76,"time_elapsed":167119,"internal_node_id":"0.0-76.0","subject":"S1C1675","sona":"41576","block":5,"time":"2021-09-28T00:15:59.677Z","response":"1st","certainty":"high","char":"A","transposition":3,"order":["swapped","shifted"],"probe_pitches":[6,8,1,-1,3,11,3,6,-1,11,6,11,1,11,3,11],"shifted_pitches":[6,8,1,-1,3,11,3,6,-2,11,6,11,1,11,3,11],"swapped_pitches":[6,8,1,-1,3,11,3,-1,6,11,6,11,1,11,3,11],"shift_direction":-1,"question_num":61,"has_decoy":false},{"rt":2041.7999999821186,"stimulus":"[A] option 1, [L] option 2, [G] neither","key_press":71,"name":"choice","trial_type":"html-keyboard-response","trial_index":87,"time_elapsed":191415,"internal_node_id":"0.0-87.0","subject":"S1C1675","sona":"41576","block":5,"time":"2021-09-28T00:15:59.677Z","response":"neither","certainty":"high","char":"G","transposition":-1,"order":["swapped","shifted"],"probe_pitches":[8,3,8,7,-2,8,9,3,0,6,4,-2,2,5,4,7],"shifted_pitches":[8,3,8,7,-2,8,9,3,1,6,4,-2,2,5,4,7],"swapped_pitches":[8,3,8,7,-2,8,9,0,3,6,4,-2,2,5,4,7],"shift_direction":1,"question_num":71,"has_decoy":false},{"rt":428.10000002384186,"stimulus":"[A] option 1, [L] option 2, [G] neither","key_press":76,"name":"choice","trial_type":"html-keyboard-response","trial_index":98,"time_elapsed":214758,"internal_node_id":"0.0-98.0","subject":"S1C1675","sona":"41576","block":5,"time":"2021-09-28T00:15:59.677Z","response":"2nd","certainty":"high","char":"L","transposition":2,"order":["swapped","shifted"],"probe_pitches":[11,9,4,-1,2,11,4,2,6,11,-1,4,11,-1,6,2],"shifted_pitches":[11,9,4,-1,2,11,4,2,7,11,-1,4,11,-1,6,2],"swapped_pitches":[11,9,4,-1,2,11,4,6,2,11,-1,4,11,-1,6,2],"shift_direction":1,"question_num":81,"has_decoy":false},{"rt":398.90000000596046,"stimulus":"[A] option 1, [L] option 2, [G] neither","key_press":76,"name":"choice","trial_type":"html-keyboard-response","trial_index":109,"time_elapsed":237167,"internal_node_id":"0.0-109.0","subject":"S1C1675","sona":"41576","block":5,"time":"2021-09-28T00:15:59.677Z","response":"2nd","certainty":"high","char":"L","transposition":0,"order":["swapped","shifted"],"probe_pitches":[11,6,-1,4,6,-1,1,-1,4,8,6,8,4,-1,8,6],"shifted_pitches":[11,6,-1,4,6,-1,1,-1,5,8,6,8,4,-1,8,6],"swapped_pitches":[11,6,-1,4,6,-1,1,4,-1,8,6,8,4,-1,8,6],"shift_direction":1,"question_num":91,"has_decoy":false},{"rt":4650,"stimulus":"[A] option 1, [L] option 2, [G] neither","key_press":76,"name":"choice","trial_type":"html-keyboard-response","trial_index":120,"time_elapsed":264168,"internal_node_id":"0.0-120.0","subject":"S1C1675","sona":"41576","block":5,"time":"2021-09-28T00:15:59.677Z","response":"2nd","certainty":"high","char":"L","transposition":-1,"order":["shifted","swapped"],"probe_pitches":[2,0,-1,2,10,4,10,-2,5,-1,1,6,5,3,6,-2],"shifted_pitches":[2,0,-1,2,10,4,10,-3,5,-1,1,6,5,3,6,-2],"swapped_pitches":[2,0,-1,2,10,4,10,5,-2,-1,1,6,5,3,6,-2],"shift_direction":-1,"question_num":101,"has_decoy":false},{"rt":1175.9000000059605,"stimulus":"[A] option 1, [L] option 2, [G] neither","key_press":71,"name":"choice","trial_type":"html-keyboard-response","trial_index":131,"time_elapsed":287823,"internal_node_id":"0.0-131.0","subject":"S1C1675","sona":"41576","block":5,"time":"2021-09-28T00:15:59.677Z","response":"neither","certainty":"high","char":"G","transposition":-3,"order":["shifted","swapped"],"probe_pitches":[5,7,5,1,4,1,-1,7,5,1,4,-1,8,3,1,5],"shifted_pitches":[5,7,5,1,4,1,-1,7,6,1,4,-1,8,3,1,5],"swapped_pitches":[5,7,5,1,4,1,-1,5,7,1,4,-1,8,3,1,5],"shift_direction":1,"question_num":111,"has_decoy":false},{"rt":417.2000000178814,"stimulus":"[A] option 1, [L] option 2, [G] neither","key_press":71,"name":"choice","trial_type":"html-keyboard-response","trial_index":142,"time_elapsed":310550,"internal_node_id":"0.0-142.0","subject":"S1C1675","sona":"41576","block":5,"time":"2021-09-28T00:15:59.677Z","response":"neither","certainty":"high","char":"G","transposition":1,"order":["swapped","shifted"],"probe_pitches":[1,6,-1,1,4,6,8,1,-1,11,8,11,-1,1,6,8],"shifted_pitches":[1,6,-1,1,4,6,8,2,-1,11,8,11,-1,1,6,8],"swapped_pitches":[1,6,-1,1,4,6,8,-1,1,11,8,11,-1,1,6,8],"shift_direction":1,"question_num":121,"has_decoy":false},{"rt":998.7999999821186,"stimulus":"[A] option 1, [L] option 2, [G] neither","key_press":76,"name":"choice","trial_type":"html-keyboard-response","trial_index":153,"time_elapsed":334003,"internal_node_id":"0.0-153.0","subject":"S1C1675","sona":"41576","block":5,"time":"2021-09-28T00:15:59.677Z","response":"2nd","certainty":"high","char":"L","transposition":-3,"order":["shifted","swapped"],"probe_pitches":[-2,1,6,7,10,3,7,5,3,-1,8,7,-1,0,2,9],"shifted_pitches":[-2,1,6,7,10,3,7,5,4,-1,8,7,-1,0,2,9],"swapped_pitches":[-2,1,6,7,10,3,7,3,5,-1,8,7,-1,0,2,9],"shift_direction":1,"question_num":131,"has_decoy":false},{"rt":764,"stimulus":"[A] option 1, [L] option 2, [G] neither","key_press":76,"name":"choice","trial_type":"html-keyboard-response","trial_index":164,"time_elapsed":357074,"internal_node_id":"0.0-164.0","subject":"S1C1675","sona":"41576","block":5,"time":"2021-09-28T00:15:59.677Z","response":"2nd","certainty":"high","char":"L","transposition":-2,"order":["shifted","swapped"],"probe_pitches":[9,3,7,1,9,6,1,4,3,5,3,4,0,3,0,3],"shifted_pitches":[9,3,7,1,9,6,1,4,2,5,3,4,0,3,0,3],"swapped_pitches":[9,3,7,1,9,6,1,3,4,5,3,4,0,3,0,3],"shift_direction":-1,"question_num":141,"has_decoy":false},{"rt":610.5999999940395,"stimulus":"[A] option 1, [L] option 2, [G] neither","key_press":76,"name":"choice","trial_type":"html-keyboard-response","trial_index":175,"time_elapsed":380071,"internal_node_id":"0.0-175.0","subject":"S1C1675","sona":"41576","block":5,"time":"2021-09-28T00:15:59.677Z","response":"2nd","certainty":"high","char":"L","transposition":1,"order":["swapped","shifted"],"probe_pitches":[6,2,6,4,9,0,2,7,0,9,10,1,3,2,3,1],"shifted_pitches":[6,2,6,4,9,0,2,8,0,9,10,1,3,2,3,1],"swapped_pitches":[6,2,6,4,9,0,2,0,7,9,10,1,3,2,3,1],"shift_direction":1,"question_num":151,"has_decoy":false},{"rt":4139.5,"stimulus":"[A] option 1, [L] option 2, [G] neither","key_press":71,"name":"choice","trial_type":"html-keyboard-response","trial_index":186,"time_elapsed":406639,"internal_node_id":"0.0-186.0","subject":"S1C1675","sona":"41576","block":5,"time":"2021-09-28T00:15:59.677Z","response":"neither","certainty":"high","char":"G","transposition":-3,"order":["swapped","shifted"],"probe_pitches":[4,-1,6,4,11,6,4,9,1,4,9,1,9,4,9,-1],"shifted_pitches":[4,-1,6,4,11,6,4,8,1,4,9,1,9,4,9,-1],"swapped_pitches":[4,-1,6,4,11,6,4,1,9,4,9,1,9,4,9,-1],"shift_direction":-1,"question_num":161,"has_decoy":false},{"rt":771.1999999880791,"stimulus":"[A] option 1, [L] option 2, [G] neither","key_press":76,"name":"choice","trial_type":"html-keyboard-response","trial_index":197,"time_elapsed":429751,"internal_node_id":"0.0-197.0","subject":"S1C1675","sona":"41576","block":5,"time":"2021-09-28T00:15:59.677Z","response":"2nd","certainty":"high","char":"L","transposition":3,"order":["swapped","shifted"],"probe_pitches":[2,-1,6,2,5,10,4,1,-1,6,2,4,3,2,9,4],"shifted_pitches":[2,-1,6,2,5,10,4,0,-1,6,2,4,3,2,9,4],"swapped_pitches":[2,-1,6,2,5,10,4,-1,1,6,2,4,3,2,9,4],"shift_direction":-1,"question_num":171,"has_decoy":false},{"rt":457.90000000596046,"stimulus":"[A] option 1, [L] option 2, [G] neither","key_press":76,"name":"choice","trial_type":"html-keyboard-response","trial_index":208,"time_elapsed":452477,"internal_node_id":"0.0-208.0","subject":"S1C1675","sona":"41576","block":5,"time":"2021-09-28T00:15:59.677Z","response":"2nd","certainty":"high","char":"L","transposition":2,"order":["swapped","shifted"],"probe_pitches":[1,6,1,0,8,-1,-2,4,7,1,-1,7,9,10,5,8],"shifted_pitches":[1,6,1,0,8,-1,-2,3,7,1,-1,7,9,10,5,8],"swapped_pitches":[1,6,1,0,8,-1,-2,7,4,1,-1,7,9,10,5,8],"shift_direction":-1,"question_num":181,"has_decoy":false},{"rt":1921.4000000059605,"stimulus":"[A] option 1, [L] option 2, [G] neither","key_press":71,"name":"choice","trial_type":"html-keyboard-response","trial_index":219,"time_elapsed":476888,"internal_node_id":"0.0-219.0","subject":"S1C1675","sona":"41576","block":5,"time":"2021-09-28T00:15:59.677Z","response":"neither","certainty":"high","char":"G","transposition":-2,"order":["shifted","swapped"],"probe_pitches":[9,11,9,2,6,11,2,4,11,2,-1,11,2,6,4,2],"shifted_pitches":[9,11,9,2,6,11,2,4,12,2,-1,11,2,6,4,2],"swapped_pitches":[9,11,9,2,6,11,2,11,4,2,-1,11,2,6,4,2],"shift_direction":1,"question_num":191,"has_decoy":false}]