[{"rt":782.1999999880791,"stimulus":"[A] option 1, [L] option 2, [G] neither","key_press":71,"name":"choice","trial_type":"html-keyboard-response","trial_index":10,"time_elapsed":25466,"internal_node_id":"0.0-10.0","subject":"S1C1675","sona":"41576","block":4,"time":"2021-09-28T00:07:59.799Z","response":"neither","certainty":"high","char":"G","transposition":-2,"order":["swapped","shifted"],"probe_pitches":[9,12,8,6,3,4,2,10,6,13,9,8,10,4,6,9],"shifted_pitches":[9,12,8,6,3,4,2,10,7,13,9,8,10,4,6,9],"swapped_pitches":[9,12,8,6,3,4,2,6,10,13,9,8,10,4,6,9],"shift_direction":1,"question_num":1,"has_decoy":false},{"rt":362.90000000596046,"stimulus":"[A] option 1, [L] option 2, [G] neither","key_press":65,"name":"choice","trial_type":"html-keyboard-response","trial_index":21,"time_elapsed":49436,"internal_node_id":"0.0-21.0","subject":"S1C1675","sona":"41576","block":4,"time":"2021-09-28T00:07:59.799Z","response":"1st","certainty":"high","char":"A","transposition":-3,"order":["swapped","shifted"],"probe_pitches":[7,3,7,10,11,13,8,5,3,12,13,7,9,11,3,8],"shifted_pitches":[7,3,7,10,11,13,8,5,4,12,13,7,9,11,3,8],"swapped_pitches":[7,3,7,10,11,13,8,3,5,12,13,7,9,11,3,8],"shift_direction":1,"question_num":11,"has_decoy":false},{"rt":671,"stimulus":"[A] option 1, [L] option 2, [G] neither","key_press":76,"name":"choice","trial_type":"html-keyboard-response","trial_index":32,"time_elapsed":72668,"internal_node_id":"0.0-32.0","subject":"S1C1675","sona":"41576","block":4,"time":"2021-09-28T00:07:59.799Z","response":"2nd","certainty":"high","char":"L","transposition":-1,"order":["shifted","swapped"],"probe_pitches":[11,10,14,8,12,8,12,7,10,5,14,9,12,13,8,4],"shifted_pitches":[11,10,14,8,12,8,12,6,10,5,14,9,12,13,8,4],"swapped_pitches":[11,10,14,8,12,8,12,10,7,5,14,9,12,13,8,4],"shift_direction":-1,"question_num":21,"has_decoy":false},{"rt":1510.800000011921,"stimulus":"[A] option 1, [L] option 2, [G] neither","key_press":71,"name":"choice","trial_type":"html-keyboard-response","trial_index":43,"time_elapsed":96473,"internal_node_id":"0.0-43.0","subject":"S1C1675","sona":"41576","block":4,"time":"2021-09-28T00:07:59.799Z","response":"neither","certainty":"high","char":"G","transposition":3,"order":["shifted","swapped"],"probe_pitches":[2,7,10,5,6,2,13,11,14,2,6,9,4,13,11,10],"shifted_pitches":[2,7,10,5,6,2,13,12,14,2,6,9,4,13,11,10],"swapped_pitches":[2,7,10,5,6,2,13,14,11,2,6,9,4,13,11,10],"shift_direction":1,"question_num":31,"has_decoy":false},{"rt":1656.8999999761581,"stimulus":"[A] option 1, [L] option 2, [G] neither","key_press":71,"name":"choice","trial_type":"html-keyboard-response","trial_index":54,"time_elapsed":120869,"internal_node_id":"0.0-54.0","subject":"S1C1675","sona":"41576","block":4,"time":"2021-09-28T00:07:59.799Z","response":"neither","certainty":"high","char":"G","transposition":-3,"order":["swapped","shifted"],"probe_pitches":[8,6,8,6,1,8,11,4,-1,8,6,11,6,8,4,1],"shifted_pitches":[8,6,8,6,1,8,11,3,-1,8,6,11,6,8,4,1],"swapped_pitches":[8,6,8,6,1,8,11,-1,4,8,6,11,6,8,4,1],"shift_direction":-1,"question_num":41,"has_decoy":false},{"rt":255.09999999403954,"stimulus":"[A] option 1, [L] option 2, [G] neither","key_press":76,"name":"choice","trial_type":"html-keyboard-response","trial_index":65,"time_elapsed":144001,"internal_node_id":"0.0-65.0","subject":"S1C1675","sona":"41576","block":4,"time":"2021-09-28T00:07:59.799Z","response":"2nd","certainty":"high","char":"L","transposition":1,"order":["swapped","shifted"],"probe_pitches":[-1,2,4,9,2,9,2,4,6,9,6,2,6,9,2,9],"shifted_pitches":[-1,2,4,9,2,9,2,4,5,9,6,2,6,9,2,9],"swapped_pitches":[-1,2,4,9,2,9,2,6,4,9,6,2,6,9,2,9],"shift_direction":-1,"question_num":51,"has_decoy":false},{"rt":677.3000000119209,"stimulus":"[A] option 1, [L] option 2, [G] neither","key_press":65,"name":"choice","trial_type":"html-keyboard-response","trial_index":76,"time_elapsed":167700,"internal_node_id":"0.0-76.0","subject":"S1C1675","sona":"41576","block":4,"time":"2021-09-28T00:07:59.799Z","response":"1st","certainty":"high","char":"A","transposition":-3,"order":["shifted","swapped"],"probe_pitches":[7,3,8,12,10,14,10,5,8,13,6,10,6,12,7,12],"shifted_pitches":[7,3,8,12,10,14,10,5,9,13,6,10,6,12,7,12],"swapped_pitches":[7,3,8,12,10,14,10,8,5,13,6,10,6,12,7,12],"shift_direction":1,"question_num":61,"has_decoy":false},{"rt":1037,"stimulus":"[A] option 1, [L] option 2, [G] neither","key_press":71,"name":"choice","trial_type":"html-keyboard-response","trial_index":87,"time_elapsed":191349,"internal_node_id":"0.0-87.0","subject":"S1C1675","sona":"41576","block":4,"time":"2021-09-28T00:07:59.799Z","response":"neither","certainty":"high","char":"G","transposition":-2,"order":["shifted","swapped"],"probe_pitches":[-1,2,4,6,2,11,4,2,6,-1,4,11,9,11,4,9],"shifted_pitches":[-1,2,4,6,2,11,4,2,7,-1,4,11,9,11,4,9],"swapped_pitches":[-1,2,4,6,2,11,4,6,2,-1,4,11,9,11,4,9],"shift_direction":1,"question_num":71,"has_decoy":false},{"rt":2490.4000000059605,"stimulus":"[A] option 1, [L] option 2, [G] neither","key_press":71,"name":"choice","trial_type":"html-keyboard-response","trial_index":98,"time_elapsed":217140,"internal_node_id":"0.0-98.0","subject":"S1C1675","sona":"41576","block":4,"time":"2021-09-28T00:07:59.799Z","response":"neither","certainty":"high","char":"G","transposition":-2,"order":["shifted","swapped"],"probe_pitches":[5,7,8,10,2,12,6,10,12,5,12,4,10,14,13,5],"shifted_pitches":[5,7,8,10,2,12,6,10,11,5,12,4,10,14,13,5],"swapped_pitches":[5,7,8,10,2,12,6,12,10,5,12,4,10,14,13,5],"shift_direction":-1,"question_num":81,"has_decoy":false},{"rt":1744.3999999761581,"stimulus":"[A] option 1, [L] option 2, [G] neither","key_press":71,"name":"choice","trial_type":"html-keyboard-response","trial_index":109,"time_elapsed":242226,"internal_node_id":"0.0-109.0","subject":"S1C1675","sona":"41576","block":4,"time":"2021-09-28T00:07:59.799Z","response":"neither","certainty":"high","char":"G","transposition":-3,"order":["shifted","swapped"],"probe_pitches":[7,2,-1,4,11,2,4,-1,9,7,-1,11,9,11,4,2],"shifted_pitches":[7,2,-1,4,11,2,4,-1,8,7,-1,11,9,11,4,2],"swapped_pitches":[7,2,-1,4,11,2,4,9,-1,7,-1,11,9,11,4,2],"shift_direction":-1,"question_num":91,"has_decoy":false},{"rt":10737.300000011921,"stimulus":"[A] option 1, [L] option 2, [G] neither","key_press":71,"name":"choice","trial_type":"html-keyboard-response","trial_index":120,"time_elapsed":275891,"internal_node_id":"0.0-120.0","subject":"S1C1675","sona":"41576","block":4,"time":"2021-09-28T00:07:59.799Z","response":"neither","certainty":"high","char":"G","transposition":-1,"order":["swapped","shifted"],"probe_pitches":[4,-1,4,7,4,9,2,4,9,2,4,2,7,4,9,11],"shifted_pitches":[4,-1,4,7,4,9,2,5,9,2,4,2,7,4,9,11],"swapped_pitches":[4,-1,4,7,4,9,2,9,4,2,4,2,7,4,9,11],"shift_direction":1,"question_num":101,"has_decoy":false},{"rt":303.59999999403954,"stimulus":"[A] option 1, [L] option 2, [G] neither","key_press":76,"name":"choice","trial_type":"html-keyboard-response","trial_index":131,"time_elapsed":299501,"internal_node_id":"0.0-131.0","subject":"S1C1675","sona":"41576","block":4,"time":"2021-09-28T00:07:59.799Z","response":"2nd","certainty":"high","char":"L","transposition":-2,"order":["shifted","swapped"],"probe_pitches":[11,8,4,11,8,1,11,4,1,-1,6,11,8,6,1,6],"shifted_pitches":[11,8,4,11,8,1,11,5,1,-1,6,11,8,6,1,6],"swapped_pitches":[11,8,4,11,8,1,11,1,4,-1,6,11,8,6,1,6],"shift_direction":1,"question_num":111,"has_decoy":false},{"rt":593.6999999880791,"stimulus":"[A] option 1, [L] option 2, [G] neither","key_press":76,"name":"choice","trial_type":"html-keyboard-response","trial_index":142,"time_elapsed":322408,"internal_node_id":"0.0-142.0","subject":"S1C1675","sona":"41576","block":4,"time":"2021-09-28T00:07:59.799Z","response":"2nd","certainty":"high","char":"L","transposition":1,"order":["swapped","shifted"],"probe_pitches":[9,11,4,5,7,9,13,7,4,10,5,11,6,10,2,12],"shifted_pitches":[9,11,4,5,7,9,13,8,4,10,5,11,6,10,2,12],"swapped_pitches":[9,11,4,5,7,9,13,4,7,10,5,11,6,10,2,12],"shift_direction":1,"question_num":121,"has_decoy":false},{"rt":719.7999999821186,"stimulus":"[A] option 1, [L] option 2, [G] neither","key_press":71,"name":"choice","trial_type":"html-keyboard-response","trial_index":153,"time_elapsed":345576,"internal_node_id":"0.0-153.0","subject":"S1C1675","sona":"41576","block":4,"time":"2021-09-28T00:07:59.799Z","response":"neither","certainty":"high","char":"G","transposition":-1,"order":["shifted","swapped"],"probe_pitches":[6,3,-1,6,3,6,8,-1,3,6,1,-1,1,11,3,8],"shifted_pitches":[6,3,-1,6,3,6,8,0,3,6,1,-1,1,11,3,8],"swapped_pitches":[6,3,-1,6,3,6,8,3,-1,6,1,-1,1,11,3,8],"shift_direction":1,"question_num":131,"has_decoy":false},{"rt":363.10000002384186,"stimulus":"[A] option 1, [L] option 2, [G] neither","key_press":76,"name":"choice","trial_type":"html-keyboard-response","trial_index":164,"time_elapsed":368848,"internal_node_id":"0.0-164.0","subject":"S1C1675","sona":"41576","block":4,"time":"2021-09-28T00:07:59.799Z","response":"2nd","certainty":"high","char":"L","transposition":2,"order":["swapped","shifted"],"probe_pitches":[11,9,6,9,11,9,4,1,9,4,11,9,-1,9,1,4],"shifted_pitches":[11,9,6,9,11,9,4,1,10,4,11,9,-1,9,1,4],"swapped_pitches":[11,9,6,9,11,9,4,9,1,4,11,9,-1,9,1,4],"shift_direction":1,"question_num":141,"has_decoy":false},{"rt":2883.199999988079,"stimulus":"[A] option 1, [L] option 2, [G] neither","key_press":76,"name":"choice","trial_type":"html-keyboard-response","trial_index":175,"time_elapsed":393979,"internal_node_id":"0.0-175.0","subject":"S1C1675","sona":"41576","block":4,"time":"2021-09-28T00:07:59.799Z","response":"2nd","certainty":"high","char":"L","transposition":0,"order":["shifted","swapped"],"probe_pitches":[9,6,12,5,10,9,6,14,10,8,12,9,7,9,6,9],"shifted_pitches":[9,6,12,5,10,9,6,13,10,8,12,9,7,9,6,9],"swapped_pitches":[9,6,12,5,10,9,6,10,14,8,12,9,7,9,6,9],"shift_direction":-1,"question_num":151,"has_decoy":false},{"rt":811,"stimulus":"[A] option 1, [L] option 2, [G] neither","key_press":76,"name":"choice","trial_type":"html-keyboard-response","trial_index":186,"time_elapsed":417391,"internal_node_id":"0.0-186.0","subject":"S1C1675","sona":"41576","block":4,"time":"2021-09-28T00:07:59.799Z","response":"2nd","certainty":"high","char":"L","transposition":-1,"order":["swapped","shifted"],"probe_pitches":[2,8,6,14,8,13,9,6,13,7,6,4,14,4,2,13],"shifted_pitches":[2,8,6,14,8,13,9,5,13,7,6,4,14,4,2,13],"swapped_pitches":[2,8,6,14,8,13,9,13,6,7,6,4,14,4,2,13],"shift_direction":-1,"question_num":161,"has_decoy":false},{"rt":2392.0999999940395,"stimulus":"[A] option 1, [L] option 2, [G] neither","key_press":71,"name":"choice","trial_type":"html-keyboard-response","trial_index":197,"time_elapsed":442927,"internal_node_id":"0.0-197.0","subject":"S1C1675","sona":"41576","block":4,"time":"2021-09-28T00:07:59.799Z","response":"neither","certainty":"high","char":"G","transposition":2,"order":["swapped","shifted"],"probe_pitches":[5,3,5,13,9,14,8,2,11,7,8,14,2,12,8,9],"shifted_pitches":[5,3,5,13,9,14,8,2,10,7,8,14,2,12,8,9],"swapped_pitches":[5,3,5,13,9,14,8,11,2,7,8,14,2,12,8,9],"shift_direction":-1,"question_num":171,"has_decoy":false},{"rt":1731.5999999940395,"stimulus":"[A] option 1, [L] option 2, [G] neither","key_press":71,"name":"choice","trial_type":"html-keyboard-response","trial_index":208,"time_elapsed":467009,"internal_node_id":"0.0-208.0","subject":"S1C1675","sona":"41576","block":4,"time":"2021-09-28T00:07:59.799Z","response":"neither","certainty":"high","char":"G","transposition":3,"order":["swapped","shifted"],"probe_pitches":[6,1,-1,1,8,1,11,8,-1,6,8,1,3,1,-1,8],"shifted_pitches":[6,1,-1,1,8,1,11,7,-1,6,8,1,3,1,-1,8],"swapped_pitches":[6,1,-1,1,8,1,11,-1,8,6,8,1,3,1,-1,8],"shift_direction":-1,"question_num":181,"has_decoy":false},{"rt":3542.2000000178814,"stimulus":"[A] option 1, [L] option 2, [G] neither","key_press":71,"name":"choice","trial_type":"html-keyboard-response","trial_index":219,"time_elapsed":497008,"internal_node_id":"0.0-219.0","subject":"S1C1675","sona":"41576","block":4,"time":"2021-09-28T00:07:59.799Z","response":"neither","certainty":"high","char":"G","transposition":0,"order":["shifted","swapped"],"probe_pitches":[11,9,11,6,4,1,-1,1,4,11,1,11,6,4,6,11],"shifted_pitches":[11,9,11,6,4,1,-1,1,3,11,1,11,6,4,6,11],"swapped_pitches":[11,9,11,6,4,1,-1,4,1,11,1,11,6,4,6,11],"shift_direction":-1,"question_num":191,"has_decoy":false}]