[{"rt":674463.1999999881,"stimulus":"[A] option 1, [L] option 2, [G] neither","key_press":71,"name":"choice","trial_type":"html-keyboard-response","trial_index":10,"time_elapsed":7032521,"internal_node_id":"0.0-10.0","subject":"S1C0808","sona":"38883","block":4,"time":"2021-09-19T10:56:30.953Z","response":"neither","certainty":"high","char":"G","transposition":-2,"order":["swapped","shifted"],"probe_pitches":[8,4,2,4,9,7,6,2],"shifted_pitches":[8,4,2,3,9,7,6,2],"swapped_pitches":[8,4,2,9,4,7,6,2],"shift_direction":-1,"question_num":1,"has_decoy":false},{"rt":1240.1000000238419,"stimulus":"[A] option 1, [L] option 2, [G] neither","key_press":71,"name":"choice","trial_type":"html-keyboard-response","trial_index":21,"time_elapsed":7052610,"internal_node_id":"0.0-21.0","subject":"S1C0808","sona":"38883","block":4,"time":"2021-09-19T10:56:30.953Z","response":"neither","certainty":"high","char":"G","transposition":2,"order":["swapped","shifted"],"probe_pitches":[11,5,4,7,6,1,0,2],"shifted_pitches":[11,5,4,8,6,1,0,2],"swapped_pitches":[11,5,4,6,7,1,0,2],"shift_direction":1,"question_num":11,"has_decoy":false},{"rt":7738.300000011921,"stimulus":"[A] option 1, [L] option 2, [G] neither","key_press":71,"name":"choice","trial_type":"html-keyboard-response","trial_index":32,"time_elapsed":7075640,"internal_node_id":"0.0-32.0","subject":"S1C0808","sona":"38883","block":4,"time":"2021-09-19T10:56:30.953Z","response":"neither","certainty":"high","char":"G","transposition":3,"order":["swapped","shifted"],"probe_pitches":[6,10,4,-1,8,2,1,9],"shifted_pitches":[6,10,4,-1,7,2,1,9],"swapped_pitches":[6,10,4,8,-1,2,1,9],"shift_direction":-1,"question_num":21,"has_decoy":false},{"rt":2823.199999988079,"stimulus":"[A] option 1, [L] option 2, [G] neither","key_press":71,"name":"choice","trial_type":"html-keyboard-response","trial_index":43,"time_elapsed":7096843,"internal_node_id":"0.0-43.0","subject":"S1C0808","sona":"38883","block":4,"time":"2021-09-19T10:56:30.953Z","response":"neither","certainty":"high","char":"G","transposition":-2,"order":["shifted","swapped"],"probe_pitches":[3,8,2,5,0,7,11,10],"shifted_pitches":[3,8,2,5,1,7,11,10],"swapped_pitches":[3,8,2,0,5,7,11,10],"shift_direction":1,"question_num":31,"has_decoy":false},{"rt":2529.699999988079,"stimulus":"[A] option 1, [L] option 2, [G] neither","key_press":71,"name":"choice","trial_type":"html-keyboard-response","trial_index":54,"time_elapsed":7115318,"internal_node_id":"0.0-54.0","subject":"S1C0808","sona":"38883","block":4,"time":"2021-09-19T10:56:30.953Z","response":"neither","certainty":"high","char":"G","transposition":2,"order":["shifted","swapped"],"probe_pitches":[5,7,12,5,2,9,7,5],"shifted_pitches":[5,7,12,4,2,9,7,5],"swapped_pitches":[5,7,12,2,5,9,7,5],"shift_direction":-1,"question_num":41,"has_decoy":false},{"rt":1554.6000000238419,"stimulus":"[A] option 1, [L] option 2, [G] neither","key_press":71,"name":"choice","trial_type":"html-keyboard-response","trial_index":65,"time_elapsed":7133485,"internal_node_id":"0.0-65.0","subject":"S1C0808","sona":"38883","block":4,"time":"2021-09-19T10:56:30.953Z","response":"neither","certainty":"high","char":"G","transposition":-1,"order":["swapped","shifted"],"probe_pitches":[7,2,7,5,14,12,14,10],"shifted_pitches":[7,2,7,4,14,12,14,10],"swapped_pitches":[7,2,7,14,5,12,14,10],"shift_direction":-1,"question_num":51,"has_decoy":false},{"rt":902.8000000119209,"stimulus":"[A] option 1, [L] option 2, [G] neither","key_press":71,"name":"choice","trial_type":"html-keyboard-response","trial_index":76,"time_elapsed":7149878,"internal_node_id":"0.0-76.0","subject":"S1C0808","sona":"38883","block":4,"time":"2021-09-19T10:56:30.953Z","response":"neither","certainty":"high","char":"G","transposition":-1,"order":["shifted","swapped"],"probe_pitches":[4,7,9,7,11,14,9,2],"shifted_pitches":[4,7,9,7,12,14,9,2],"swapped_pitches":[4,7,9,11,7,14,9,2],"shift_direction":1,"question_num":61,"has_decoy":false},{"rt":1940.5,"stimulus":"[A] option 1, [L] option 2, [G] neither","key_press":71,"name":"choice","trial_type":"html-keyboard-response","trial_index":87,"time_elapsed":7167354,"internal_node_id":"0.0-87.0","subject":"S1C0808","sona":"38883","block":4,"time":"2021-09-19T10:56:30.953Z","response":"neither","certainty":"high","char":"G","transposition":1,"order":["swapped","shifted"],"probe_pitches":[7,9,2,7,12,2,4,12],"shifted_pitches":[7,9,2,7,11,2,4,12],"swapped_pitches":[7,9,2,12,7,2,4,12],"shift_direction":-1,"question_num":71,"has_decoy":false},{"rt":1874,"stimulus":"[A] option 1, [L] option 2, [G] neither","key_press":71,"name":"choice","trial_type":"html-keyboard-response","trial_index":98,"time_elapsed":7184429,"internal_node_id":"0.0-98.0","subject":"S1C0808","sona":"38883","block":4,"time":"2021-09-19T10:56:30.953Z","response":"neither","certainty":"high","char":"G","transposition":0,"order":["shifted","swapped"],"probe_pitches":[4,6,11,4,2,9,14,9],"shifted_pitches":[4,6,11,4,3,9,14,9],"swapped_pitches":[4,6,11,2,4,9,14,9],"shift_direction":1,"question_num":81,"has_decoy":false},{"rt":2569.899999976158,"stimulus":"[A] option 1, [L] option 2, [G] neither","key_press":71,"name":"choice","trial_type":"html-keyboard-response","trial_index":109,"time_elapsed":7202320,"internal_node_id":"0.0-109.0","subject":"S1C0808","sona":"38883","block":4,"time":"2021-09-19T10:56:30.953Z","response":"neither","certainty":"high","char":"G","transposition":-3,"order":["swapped","shifted"],"probe_pitches":[4,9,2,9,11,14,6,2],"shifted_pitches":[4,9,2,10,11,14,6,2],"swapped_pitches":[4,9,2,11,9,14,6,2],"shift_direction":1,"question_num":91,"has_decoy":false},{"rt":2139.7000000476837,"stimulus":"[A] option 1, [L] option 2, [G] neither","key_press":71,"name":"choice","trial_type":"html-keyboard-response","trial_index":120,"time_elapsed":7221324,"internal_node_id":"0.0-120.0","subject":"S1C0808","sona":"38883","block":4,"time":"2021-09-19T10:56:30.953Z","response":"neither","certainty":"high","char":"G","transposition":-3,"order":["swapped","shifted"],"probe_pitches":[4,7,14,12,7,2,12,9],"shifted_pitches":[4,7,14,12,8,2,12,9],"swapped_pitches":[4,7,14,7,12,2,12,9],"shift_direction":1,"question_num":101,"has_decoy":false},{"rt":3134.5,"stimulus":"[A] option 1, [L] option 2, [G] neither","key_press":71,"name":"choice","trial_type":"html-keyboard-response","trial_index":131,"time_elapsed":7240047,"internal_node_id":"0.0-131.0","subject":"S1C0808","sona":"38883","block":4,"time":"2021-09-19T10:56:30.953Z","response":"neither","certainty":"high","char":"G","transposition":0,"order":["shifted","swapped"],"probe_pitches":[2,8,1,7,5,10,2,1],"shifted_pitches":[2,8,1,6,5,10,2,1],"swapped_pitches":[2,8,1,5,7,10,2,1],"shift_direction":-1,"question_num":111,"has_decoy":false},{"rt":4745.199999988079,"stimulus":"[A] option 1, [L] option 2, [G] neither","key_press":71,"name":"choice","trial_type":"html-keyboard-response","trial_index":142,"time_elapsed":7260256,"internal_node_id":"0.0-142.0","subject":"S1C0808","sona":"38883","block":4,"time":"2021-09-19T10:56:30.953Z","response":"neither","certainty":"high","char":"G","transposition":-1,"order":["shifted","swapped"],"probe_pitches":[-1,0,3,0,1,9,5,1],"shifted_pitches":[-1,0,3,0,2,9,5,1],"swapped_pitches":[-1,0,3,1,0,9,5,1],"shift_direction":1,"question_num":121,"has_decoy":false},{"rt":3831.800000011921,"stimulus":"[A] option 1, [L] option 2, [G] neither","key_press":71,"name":"choice","trial_type":"html-keyboard-response","trial_index":153,"time_elapsed":7278713,"internal_node_id":"0.0-153.0","subject":"S1C0808","sona":"38883","block":4,"time":"2021-09-19T10:56:30.953Z","response":"neither","certainty":"high","char":"G","transposition":-3,"order":["swapped","shifted"],"probe_pitches":[1,2,1,7,5,8,7,5],"shifted_pitches":[1,2,1,7,4,8,7,5],"swapped_pitches":[1,2,1,5,7,8,7,5],"shift_direction":-1,"question_num":131,"has_decoy":false},{"rt":63802.80000001192,"stimulus":"[A] option 1, [L] option 2, [G] neither","key_press":71,"name":"choice","trial_type":"html-keyboard-response","trial_index":164,"time_elapsed":7358179,"internal_node_id":"0.0-164.0","subject":"S1C0808","sona":"38883","block":4,"time":"2021-09-19T10:56:30.953Z","response":"neither","certainty":"high","char":"G","transposition":3,"order":["shifted","swapped"],"probe_pitches":[5,7,2,9,12,2,7,2],"shifted_pitches":[5,7,2,9,11,2,7,2],"swapped_pitches":[5,7,2,12,9,2,7,2],"shift_direction":-1,"question_num":141,"has_decoy":false},{"rt":2619.5,"stimulus":"[A] option 1, [L] option 2, [G] neither","key_press":65,"name":"choice","trial_type":"html-keyboard-response","trial_index":175,"time_elapsed":7376409,"internal_node_id":"0.0-175.0","subject":"S1C0808","sona":"38883","block":4,"time":"2021-09-19T10:56:30.953Z","response":"1st","certainty":"high","char":"A","transposition":-2,"order":["swapped","shifted"],"probe_pitches":[7,4,7,14,9,11,7,9],"shifted_pitches":[7,4,7,13,9,11,7,9],"swapped_pitches":[7,4,7,9,14,11,7,9],"shift_direction":-1,"question_num":151,"has_decoy":false},{"rt":3004.899999976158,"stimulus":"[A] option 1, [L] option 2, [G] neither","key_press":71,"name":"choice","trial_type":"html-keyboard-response","trial_index":186,"time_elapsed":7396522,"internal_node_id":"0.0-186.0","subject":"S1C0808","sona":"38883","block":4,"time":"2021-09-19T10:56:30.953Z","response":"neither","certainty":"high","char":"G","transposition":-2,"order":["shifted","swapped"],"probe_pitches":[5,7,10,7,12,2,12,5],"shifted_pitches":[5,7,10,8,12,2,12,5],"swapped_pitches":[5,7,10,12,7,2,12,5],"shift_direction":1,"question_num":161,"has_decoy":false},{"rt":2364.800000011921,"stimulus":"[A] option 1, [L] option 2, [G] neither","key_press":71,"name":"choice","trial_type":"html-keyboard-response","trial_index":197,"time_elapsed":7414469,"internal_node_id":"0.0-197.0","subject":"S1C0808","sona":"38883","block":4,"time":"2021-09-19T10:56:30.953Z","response":"neither","certainty":"high","char":"G","transposition":-3,"order":["shifted","swapped"],"probe_pitches":[10,7,0,8,7,11,1,0],"shifted_pitches":[10,7,0,9,7,11,1,0],"swapped_pitches":[10,7,0,7,8,11,1,0],"shift_direction":1,"question_num":171,"has_decoy":false},{"rt":5478,"stimulus":"[A] option 1, [L] option 2, [G] neither","key_press":71,"name":"choice","trial_type":"html-keyboard-response","trial_index":208,"time_elapsed":7435439,"internal_node_id":"0.0-208.0","subject":"S1C0808","sona":"38883","block":4,"time":"2021-09-19T10:56:30.953Z","response":"neither","certainty":"high","char":"G","transposition":1,"order":["swapped","shifted"],"probe_pitches":[6,0,5,11,8,6,-1,5],"shifted_pitches":[6,0,5,10,8,6,-1,5],"swapped_pitches":[6,0,5,8,11,6,-1,5],"shift_direction":-1,"question_num":181,"has_decoy":false},{"rt":193776.30000001192,"stimulus":"[A] option 1, [L] option 2, [G] neither","key_press":71,"name":"choice","trial_type":"html-keyboard-response","trial_index":219,"time_elapsed":8094314,"internal_node_id":"0.0-219.0","subject":"S1C0808","sona":"38883","block":4,"time":"2021-09-19T10:56:30.953Z","response":"neither","certainty":"high","char":"G","transposition":-1,"order":["shifted","swapped"],"probe_pitches":[11,7,0,2,4,-1,2,-1],"shifted_pitches":[11,7,0,2,5,-1,2,-1],"swapped_pitches":[11,7,0,4,2,-1,2,-1],"shift_direction":1,"question_num":191,"has_decoy":false}]