[{"rt":2909.300000011921,"stimulus":"[A] option 1, [L] option 2, [G] neither","key_press":71,"name":"choice","trial_type":"html-keyboard-response","trial_index":10,"time_elapsed":18924,"internal_node_id":"0.0-10.0","subject":"S1C0808","sona":"38883","block":5,"time":"2021-09-19T11:02:33.276Z","response":"neither","certainty":"high","char":"G","transposition":-2,"order":["shifted","swapped"],"probe_pitches":[6,8,9,8,15,10,15,5],"shifted_pitches":[6,8,9,8,14,10,15,5],"swapped_pitches":[6,8,9,15,8,10,15,5],"shift_direction":-1,"question_num":1,"has_decoy":false},{"rt":2991.100000023842,"stimulus":"[A] option 1, [L] option 2, [G] neither","key_press":76,"name":"choice","trial_type":"html-keyboard-response","trial_index":21,"time_elapsed":40612,"internal_node_id":"0.0-21.0","subject":"S1C0808","sona":"38883","block":5,"time":"2021-09-19T11:02:33.276Z","response":"2nd","certainty":"high","char":"L","transposition":-3,"order":["shifted","swapped"],"probe_pitches":[6,8,3,11,8,9,6,5],"shifted_pitches":[6,8,3,10,8,9,6,5],"swapped_pitches":[6,8,3,8,11,9,6,5],"shift_direction":-1,"question_num":11,"has_decoy":false},{"rt":1952.1000000238419,"stimulus":"[A] option 1, [L] option 2, [G] neither","key_press":71,"name":"choice","trial_type":"html-keyboard-response","trial_index":32,"time_elapsed":58341,"internal_node_id":"0.0-32.0","subject":"S1C0808","sona":"38883","block":5,"time":"2021-09-19T11:02:33.276Z","response":"neither","certainty":"high","char":"G","transposition":0,"order":["swapped","shifted"],"probe_pitches":[3,4,3,4,6,14,9,6],"shifted_pitches":[3,4,3,4,7,14,9,6],"swapped_pitches":[3,4,3,6,4,14,9,6],"shift_direction":1,"question_num":21,"has_decoy":false},{"rt":1985.6000000238419,"stimulus":"[A] option 1, [L] option 2, [G] neither","key_press":76,"name":"choice","trial_type":"html-keyboard-response","trial_index":43,"time_elapsed":75543,"internal_node_id":"0.0-43.0","subject":"S1C0808","sona":"38883","block":5,"time":"2021-09-19T11:02:33.276Z","response":"2nd","certainty":"high","char":"L","transposition":-1,"order":["swapped","shifted"],"probe_pitches":[9,7,11,9,7,4,2,4],"shifted_pitches":[9,7,11,9,8,4,2,4],"swapped_pitches":[9,7,11,7,9,4,2,4],"shift_direction":1,"question_num":31,"has_decoy":false},{"rt":2776.5,"stimulus":"[A] option 1, [L] option 2, [G] neither","key_press":71,"name":"choice","trial_type":"html-keyboard-response","trial_index":54,"time_elapsed":95572,"internal_node_id":"0.0-54.0","subject":"S1C0808","sona":"38883","block":5,"time":"2021-09-19T11:02:33.276Z","response":"neither","certainty":"high","char":"G","transposition":1,"order":["swapped","shifted"],"probe_pitches":[6,1,8,4,6,8,11,8],"shifted_pitches":[6,1,8,5,6,8,11,8],"swapped_pitches":[6,1,8,6,4,8,11,8],"shift_direction":1,"question_num":41,"has_decoy":false},{"rt":1405.7999999523163,"stimulus":"[A] option 1, [L] option 2, [G] neither","key_press":71,"name":"choice","trial_type":"html-keyboard-response","trial_index":65,"time_elapsed":113124,"internal_node_id":"0.0-65.0","subject":"S1C0808","sona":"38883","block":5,"time":"2021-09-19T11:02:33.276Z","response":"neither","certainty":"high","char":"G","transposition":-3,"order":["shifted","swapped"],"probe_pitches":[6,11,8,1,6,4,11,1],"shifted_pitches":[6,11,8,1,5,4,11,1],"swapped_pitches":[6,11,8,6,1,4,11,1],"shift_direction":-1,"question_num":51,"has_decoy":false},{"rt":1092.4000000357628,"stimulus":"[A] option 1, [L] option 2, [G] neither","key_press":76,"name":"choice","trial_type":"html-keyboard-response","trial_index":76,"time_elapsed":128933,"internal_node_id":"0.0-76.0","subject":"S1C0808","sona":"38883","block":5,"time":"2021-09-19T11:02:33.276Z","response":"2nd","certainty":"high","char":"L","transposition":-2,"order":["shifted","swapped"],"probe_pitches":[4,6,4,1,6,9,-1,9],"shifted_pitches":[4,6,4,2,6,9,-1,9],"swapped_pitches":[4,6,4,6,1,9,-1,9],"shift_direction":1,"question_num":61,"has_decoy":false},{"rt":511.80000001192093,"stimulus":"[A] option 1, [L] option 2, [G] neither","key_press":71,"name":"choice","trial_type":"html-keyboard-response","trial_index":87,"time_elapsed":147180,"internal_node_id":"0.0-87.0","subject":"S1C0808","sona":"38883","block":5,"time":"2021-09-19T11:02:33.276Z","response":"neither","certainty":"high","char":"G","transposition":0,"order":["shifted","swapped"],"probe_pitches":[11,7,2,-1,7,4,9,2],"shifted_pitches":[11,7,2,-1,6,4,9,2],"swapped_pitches":[11,7,2,7,-1,4,9,2],"shift_direction":-1,"question_num":71,"has_decoy":false},{"rt":1649.2000000476837,"stimulus":"[A] option 1, [L] option 2, [G] neither","key_press":71,"name":"choice","trial_type":"html-keyboard-response","trial_index":98,"time_elapsed":163891,"internal_node_id":"0.0-98.0","subject":"S1C0808","sona":"38883","block":5,"time":"2021-09-19T11:02:33.276Z","response":"neither","certainty":"high","char":"G","transposition":1,"order":["swapped","shifted"],"probe_pitches":[6,5,4,12,7,14,7,4],"shifted_pitches":[6,5,4,12,8,14,7,4],"swapped_pitches":[6,5,4,7,12,14,7,4],"shift_direction":1,"question_num":81,"has_decoy":false},{"rt":1325.5,"stimulus":"[A] option 1, [L] option 2, [G] neither","key_press":71,"name":"choice","trial_type":"html-keyboard-response","trial_index":109,"time_elapsed":180186,"internal_node_id":"0.0-109.0","subject":"S1C0808","sona":"38883","block":5,"time":"2021-09-19T11:02:33.276Z","response":"neither","certainty":"high","char":"G","transposition":-3,"order":["shifted","swapped"],"probe_pitches":[14,13,15,14,8,3,6,10],"shifted_pitches":[14,13,15,14,9,3,6,10],"swapped_pitches":[14,13,15,8,14,3,6,10],"shift_direction":1,"question_num":91,"has_decoy":false},{"rt":4924.400000035763,"stimulus":"[A] option 1, [L] option 2, [G] neither","key_press":71,"name":"choice","trial_type":"html-keyboard-response","trial_index":120,"time_elapsed":201444,"internal_node_id":"0.0-120.0","subject":"S1C0808","sona":"38883","block":5,"time":"2021-09-19T11:02:33.276Z","response":"neither","certainty":"high","char":"G","transposition":-1,"order":["swapped","shifted"],"probe_pitches":[4,6,9,11,6,4,-1,1],"shifted_pitches":[4,6,9,12,6,4,-1,1],"swapped_pitches":[4,6,9,6,11,4,-1,1],"shift_direction":1,"question_num":101,"has_decoy":false},{"rt":1618.5999999642372,"stimulus":"[A] option 1, [L] option 2, [G] neither","key_press":71,"name":"choice","trial_type":"html-keyboard-response","trial_index":131,"time_elapsed":218058,"internal_node_id":"0.0-131.0","subject":"S1C0808","sona":"38883","block":5,"time":"2021-09-19T11:02:33.276Z","response":"neither","certainty":"high","char":"G","transposition":-1,"order":["swapped","shifted"],"probe_pitches":[8,6,9,11,10,3,11,5],"shifted_pitches":[8,6,9,12,10,3,11,5],"swapped_pitches":[8,6,9,10,11,3,11,5],"shift_direction":1,"question_num":111,"has_decoy":false},{"rt":1200.300000011921,"stimulus":"[A] option 1, [L] option 2, [G] neither","key_press":71,"name":"choice","trial_type":"html-keyboard-response","trial_index":142,"time_elapsed":235160,"internal_node_id":"0.0-142.0","subject":"S1C0808","sona":"38883","block":5,"time":"2021-09-19T11:02:33.276Z","response":"neither","certainty":"high","char":"G","transposition":-1,"order":["swapped","shifted"],"probe_pitches":[9,4,6,12,7,14,5,3],"shifted_pitches":[9,4,6,11,7,14,5,3],"swapped_pitches":[9,4,6,7,12,14,5,3],"shift_direction":-1,"question_num":121,"has_decoy":false},{"rt":872,"stimulus":"[A] option 1, [L] option 2, [G] neither","key_press":71,"name":"choice","trial_type":"html-keyboard-response","trial_index":153,"time_elapsed":252214,"internal_node_id":"0.0-153.0","subject":"S1C0808","sona":"38883","block":5,"time":"2021-09-19T11:02:33.276Z","response":"neither","certainty":"high","char":"G","transposition":2,"order":["shifted","swapped"],"probe_pitches":[11,9,14,11,6,3,9,14],"shifted_pitches":[11,9,14,11,5,3,9,14],"swapped_pitches":[11,9,14,6,11,3,9,14],"shift_direction":-1,"question_num":131,"has_decoy":false},{"rt":820.8000000119209,"stimulus":"[A] option 1, [L] option 2, [G] neither","key_press":71,"name":"choice","trial_type":"html-keyboard-response","trial_index":164,"time_elapsed":267720,"internal_node_id":"0.0-164.0","subject":"S1C0808","sona":"38883","block":5,"time":"2021-09-19T11:02:33.276Z","response":"neither","certainty":"high","char":"G","transposition":2,"order":["shifted","swapped"],"probe_pitches":[11,9,2,6,-1,9,2,4],"shifted_pitches":[11,9,2,6,-2,9,2,4],"swapped_pitches":[11,9,2,-1,6,9,2,4],"shift_direction":-1,"question_num":141,"has_decoy":false},{"rt":626.6999999880791,"stimulus":"[A] option 1, [L] option 2, [G] neither","key_press":71,"name":"choice","trial_type":"html-keyboard-response","trial_index":175,"time_elapsed":283676,"internal_node_id":"0.0-175.0","subject":"S1C0808","sona":"38883","block":5,"time":"2021-09-19T11:02:33.276Z","response":"neither","certainty":"high","char":"G","transposition":-3,"order":["swapped","shifted"],"probe_pitches":[9,11,6,2,9,11,4,9],"shifted_pitches":[9,11,6,1,9,11,4,9],"swapped_pitches":[9,11,6,9,2,11,4,9],"shift_direction":-1,"question_num":151,"has_decoy":false},{"rt":7732,"stimulus":"[A] option 1, [L] option 2, [G] neither","key_press":71,"name":"choice","trial_type":"html-keyboard-response","trial_index":186,"time_elapsed":306190,"internal_node_id":"0.0-186.0","subject":"S1C0808","sona":"38883","block":5,"time":"2021-09-19T11:02:33.276Z","response":"neither","certainty":"high","char":"G","transposition":3,"order":["swapped","shifted"],"probe_pitches":[6,3,1,3,6,1,8,11],"shifted_pitches":[6,3,1,2,6,1,8,11],"swapped_pitches":[6,3,1,6,3,1,8,11],"shift_direction":-1,"question_num":161,"has_decoy":false},{"rt":955.3999999761581,"stimulus":"[A] option 1, [L] option 2, [G] neither","key_press":71,"name":"choice","trial_type":"html-keyboard-response","trial_index":197,"time_elapsed":321664,"internal_node_id":"0.0-197.0","subject":"S1C0808","sona":"38883","block":5,"time":"2021-09-19T11:02:33.276Z","response":"neither","certainty":"high","char":"G","transposition":3,"order":["swapped","shifted"],"probe_pitches":[3,5,8,12,6,4,15,4],"shifted_pitches":[3,5,8,13,6,4,15,4],"swapped_pitches":[3,5,8,6,12,4,15,4],"shift_direction":1,"question_num":171,"has_decoy":false},{"rt":855.5,"stimulus":"[A] option 1, [L] option 2, [G] neither","key_press":71,"name":"choice","trial_type":"html-keyboard-response","trial_index":208,"time_elapsed":337175,"internal_node_id":"0.0-208.0","subject":"S1C0808","sona":"38883","block":5,"time":"2021-09-19T11:02:33.276Z","response":"neither","certainty":"high","char":"G","transposition":-2,"order":["shifted","swapped"],"probe_pitches":[6,8,11,6,8,3,-1,1],"shifted_pitches":[6,8,11,6,9,3,-1,1],"swapped_pitches":[6,8,11,8,6,3,-1,1],"shift_direction":1,"question_num":181,"has_decoy":false},{"rt":531.8000000119209,"stimulus":"[A] option 1, [L] option 2, [G] neither","key_press":71,"name":"choice","trial_type":"html-keyboard-response","trial_index":219,"time_elapsed":353348,"internal_node_id":"0.0-219.0","subject":"S1C0808","sona":"38883","block":5,"time":"2021-09-19T11:02:33.276Z","response":"neither","certainty":"high","char":"G","transposition":-2,"order":["shifted","swapped"],"probe_pitches":[7,12,13,7,3,4,8,12],"shifted_pitches":[7,12,13,6,3,4,8,12],"swapped_pitches":[7,12,13,3,7,4,8,12],"shift_direction":-1,"question_num":191,"has_decoy":false}]