[{"rt":3487.399999976158,"stimulus":"[A] option 1, [L] option 2, [G] neither","key_press":76,"name":"choice","trial_type":"html-keyboard-response","trial_index":10,"time_elapsed":21955,"internal_node_id":"0.0-10.0","subject":"S1C0808","sona":"38883","block":2,"time":"2021-09-19T08:20:10.069Z","response":"2nd","certainty":"high","char":"L","transposition":1,"order":["swapped","shifted"],"probe_pitches":[15,13,15,13,5,3,8,10],"shifted_pitches":[15,13,15,12,5,3,8,10],"swapped_pitches":[15,13,15,5,13,3,8,10],"shift_direction":-1,"question_num":1,"has_decoy":false},{"rt":6172.599999964237,"stimulus":"[A] option 1, [L] option 2, [G] neither","key_press":65,"name":"choice","trial_type":"html-keyboard-response","trial_index":21,"time_elapsed":44571,"internal_node_id":"0.0-21.0","subject":"S1C0808","sona":"38883","block":2,"time":"2021-09-19T08:20:10.069Z","response":"1st","certainty":"high","char":"A","transposition":2,"order":["swapped","shifted"],"probe_pitches":[0,-2,4,2,5,3,5,-2],"shifted_pitches":[0,-2,4,2,6,3,5,-2],"swapped_pitches":[0,-2,4,5,2,3,5,-2],"shift_direction":1,"question_num":11,"has_decoy":false},{"rt":7864.5,"stimulus":"[A] option 1, [L] option 2, [G] neither","key_press":76,"name":"choice","trial_type":"html-keyboard-response","trial_index":32,"time_elapsed":68999,"internal_node_id":"0.0-32.0","subject":"S1C0808","sona":"38883","block":2,"time":"2021-09-19T08:20:10.069Z","response":"2nd","certainty":"high","char":"L","transposition":1,"order":["swapped","shifted"],"probe_pitches":[8,2,3,0,9,6,-1,6],"shifted_pitches":[8,2,3,1,9,6,-1,6],"swapped_pitches":[8,2,3,9,0,6,-1,6],"shift_direction":1,"question_num":21,"has_decoy":false},{"rt":14995,"stimulus":"[A] option 1, [L] option 2, [G] neither","key_press":71,"name":"choice","trial_type":"html-keyboard-response","trial_index":43,"time_elapsed":99574,"internal_node_id":"0.0-43.0","subject":"S1C0808","sona":"38883","block":2,"time":"2021-09-19T08:20:10.069Z","response":"neither","certainty":"high","char":"G","transposition":-3,"order":["shifted","swapped"],"probe_pitches":[7,9,5,4,-3,-1,5,2],"shifted_pitches":[7,9,5,3,-3,-1,5,2],"swapped_pitches":[7,9,5,-3,4,-1,5,2],"shift_direction":-1,"question_num":31,"has_decoy":false},{"rt":970,"stimulus":"[A] option 1, [L] option 2, [G] neither","key_press":71,"name":"choice","trial_type":"html-keyboard-response","trial_index":54,"time_elapsed":117373,"internal_node_id":"0.0-54.0","subject":"S1C0808","sona":"38883","block":2,"time":"2021-09-19T08:20:10.069Z","response":"neither","certainty":"high","char":"G","transposition":-1,"order":["swapped","shifted"],"probe_pitches":[5,9,5,4,0,2,-3,2],"shifted_pitches":[5,9,5,4,-1,2,-3,2],"swapped_pitches":[5,9,5,0,4,2,-3,2],"shift_direction":-1,"question_num":41,"has_decoy":false},{"rt":1377.300000011921,"stimulus":"[A] option 1, [L] option 2, [G] neither","key_press":71,"name":"choice","trial_type":"html-keyboard-response","trial_index":65,"time_elapsed":136710,"internal_node_id":"0.0-65.0","subject":"S1C0808","sona":"38883","block":2,"time":"2021-09-19T08:20:10.069Z","response":"neither","certainty":"high","char":"G","transposition":-1,"order":["shifted","swapped"],"probe_pitches":[7,8,6,-1,1,4,-3,1],"shifted_pitches":[7,8,6,0,1,4,-3,1],"swapped_pitches":[7,8,6,1,-1,4,-3,1],"shift_direction":1,"question_num":51,"has_decoy":false},{"rt":1441.699999988079,"stimulus":"[A] option 1, [L] option 2, [G] neither","key_press":76,"name":"choice","trial_type":"html-keyboard-response","trial_index":76,"time_elapsed":153285,"internal_node_id":"0.0-76.0","subject":"S1C0808","sona":"38883","block":2,"time":"2021-09-19T08:20:10.069Z","response":"2nd","certainty":"high","char":"L","transposition":-2,"order":["shifted","swapped"],"probe_pitches":[1,6,5,6,2,9,-2,8],"shifted_pitches":[1,6,5,7,2,9,-2,8],"swapped_pitches":[1,6,5,2,6,9,-2,8],"shift_direction":1,"question_num":61,"has_decoy":false},{"rt":746.0999999642372,"stimulus":"[A] option 1, [L] option 2, [G] neither","key_press":71,"name":"choice","trial_type":"html-keyboard-response","trial_index":87,"time_elapsed":169272,"internal_node_id":"0.0-87.0","subject":"S1C0808","sona":"38883","block":2,"time":"2021-09-19T08:20:10.069Z","response":"neither","certainty":"high","char":"G","transposition":-3,"order":["swapped","shifted"],"probe_pitches":[6,3,8,13,6,15,11,15],"shifted_pitches":[6,3,8,12,6,15,11,15],"swapped_pitches":[6,3,8,6,13,15,11,15],"shift_direction":-1,"question_num":71,"has_decoy":false},{"rt":5036.100000023842,"stimulus":"[A] option 1, [L] option 2, [G] neither","key_press":71,"name":"choice","trial_type":"html-keyboard-response","trial_index":98,"time_elapsed":190597,"internal_node_id":"0.0-98.0","subject":"S1C0808","sona":"38883","block":2,"time":"2021-09-19T08:20:10.069Z","response":"neither","certainty":"high","char":"G","transposition":-3,"order":["shifted","swapped"],"probe_pitches":[-3,0,2,6,5,-3,5,7],"shifted_pitches":[-3,0,2,6,4,-3,5,7],"swapped_pitches":[-3,0,2,5,6,-3,5,7],"shift_direction":-1,"question_num":81,"has_decoy":false},{"rt":3482.400000035763,"stimulus":"[A] option 1, [L] option 2, [G] neither","key_press":76,"name":"choice","trial_type":"html-keyboard-response","trial_index":109,"time_elapsed":211661,"internal_node_id":"0.0-109.0","subject":"S1C0808","sona":"38883","block":2,"time":"2021-09-19T08:20:10.069Z","response":"2nd","certainty":"high","char":"L","transposition":-1,"order":["shifted","swapped"],"probe_pitches":[6,11,8,15,11,13,8,6],"shifted_pitches":[6,11,8,15,12,13,8,6],"swapped_pitches":[6,11,8,11,15,13,8,6],"shift_direction":1,"question_num":91,"has_decoy":false},{"rt":2229.599999964237,"stimulus":"[A] option 1, [L] option 2, [G] neither","key_press":71,"name":"choice","trial_type":"html-keyboard-response","trial_index":120,"time_elapsed":231529,"internal_node_id":"0.0-120.0","subject":"S1C0808","sona":"38883","block":2,"time":"2021-09-19T08:20:10.069Z","response":"neither","certainty":"high","char":"G","transposition":-1,"order":["shifted","swapped"],"probe_pitches":[8,5,10,5,3,13,10,15],"shifted_pitches":[8,5,10,6,3,13,10,15],"swapped_pitches":[8,5,10,3,5,13,10,15],"shift_direction":1,"question_num":101,"has_decoy":false},{"rt":540.2999999523163,"stimulus":"[A] option 1, [L] option 2, [G] neither","key_press":76,"name":"choice","trial_type":"html-keyboard-response","trial_index":131,"time_elapsed":248397,"internal_node_id":"0.0-131.0","subject":"S1C0808","sona":"38883","block":2,"time":"2021-09-19T08:20:10.069Z","response":"2nd","certainty":"high","char":"L","transposition":-3,"order":["swapped","shifted"],"probe_pitches":[3,6,10,15,13,3,8,15],"shifted_pitches":[3,6,10,16,13,3,8,15],"swapped_pitches":[3,6,10,13,15,3,8,15],"shift_direction":1,"question_num":111,"has_decoy":false},{"rt":1384.300000011921,"stimulus":"[A] option 1, [L] option 2, [G] neither","key_press":71,"name":"choice","trial_type":"html-keyboard-response","trial_index":142,"time_elapsed":265587,"internal_node_id":"0.0-142.0","subject":"S1C0808","sona":"38883","block":2,"time":"2021-09-19T08:20:10.069Z","response":"neither","certainty":"high","char":"G","transposition":-2,"order":["swapped","shifted"],"probe_pitches":[-1,-2,-1,7,3,-2,9,5],"shifted_pitches":[-1,-2,-1,7,2,-2,9,5],"swapped_pitches":[-1,-2,-1,3,7,-2,9,5],"shift_direction":-1,"question_num":121,"has_decoy":false},{"rt":944.1999999880791,"stimulus":"[A] option 1, [L] option 2, [G] neither","key_press":76,"name":"choice","trial_type":"html-keyboard-response","trial_index":153,"time_elapsed":282999,"internal_node_id":"0.0-153.0","subject":"S1C0808","sona":"38883","block":2,"time":"2021-09-19T08:20:10.069Z","response":"2nd","certainty":"high","char":"L","transposition":0,"order":["swapped","shifted"],"probe_pitches":[0,1,3,4,-1,3,8,-1],"shifted_pitches":[0,1,3,5,-1,3,8,-1],"swapped_pitches":[0,1,3,-1,4,3,8,-1],"shift_direction":1,"question_num":131,"has_decoy":false},{"rt":2118.600000023842,"stimulus":"[A] option 1, [L] option 2, [G] neither","key_press":65,"name":"choice","trial_type":"html-keyboard-response","trial_index":164,"time_elapsed":300196,"internal_node_id":"0.0-164.0","subject":"S1C0808","sona":"38883","block":2,"time":"2021-09-19T08:20:10.069Z","response":"1st","certainty":"high","char":"A","transposition":3,"order":["shifted","swapped"],"probe_pitches":[2,-1,6,4,9,5,7,-3],"shifted_pitches":[2,-1,6,4,8,5,7,-3],"swapped_pitches":[2,-1,6,9,4,5,7,-3],"shift_direction":-1,"question_num":141,"has_decoy":false},{"rt":1486.5,"stimulus":"[A] option 1, [L] option 2, [G] neither","key_press":76,"name":"choice","trial_type":"html-keyboard-response","trial_index":175,"time_elapsed":317537,"internal_node_id":"0.0-175.0","subject":"S1C0808","sona":"38883","block":2,"time":"2021-09-19T08:20:10.069Z","response":"2nd","certainty":"high","char":"L","transposition":3,"order":["shifted","swapped"],"probe_pitches":[5,8,10,8,15,12,3,12],"shifted_pitches":[5,8,10,8,16,12,3,12],"swapped_pitches":[5,8,10,15,8,12,3,12],"shift_direction":1,"question_num":151,"has_decoy":false},{"rt":3783.900000035763,"stimulus":"[A] option 1, [L] option 2, [G] neither","key_press":76,"name":"choice","trial_type":"html-keyboard-response","trial_index":186,"time_elapsed":336907,"internal_node_id":"0.0-186.0","subject":"S1C0808","sona":"38883","block":2,"time":"2021-09-19T08:20:10.069Z","response":"2nd","certainty":"high","char":"L","transposition":-2,"order":["shifted","swapped"],"probe_pitches":[3,6,13,10,8,6,15,8],"shifted_pitches":[3,6,13,9,8,6,15,8],"swapped_pitches":[3,6,13,8,10,6,15,8],"shift_direction":-1,"question_num":161,"has_decoy":false},{"rt":8065.5,"stimulus":"[A] option 1, [L] option 2, [G] neither","key_press":71,"name":"choice","trial_type":"html-keyboard-response","trial_index":197,"time_elapsed":361605,"internal_node_id":"0.0-197.0","subject":"S1C0808","sona":"38883","block":2,"time":"2021-09-19T08:20:10.069Z","response":"neither","certainty":"high","char":"G","transposition":-2,"order":["shifted","swapped"],"probe_pitches":[8,5,10,3,8,10,12,15],"shifted_pitches":[8,5,10,3,7,10,12,15],"swapped_pitches":[8,5,10,8,3,10,12,15],"shift_direction":-1,"question_num":171,"has_decoy":false},{"rt":1823.8999999761581,"stimulus":"[A] option 1, [L] option 2, [G] neither","key_press":65,"name":"choice","trial_type":"html-keyboard-response","trial_index":208,"time_elapsed":378814,"internal_node_id":"0.0-208.0","subject":"S1C0808","sona":"38883","block":2,"time":"2021-09-19T08:20:10.069Z","response":"1st","certainty":"high","char":"A","transposition":2,"order":["swapped","shifted"],"probe_pitches":[15,12,5,10,12,7,3,5],"shifted_pitches":[15,12,5,10,13,7,3,5],"swapped_pitches":[15,12,5,12,10,7,3,5],"shift_direction":1,"question_num":181,"has_decoy":false},{"rt":1558.800000011921,"stimulus":"[A] option 1, [L] option 2, [G] neither","key_press":71,"name":"choice","trial_type":"html-keyboard-response","trial_index":219,"time_elapsed":396212,"internal_node_id":"0.0-219.0","subject":"S1C0808","sona":"38883","block":2,"time":"2021-09-19T08:20:10.069Z","response":"neither","certainty":"high","char":"G","transposition":0,"order":["swapped","shifted"],"probe_pitches":[7,10,12,7,5,15,12,3],"shifted_pitches":[7,10,12,7,4,15,12,3],"swapped_pitches":[7,10,12,5,7,15,12,3],"shift_direction":-1,"question_num":191,"has_decoy":false}]