[{"rt":1901.6000000238419,"stimulus":"[A] option 1, [L] option 2, [G] neither","key_press":71,"name":"choice","trial_type":"html-keyboard-response","trial_index":10,"time_elapsed":20627,"internal_node_id":"0.0-10.0","subject":"S1C0808","sona":"38883","block":3,"time":"2021-09-19T08:41:31.779Z","response":"neither","certainty":"high","char":"G","transposition":0,"order":["shifted","swapped"],"probe_pitches":[13,8,6,1,3,10,3,10],"shifted_pitches":[13,8,6,1,2,10,3,10],"swapped_pitches":[13,8,6,3,1,10,3,10],"shift_direction":-1,"question_num":1,"has_decoy":false},{"rt":3382.600000023842,"stimulus":"[A] option 1, [L] option 2, [G] neither","key_press":71,"name":"choice","trial_type":"html-keyboard-response","trial_index":21,"time_elapsed":41842,"internal_node_id":"0.0-21.0","subject":"S1C0808","sona":"38883","block":3,"time":"2021-09-19T08:41:31.779Z","response":"neither","certainty":"high","char":"G","transposition":3,"order":["shifted","swapped"],"probe_pitches":[9,3,6,3,7,2,10,11],"shifted_pitches":[9,3,6,4,7,2,10,11],"swapped_pitches":[9,3,6,7,3,2,10,11],"shift_direction":1,"question_num":11,"has_decoy":false},{"rt":9513.300000011921,"stimulus":"[A] option 1, [L] option 2, [G] neither","key_press":76,"name":"choice","trial_type":"html-keyboard-response","trial_index":32,"time_elapsed":68388,"internal_node_id":"0.0-32.0","subject":"S1C0808","sona":"38883","block":3,"time":"2021-09-19T08:41:31.779Z","response":"2nd","certainty":"high","char":"L","transposition":-2,"order":["swapped","shifted"],"probe_pitches":[13,9,11,9,6,4,13,11],"shifted_pitches":[13,9,11,8,6,4,13,11],"swapped_pitches":[13,9,11,6,9,4,13,11],"shift_direction":-1,"question_num":21,"has_decoy":false},{"rt":2156.5,"stimulus":"[A] option 1, [L] option 2, [G] neither","key_press":71,"name":"choice","trial_type":"html-keyboard-response","trial_index":43,"time_elapsed":86221,"internal_node_id":"0.0-43.0","subject":"S1C0808","sona":"38883","block":3,"time":"2021-09-19T08:41:31.779Z","response":"neither","certainty":"high","char":"G","transposition":-1,"order":["shifted","swapped"],"probe_pitches":[1,0,2,9,6,3,6,0],"shifted_pitches":[1,0,2,9,7,3,6,0],"swapped_pitches":[1,0,2,6,9,3,6,0],"shift_direction":1,"question_num":31,"has_decoy":false},{"rt":3190.400000035763,"stimulus":"[A] option 1, [L] option 2, [G] neither","key_press":71,"name":"choice","trial_type":"html-keyboard-response","trial_index":54,"time_elapsed":105090,"internal_node_id":"0.0-54.0","subject":"S1C0808","sona":"38883","block":3,"time":"2021-09-19T08:41:31.779Z","response":"neither","certainty":"high","char":"G","transposition":3,"order":["shifted","swapped"],"probe_pitches":[13,9,11,4,6,11,4,6],"shifted_pitches":[13,9,11,4,7,11,4,6],"swapped_pitches":[13,9,11,6,4,11,4,6],"shift_direction":1,"question_num":41,"has_decoy":false},{"rt":2548.7999999523163,"stimulus":"[A] option 1, [L] option 2, [G] neither","key_press":76,"name":"choice","trial_type":"html-keyboard-response","trial_index":65,"time_elapsed":123051,"internal_node_id":"0.0-65.0","subject":"S1C0808","sona":"38883","block":3,"time":"2021-09-19T08:41:31.779Z","response":"2nd","certainty":"high","char":"L","transposition":-2,"order":["shifted","swapped"],"probe_pitches":[1,3,6,11,3,1,8,3],"shifted_pitches":[1,3,6,10,3,1,8,3],"swapped_pitches":[1,3,6,3,11,1,8,3],"shift_direction":-1,"question_num":51,"has_decoy":false},{"rt":4299.300000011921,"stimulus":"[A] option 1, [L] option 2, [G] neither","key_press":76,"name":"choice","trial_type":"html-keyboard-response","trial_index":76,"time_elapsed":142855,"internal_node_id":"0.0-76.0","subject":"S1C0808","sona":"38883","block":3,"time":"2021-09-19T08:41:31.779Z","response":"2nd","certainty":"high","char":"L","transposition":2,"order":["swapped","shifted"],"probe_pitches":[13,10,3,10,8,13,5,10],"shifted_pitches":[13,10,3,10,9,13,5,10],"swapped_pitches":[13,10,3,8,10,13,5,10],"shift_direction":1,"question_num":61,"has_decoy":false},{"rt":4455.199999988079,"stimulus":"[A] option 1, [L] option 2, [G] neither","key_press":65,"name":"choice","trial_type":"html-keyboard-response","trial_index":87,"time_elapsed":166878,"internal_node_id":"0.0-87.0","subject":"S1C0808","sona":"38883","block":3,"time":"2021-09-19T08:41:31.779Z","response":"1st","certainty":"high","char":"A","transposition":0,"order":["swapped","shifted"],"probe_pitches":[8,6,10,6,11,4,2,10],"shifted_pitches":[8,6,10,5,11,4,2,10],"swapped_pitches":[8,6,10,11,6,4,2,10],"shift_direction":-1,"question_num":71,"has_decoy":false},{"rt":61250,"stimulus":"[A] option 1, [L] option 2, [G] neither","key_press":71,"name":"choice","trial_type":"html-keyboard-response","trial_index":98,"time_elapsed":244366,"internal_node_id":"0.0-98.0","subject":"S1C0808","sona":"38883","block":3,"time":"2021-09-19T08:41:31.779Z","response":"neither","certainty":"high","char":"G","transposition":-2,"order":["swapped","shifted"],"probe_pitches":[10,7,3,7,10,0,1,3],"shifted_pitches":[10,7,3,7,9,0,1,3],"swapped_pitches":[10,7,3,10,7,0,1,3],"shift_direction":-1,"question_num":81,"has_decoy":false},{"rt":3026.800000011921,"stimulus":"[A] option 1, [L] option 2, [G] neither","key_press":76,"name":"choice","trial_type":"html-keyboard-response","trial_index":109,"time_elapsed":263735,"internal_node_id":"0.0-109.0","subject":"S1C0808","sona":"38883","block":3,"time":"2021-09-19T08:41:31.779Z","response":"2nd","certainty":"high","char":"L","transposition":-3,"order":["shifted","swapped"],"probe_pitches":[10,5,2,9,0,10,1,7],"shifted_pitches":[10,5,2,8,0,10,1,7],"swapped_pitches":[10,5,2,0,9,10,1,7],"shift_direction":-1,"question_num":91,"has_decoy":false},{"rt":2264.300000011921,"stimulus":"[A] option 1, [L] option 2, [G] neither","key_press":71,"name":"choice","trial_type":"html-keyboard-response","trial_index":120,"time_elapsed":281816,"internal_node_id":"0.0-120.0","subject":"S1C0808","sona":"38883","block":3,"time":"2021-09-19T08:41:31.779Z","response":"neither","certainty":"high","char":"G","transposition":-1,"order":["swapped","shifted"],"probe_pitches":[13,8,4,11,6,1,11,1],"shifted_pitches":[13,8,4,11,7,1,11,1],"swapped_pitches":[13,8,4,6,11,1,11,1],"shift_direction":1,"question_num":101,"has_decoy":false},{"rt":11076.300000011921,"stimulus":"[A] option 1, [L] option 2, [G] neither","key_press":76,"name":"choice","trial_type":"html-keyboard-response","trial_index":131,"time_elapsed":308094,"internal_node_id":"0.0-131.0","subject":"S1C0808","sona":"38883","block":3,"time":"2021-09-19T08:41:31.779Z","response":"2nd","certainty":"high","char":"L","transposition":2,"order":["swapped","shifted"],"probe_pitches":[9,7,1,7,0,9,12,10],"shifted_pitches":[9,7,1,6,0,9,12,10],"swapped_pitches":[9,7,1,0,7,9,12,10],"shift_direction":-1,"question_num":111,"has_decoy":false},{"rt":1959.5,"stimulus":"[A] option 1, [L] option 2, [G] neither","key_press":71,"name":"choice","trial_type":"html-keyboard-response","trial_index":142,"time_elapsed":325004,"internal_node_id":"0.0-142.0","subject":"S1C0808","sona":"38883","block":3,"time":"2021-09-19T08:41:31.779Z","response":"neither","certainty":"high","char":"G","transposition":-3,"order":["shifted","swapped"],"probe_pitches":[12,8,7,2,0,9,3,6],"shifted_pitches":[12,8,7,2,-1,9,3,6],"swapped_pitches":[12,8,7,0,2,9,3,6],"shift_direction":-1,"question_num":121,"has_decoy":false},{"rt":3336.300000011921,"stimulus":"[A] option 1, [L] option 2, [G] neither","key_press":71,"name":"choice","trial_type":"html-keyboard-response","trial_index":153,"time_elapsed":343933,"internal_node_id":"0.0-153.0","subject":"S1C0808","sona":"38883","block":3,"time":"2021-09-19T08:41:31.779Z","response":"neither","certainty":"high","char":"G","transposition":-3,"order":["shifted","swapped"],"probe_pitches":[6,10,8,3,10,8,13,6],"shifted_pitches":[6,10,8,2,10,8,13,6],"swapped_pitches":[6,10,8,10,3,8,13,6],"shift_direction":-1,"question_num":131,"has_decoy":false},{"rt":34433,"stimulus":"[A] option 1, [L] option 2, [G] neither","key_press":71,"name":"choice","trial_type":"html-keyboard-response","trial_index":164,"time_elapsed":394865,"internal_node_id":"0.0-164.0","subject":"S1C0808","sona":"38883","block":3,"time":"2021-09-19T08:41:31.779Z","response":"neither","certainty":"high","char":"G","transposition":-3,"order":["swapped","shifted"],"probe_pitches":[13,8,4,6,11,4,1,4],"shifted_pitches":[13,8,4,6,12,4,1,4],"swapped_pitches":[13,8,4,11,6,4,1,4],"shift_direction":1,"question_num":141,"has_decoy":false},{"rt":1591.699999988079,"stimulus":"[A] option 1, [L] option 2, [G] neither","key_press":65,"name":"choice","trial_type":"html-keyboard-response","trial_index":175,"time_elapsed":412289,"internal_node_id":"0.0-175.0","subject":"S1C0808","sona":"38883","block":3,"time":"2021-09-19T08:41:31.779Z","response":"1st","certainty":"high","char":"A","transposition":-1,"order":["shifted","swapped"],"probe_pitches":[3,5,8,10,5,8,3,13],"shifted_pitches":[3,5,8,9,5,8,3,13],"swapped_pitches":[3,5,8,5,10,8,3,13],"shift_direction":-1,"question_num":151,"has_decoy":false},{"rt":1309.2000000476837,"stimulus":"[A] option 1, [L] option 2, [G] neither","key_press":71,"name":"choice","trial_type":"html-keyboard-response","trial_index":186,"time_elapsed":428721,"internal_node_id":"0.0-186.0","subject":"S1C0808","sona":"38883","block":3,"time":"2021-09-19T08:41:31.779Z","response":"neither","certainty":"high","char":"G","transposition":1,"order":["swapped","shifted"],"probe_pitches":[8,10,5,4,1,7,11,5],"shifted_pitches":[8,10,5,4,2,7,11,5],"swapped_pitches":[8,10,5,1,4,7,11,5],"shift_direction":1,"question_num":161,"has_decoy":false},{"rt":2122.699999988079,"stimulus":"[A] option 1, [L] option 2, [G] neither","key_press":71,"name":"choice","trial_type":"html-keyboard-response","trial_index":197,"time_elapsed":446030,"internal_node_id":"0.0-197.0","subject":"S1C0808","sona":"38883","block":3,"time":"2021-09-19T08:41:31.779Z","response":"neither","certainty":"high","char":"G","transposition":-1,"order":["shifted","swapped"],"probe_pitches":[10,9,7,2,9,6,9,5],"shifted_pitches":[10,9,7,3,9,6,9,5],"swapped_pitches":[10,9,7,9,2,6,9,5],"shift_direction":1,"question_num":171,"has_decoy":false},{"rt":7031.899999976158,"stimulus":"[A] option 1, [L] option 2, [G] neither","key_press":76,"name":"choice","trial_type":"html-keyboard-response","trial_index":208,"time_elapsed":468710,"internal_node_id":"0.0-208.0","subject":"S1C0808","sona":"38883","block":3,"time":"2021-09-19T08:41:31.779Z","response":"2nd","certainty":"high","char":"L","transposition":-2,"order":["swapped","shifted"],"probe_pitches":[2,6,2,8,9,12,7,4],"shifted_pitches":[2,6,2,8,10,12,7,4],"swapped_pitches":[2,6,2,9,8,12,7,4],"shift_direction":1,"question_num":181,"has_decoy":false},{"rt":247928.30000001192,"stimulus":"[A] option 1, [L] option 2, [G] neither","key_press":71,"name":"choice","trial_type":"html-keyboard-response","trial_index":219,"time_elapsed":731885,"internal_node_id":"0.0-219.0","subject":"S1C0808","sona":"38883","block":3,"time":"2021-09-19T08:41:31.779Z","response":"neither","certainty":"high","char":"G","transposition":1,"order":["swapped","shifted"],"probe_pitches":[1,6,11,3,8,11,3,8],"shifted_pitches":[1,6,11,4,8,11,3,8],"swapped_pitches":[1,6,11,8,3,11,3,8],"shift_direction":1,"question_num":191,"has_decoy":false}]