[{"rt":8566.300000011921,"stimulus":"[A] option 1, [L] option 2, [G] neither","key_press":76,"name":"choice","trial_type":"html-keyboard-response","trial_index":15,"time_elapsed":87683,"internal_node_id":"0.0-15.0","response":"2nd","certainty":"high","char":"L","transposition":-1,"order":["shifted","swapped"],"probe_pitches":[2,7,11,9,4,7,11,14],"shifted_pitches":[2,7,11,10,4,7,11,14],"swapped_pitches":[2,7,11,4,9,7,11,14],"shift_direction":1,"question_num":1,"has_decoy":false,"subject":"S1C0808","sona":"38883","block":1,"time":"2021-09-19T08:13:28.006Z"},{"rt":8450.699999988079,"stimulus":"[A] option 1, [L] option 2, [G] neither","key_press":76,"name":"choice","trial_type":"html-keyboard-response","trial_index":26,"time_elapsed":116906,"internal_node_id":"0.0-26.0","response":"2nd","certainty":"high","char":"L","transposition":1,"order":["shifted","swapped"],"probe_pitches":[7,8,4,1,7,5,9,10],"shifted_pitches":[7,8,4,1,6,5,9,10],"swapped_pitches":[7,8,4,7,1,5,9,10],"shift_direction":-1,"question_num":11,"has_decoy":false,"subject":"S1C0808","sona":"38883","block":1,"time":"2021-09-19T08:13:28.006Z"},{"rt":9588.700000047684,"stimulus":"[A] option 1, [L] option 2, [G] neither","key_press":71,"name":"choice","trial_type":"html-keyboard-response","trial_index":37,"time_elapsed":144476,"internal_node_id":"0.0-37.0","response":"neither","certainty":"high","char":"G","transposition":-2,"order":["swapped","shifted"],"probe_pitches":[14,9,4,7,12,9,12,14],"shifted_pitches":[14,9,4,6,12,9,12,14],"swapped_pitches":[14,9,4,12,7,9,12,14],"shift_direction":-1,"question_num":21,"has_decoy":false,"subject":"S1C0808","sona":"38883","block":1,"time":"2021-09-19T08:13:28.006Z"},{"rt":8781.5,"stimulus":"[A] option 1, [L] option 2, [G] neither","key_press":71,"name":"choice","trial_type":"html-keyboard-response","trial_index":48,"time_elapsed":171247,"internal_node_id":"0.0-48.0","response":"neither","certainty":"high","char":"G","transposition":2,"order":["shifted","swapped"],"probe_pitches":[11,7,6,8,0,7,8,10],"shifted_pitches":[11,7,6,8,1,7,8,10],"swapped_pitches":[11,7,6,0,8,7,8,10],"shift_direction":1,"question_num":31,"has_decoy":false,"subject":"S1C0808","sona":"38883","block":1,"time":"2021-09-19T08:13:28.006Z"},{"rt":1690.1000000238419,"stimulus":"[A] option 1, [L] option 2, [G] neither","key_press":76,"name":"choice","trial_type":"html-keyboard-response","trial_index":59,"time_elapsed":189990,"internal_node_id":"0.0-59.0","response":"2nd","certainty":"high","char":"L","transposition":-2,"order":["shifted","swapped"],"probe_pitches":[2,7,6,9,4,7,9,3],"shifted_pitches":[2,7,6,10,4,7,9,3],"swapped_pitches":[2,7,6,4,9,7,9,3],"shift_direction":1,"question_num":41,"has_decoy":false,"subject":"S1C0808","sona":"38883","block":1,"time":"2021-09-19T08:13:28.006Z"},{"rt":1259.800000011921,"stimulus":"[A] option 1, [L] option 2, [G] neither","key_press":71,"name":"choice","trial_type":"html-keyboard-response","trial_index":70,"time_elapsed":207488,"internal_node_id":"0.0-70.0","response":"neither","certainty":"high","char":"G","transposition":3,"order":["swapped","shifted"],"probe_pitches":[9,6,5,11,8,5,3,6],"shifted_pitches":[9,6,5,11,7,5,3,6],"swapped_pitches":[9,6,5,8,11,5,3,6],"shift_direction":-1,"question_num":51,"has_decoy":false,"subject":"S1C0808","sona":"38883","block":1,"time":"2021-09-19T08:13:28.006Z"},{"rt":1764.5,"stimulus":"[A] option 1, [L] option 2, [G] neither","key_press":65,"name":"choice","trial_type":"html-keyboard-response","trial_index":81,"time_elapsed":224913,"internal_node_id":"0.0-81.0","response":"1st","certainty":"high","char":"A","transposition":0,"order":["swapped","shifted"],"probe_pitches":[9,12,5,7,12,14,5,9],"shifted_pitches":[9,12,5,7,11,14,5,9],"swapped_pitches":[9,12,5,12,7,14,5,9],"shift_direction":-1,"question_num":61,"has_decoy":false,"subject":"S1C0808","sona":"38883","block":1,"time":"2021-09-19T08:13:28.006Z"},{"rt":12005.200000047684,"stimulus":"[A] option 1, [L] option 2, [G] neither","key_press":76,"name":"choice","trial_type":"html-keyboard-response","trial_index":92,"time_elapsed":252940,"internal_node_id":"0.0-92.0","response":"2nd","certainty":"high","char":"L","transposition":-2,"order":["swapped","shifted"],"probe_pitches":[2,7,10,7,12,5,14,2],"shifted_pitches":[2,7,10,7,13,5,14,2],"swapped_pitches":[2,7,10,12,7,5,14,2],"shift_direction":1,"question_num":71,"has_decoy":false,"subject":"S1C0808","sona":"38883","block":1,"time":"2021-09-19T08:13:28.006Z"},{"rt":512.6000000238419,"stimulus":"[A] option 1, [L] option 2, [G] neither","key_press":65,"name":"choice","trial_type":"html-keyboard-response","trial_index":103,"time_elapsed":268749,"internal_node_id":"0.0-103.0","response":"1st","certainty":"high","char":"A","transposition":-1,"order":["swapped","shifted"],"probe_pitches":[-1,0,4,7,-1,3,5,6],"shifted_pitches":[-1,0,4,8,-1,3,5,6],"swapped_pitches":[-1,0,4,-1,7,3,5,6],"shift_direction":1,"question_num":81,"has_decoy":false,"subject":"S1C0808","sona":"38883","block":1,"time":"2021-09-19T08:13:28.006Z"},{"rt":6578.599999964237,"stimulus":"[A] option 1, [L] option 2, [G] neither","key_press":71,"name":"choice","trial_type":"html-keyboard-response","trial_index":114,"time_elapsed":291375,"internal_node_id":"0.0-114.0","response":"neither","certainty":"high","char":"G","transposition":1,"order":["shifted","swapped"],"probe_pitches":[7,9,14,12,5,2,9,14],"shifted_pitches":[7,9,14,13,5,2,9,14],"swapped_pitches":[7,9,14,5,12,2,9,14],"shift_direction":1,"question_num":91,"has_decoy":false,"subject":"S1C0808","sona":"38883","block":1,"time":"2021-09-19T08:13:28.006Z"},{"rt":1053.3999999761581,"stimulus":"[A] option 1, [L] option 2, [G] neither","key_press":76,"name":"choice","trial_type":"html-keyboard-response","trial_index":125,"time_elapsed":313636,"internal_node_id":"0.0-125.0","response":"2nd","certainty":"high","char":"L","transposition":-3,"order":["swapped","shifted"],"probe_pitches":[7,2,9,4,12,2,9,12],"shifted_pitches":[7,2,9,4,13,2,9,12],"swapped_pitches":[7,2,9,12,4,2,9,12],"shift_direction":1,"question_num":101,"has_decoy":false,"subject":"S1C0808","sona":"38883","block":1,"time":"2021-09-19T08:13:28.006Z"},{"rt":2253.099999964237,"stimulus":"[A] option 1, [L] option 2, [G] neither","key_press":76,"name":"choice","trial_type":"html-keyboard-response","trial_index":136,"time_elapsed":336452,"internal_node_id":"0.0-136.0","response":"2nd","certainty":"high","char":"L","transposition":-3,"order":["swapped","shifted"],"probe_pitches":[-1,5,6,1,7,6,10,7],"shifted_pitches":[-1,5,6,2,7,6,10,7],"swapped_pitches":[-1,5,6,7,1,6,10,7],"shift_direction":1,"question_num":111,"has_decoy":false,"subject":"S1C0808","sona":"38883","block":1,"time":"2021-09-19T08:13:28.006Z"},{"rt":11804.199999988079,"stimulus":"[A] option 1, [L] option 2, [G] neither","key_press":76,"name":"choice","trial_type":"html-keyboard-response","trial_index":147,"time_elapsed":363853,"internal_node_id":"0.0-147.0","response":"2nd","certainty":"high","char":"L","transposition":-2,"order":["shifted","swapped"],"probe_pitches":[3,7,3,11,6,8,6,-1],"shifted_pitches":[3,7,3,11,5,8,6,-1],"swapped_pitches":[3,7,3,6,11,8,6,-1],"shift_direction":-1,"question_num":121,"has_decoy":false,"subject":"S1C0808","sona":"38883","block":1,"time":"2021-09-19T08:13:28.006Z"},{"rt":10995.199999988079,"stimulus":"[A] option 1, [L] option 2, [G] neither","key_press":71,"name":"choice","trial_type":"html-keyboard-response","trial_index":158,"time_elapsed":390917,"internal_node_id":"0.0-158.0","response":"neither","certainty":"high","char":"G","transposition":0,"order":["swapped","shifted"],"probe_pitches":[6,0,3,10,8,5,8,2],"shifted_pitches":[6,0,3,9,8,5,8,2],"swapped_pitches":[6,0,3,8,10,5,8,2],"shift_direction":-1,"question_num":131,"has_decoy":false,"subject":"S1C0808","sona":"38883","block":1,"time":"2021-09-19T08:13:28.006Z"},{"rt":7444,"stimulus":"[A] option 1, [L] option 2, [G] neither","key_press":76,"name":"choice","trial_type":"html-keyboard-response","trial_index":169,"time_elapsed":414512,"internal_node_id":"0.0-169.0","response":"2nd","certainty":"high","char":"L","transposition":-1,"order":["shifted","swapped"],"probe_pitches":[7,1,-1,5,4,1,6,0],"shifted_pitches":[7,1,-1,5,3,1,6,0],"swapped_pitches":[7,1,-1,4,5,1,6,0],"shift_direction":-1,"question_num":141,"has_decoy":false,"subject":"S1C0808","sona":"38883","block":1,"time":"2021-09-19T08:13:28.006Z"},{"rt":1970.3999999761581,"stimulus":"[A] option 1, [L] option 2, [G] neither","key_press":65,"name":"choice","trial_type":"html-keyboard-response","trial_index":180,"time_elapsed":432612,"internal_node_id":"0.0-180.0","response":"1st","certainty":"high","char":"A","transposition":2,"order":["swapped","shifted"],"probe_pitches":[7,4,2,4,7,14,11,9],"shifted_pitches":[7,4,2,4,6,14,11,9],"swapped_pitches":[7,4,2,7,4,14,11,9],"shift_direction":-1,"question_num":151,"has_decoy":false,"subject":"S1C0808","sona":"38883","block":1,"time":"2021-09-19T08:13:28.006Z"},{"rt":1645.300000011921,"stimulus":"[A] option 1, [L] option 2, [G] neither","key_press":71,"name":"choice","trial_type":"html-keyboard-response","trial_index":191,"time_elapsed":449470,"internal_node_id":"0.0-191.0","response":"neither","certainty":"high","char":"G","transposition":-3,"order":["swapped","shifted"],"probe_pitches":[-1,0,-1,3,8,2,10,1],"shifted_pitches":[-1,0,-1,4,8,2,10,1],"swapped_pitches":[-1,0,-1,8,3,2,10,1],"shift_direction":1,"question_num":161,"has_decoy":false,"subject":"S1C0808","sona":"38883","block":1,"time":"2021-09-19T08:13:28.006Z"},{"rt":1612.1000000238419,"stimulus":"[A] option 1, [L] option 2, [G] neither","key_press":71,"name":"choice","trial_type":"html-keyboard-response","trial_index":202,"time_elapsed":466792,"internal_node_id":"0.0-202.0","response":"neither","certainty":"high","char":"G","transposition":-1,"order":["shifted","swapped"],"probe_pitches":[4,2,4,9,6,14,11,6],"shifted_pitches":[4,2,4,8,6,14,11,6],"swapped_pitches":[4,2,4,6,9,14,11,6],"shift_direction":-1,"question_num":171,"has_decoy":false,"subject":"S1C0808","sona":"38883","block":1,"time":"2021-09-19T08:13:28.006Z"},{"rt":7108.099999964237,"stimulus":"[A] option 1, [L] option 2, [G] neither","key_press":76,"name":"choice","trial_type":"html-keyboard-response","trial_index":213,"time_elapsed":492267,"internal_node_id":"0.0-213.0","response":"2nd","certainty":"high","char":"L","transposition":3,"order":["shifted","swapped"],"probe_pitches":[4,6,9,4,11,14,6,14],"shifted_pitches":[4,6,9,3,11,14,6,14],"swapped_pitches":[4,6,9,11,4,14,6,14],"shift_direction":-1,"question_num":181,"has_decoy":false,"subject":"S1C0808","sona":"38883","block":1,"time":"2021-09-19T08:13:28.006Z"},{"rt":1316.3999999761581,"stimulus":"[A] option 1, [L] option 2, [G] neither","key_press":71,"name":"choice","trial_type":"html-keyboard-response","trial_index":224,"time_elapsed":508971,"internal_node_id":"0.0-224.0","response":"neither","certainty":"high","char":"G","transposition":-3,"order":["shifted","swapped"],"probe_pitches":[14,10,14,7,5,12,2,7],"shifted_pitches":[14,10,14,7,6,12,2,7],"swapped_pitches":[14,10,14,5,7,12,2,7],"shift_direction":1,"question_num":191,"has_decoy":false,"subject":"S1C0808","sona":"38883","block":1,"time":"2021-09-19T08:13:28.006Z"}]