[{"rt":2080.399999976158,"stimulus":"[A] option 1, [L] option 2, [G] neither","key_press":71,"name":"choice","trial_type":"html-keyboard-response","trial_index":10,"time_elapsed":17656,"internal_node_id":"0.0-10.0","subject":"S1C0808","sona":"38883","block":6,"time":"2021-09-19T11:08:20.006Z","response":"neither","certainty":"high","char":"G","transposition":-1,"order":["swapped","shifted"],"probe_pitches":[6,8,10,6,15,10,13,3],"shifted_pitches":[6,8,10,6,14,10,13,3],"swapped_pitches":[6,8,10,15,6,10,13,3],"shift_direction":-1,"question_num":1,"has_decoy":false},{"rt":449.7000000476837,"stimulus":"[A] option 1, [L] option 2, [G] neither","key_press":71,"name":"choice","trial_type":"html-keyboard-response","trial_index":21,"time_elapsed":33135,"internal_node_id":"0.0-21.0","subject":"S1C0808","sona":"38883","block":6,"time":"2021-09-19T11:08:20.006Z","response":"neither","certainty":"high","char":"G","transposition":-1,"order":["shifted","swapped"],"probe_pitches":[0,2,6,9,2,3,5,9],"shifted_pitches":[0,2,6,9,1,3,5,9],"swapped_pitches":[0,2,6,2,9,3,5,9],"shift_direction":-1,"question_num":11,"has_decoy":false},{"rt":1391.0999999642372,"stimulus":"[A] option 1, [L] option 2, [G] neither","key_press":71,"name":"choice","trial_type":"html-keyboard-response","trial_index":32,"time_elapsed":49175,"internal_node_id":"0.0-32.0","subject":"S1C0808","sona":"38883","block":6,"time":"2021-09-19T11:08:20.006Z","response":"neither","certainty":"high","char":"G","transposition":-3,"order":["swapped","shifted"],"probe_pitches":[13,15,8,3,10,5,13,3],"shifted_pitches":[13,15,8,4,10,5,13,3],"swapped_pitches":[13,15,8,10,3,5,13,3],"shift_direction":1,"question_num":21,"has_decoy":false},{"rt":478.30000001192093,"stimulus":"[A] option 1, [L] option 2, [G] neither","key_press":71,"name":"choice","trial_type":"html-keyboard-response","trial_index":43,"time_elapsed":64749,"internal_node_id":"0.0-43.0","subject":"S1C0808","sona":"38883","block":6,"time":"2021-09-19T11:08:20.006Z","response":"neither","certainty":"high","char":"G","transposition":3,"order":["shifted","swapped"],"probe_pitches":[3,6,11,8,3,13,8,15],"shifted_pitches":[3,6,11,8,4,13,8,15],"swapped_pitches":[3,6,11,3,8,13,8,15],"shift_direction":1,"question_num":31,"has_decoy":false},{"rt":1986.9000000357628,"stimulus":"[A] option 1, [L] option 2, [G] neither","key_press":71,"name":"choice","trial_type":"html-keyboard-response","trial_index":54,"time_elapsed":83047,"internal_node_id":"0.0-54.0","subject":"S1C0808","sona":"38883","block":6,"time":"2021-09-19T11:08:20.006Z","response":"neither","certainty":"high","char":"G","transposition":2,"order":["shifted","swapped"],"probe_pitches":[6,10,6,8,15,13,15,10],"shifted_pitches":[6,10,6,8,14,13,15,10],"swapped_pitches":[6,10,6,15,8,13,15,10],"shift_direction":-1,"question_num":41,"has_decoy":false},{"rt":1049.6000000238419,"stimulus":"[A] option 1, [L] option 2, [G] neither","key_press":71,"name":"choice","trial_type":"html-keyboard-response","trial_index":65,"time_elapsed":100606,"internal_node_id":"0.0-65.0","subject":"S1C0808","sona":"38883","block":6,"time":"2021-09-19T11:08:20.006Z","response":"neither","certainty":"high","char":"G","transposition":-3,"order":["swapped","shifted"],"probe_pitches":[9,7,5,-2,-3,0,2,6],"shifted_pitches":[9,7,5,-1,-3,0,2,6],"swapped_pitches":[9,7,5,-3,-2,0,2,6],"shift_direction":1,"question_num":51,"has_decoy":false},{"rt":1859.5,"stimulus":"[A] option 1, [L] option 2, [G] neither","key_press":71,"name":"choice","trial_type":"html-keyboard-response","trial_index":76,"time_elapsed":117565,"internal_node_id":"0.0-76.0","subject":"S1C0808","sona":"38883","block":6,"time":"2021-09-19T11:08:20.006Z","response":"neither","certainty":"high","char":"G","transposition":-1,"order":["swapped","shifted"],"probe_pitches":[10,8,12,8,15,5,12,15],"shifted_pitches":[10,8,12,9,15,5,12,15],"swapped_pitches":[10,8,12,15,8,5,12,15],"shift_direction":1,"question_num":61,"has_decoy":false},{"rt":2651.2000000476837,"stimulus":"[A] option 1, [L] option 2, [G] neither","key_press":71,"name":"choice","trial_type":"html-keyboard-response","trial_index":87,"time_elapsed":136096,"internal_node_id":"0.0-87.0","subject":"S1C0808","sona":"38883","block":6,"time":"2021-09-19T11:08:20.006Z","response":"neither","certainty":"high","char":"G","transposition":-2,"order":["swapped","shifted"],"probe_pitches":[5,8,5,1,8,4,3,6],"shifted_pitches":[5,8,5,2,8,4,3,6],"swapped_pitches":[5,8,5,8,1,4,3,6],"shift_direction":1,"question_num":71,"has_decoy":false},{"rt":544.1999999880791,"stimulus":"[A] option 1, [L] option 2, [G] neither","key_press":71,"name":"choice","trial_type":"html-keyboard-response","trial_index":98,"time_elapsed":151787,"internal_node_id":"0.0-98.0","subject":"S1C0808","sona":"38883","block":6,"time":"2021-09-19T11:08:20.006Z","response":"neither","certainty":"high","char":"G","transposition":-3,"order":["shifted","swapped"],"probe_pitches":[0,1,2,4,9,-1,1,8],"shifted_pitches":[0,1,2,3,9,-1,1,8],"swapped_pitches":[0,1,2,9,4,-1,1,8],"shift_direction":-1,"question_num":81,"has_decoy":false},{"rt":1633,"stimulus":"[A] option 1, [L] option 2, [G] neither","key_press":76,"name":"choice","trial_type":"html-keyboard-response","trial_index":109,"time_elapsed":169452,"internal_node_id":"0.0-109.0","subject":"S1C0808","sona":"38883","block":6,"time":"2021-09-19T11:08:20.006Z","response":"2nd","certainty":"high","char":"L","transposition":3,"order":["shifted","swapped"],"probe_pitches":[2,4,-2,-1,6,5,3,4],"shifted_pitches":[2,4,-2,-1,7,5,3,4],"swapped_pitches":[2,4,-2,6,-1,5,3,4],"shift_direction":1,"question_num":91,"has_decoy":false},{"rt":2215.5,"stimulus":"[A] option 1, [L] option 2, [G] neither","key_press":71,"name":"choice","trial_type":"html-keyboard-response","trial_index":120,"time_elapsed":186658,"internal_node_id":"0.0-120.0","subject":"S1C0808","sona":"38883","block":6,"time":"2021-09-19T11:08:20.006Z","response":"neither","certainty":"high","char":"G","transposition":0,"order":["swapped","shifted"],"probe_pitches":[-3,-2,1,9,7,4,7,4],"shifted_pitches":[-3,-2,1,8,7,4,7,4],"swapped_pitches":[-3,-2,1,7,9,4,7,4],"shift_direction":-1,"question_num":101,"has_decoy":false},{"rt":3194,"stimulus":"[A] option 1, [L] option 2, [G] neither","key_press":76,"name":"choice","trial_type":"html-keyboard-response","trial_index":131,"time_elapsed":204891,"internal_node_id":"0.0-131.0","subject":"S1C0808","sona":"38883","block":6,"time":"2021-09-19T11:08:20.006Z","response":"2nd","certainty":"high","char":"L","transposition":-2,"order":["shifted","swapped"],"probe_pitches":[7,10,5,12,3,5,3,5],"shifted_pitches":[7,10,5,11,3,5,3,5],"swapped_pitches":[7,10,5,3,12,5,3,5],"shift_direction":-1,"question_num":111,"has_decoy":false},{"rt":4608,"stimulus":"[A] option 1, [L] option 2, [G] neither","key_press":76,"name":"choice","trial_type":"html-keyboard-response","trial_index":142,"time_elapsed":224293,"internal_node_id":"0.0-142.0","subject":"S1C0808","sona":"38883","block":6,"time":"2021-09-19T11:08:20.006Z","response":"2nd","certainty":"high","char":"L","transposition":0,"order":["swapped","shifted"],"probe_pitches":[3,5,3,5,10,8,13,8],"shifted_pitches":[3,5,3,4,10,8,13,8],"swapped_pitches":[3,5,3,10,5,8,13,8],"shift_direction":-1,"question_num":121,"has_decoy":false},{"rt":2770.900000035763,"stimulus":"[A] option 1, [L] option 2, [G] neither","key_press":71,"name":"choice","trial_type":"html-keyboard-response","trial_index":153,"time_elapsed":241935,"internal_node_id":"0.0-153.0","subject":"S1C0808","sona":"38883","block":6,"time":"2021-09-19T11:08:20.006Z","response":"neither","certainty":"high","char":"G","transposition":1,"order":["shifted","swapped"],"probe_pitches":[8,6,13,15,6,11,6,11],"shifted_pitches":[8,6,13,15,7,11,6,11],"swapped_pitches":[8,6,13,6,15,11,6,11],"shift_direction":1,"question_num":131,"has_decoy":false},{"rt":738.3999999761581,"stimulus":"[A] option 1, [L] option 2, [G] neither","key_press":71,"name":"choice","trial_type":"html-keyboard-response","trial_index":164,"time_elapsed":258399,"internal_node_id":"0.0-164.0","subject":"S1C0808","sona":"38883","block":6,"time":"2021-09-19T11:08:20.006Z","response":"neither","certainty":"high","char":"G","transposition":-2,"order":["shifted","swapped"],"probe_pitches":[3,8,9,7,4,1,-3,7],"shifted_pitches":[3,8,9,7,5,1,-3,7],"swapped_pitches":[3,8,9,4,7,1,-3,7],"shift_direction":1,"question_num":141,"has_decoy":false},{"rt":1009.3000000119209,"stimulus":"[A] option 1, [L] option 2, [G] neither","key_press":71,"name":"choice","trial_type":"html-keyboard-response","trial_index":175,"time_elapsed":275448,"internal_node_id":"0.0-175.0","subject":"S1C0808","sona":"38883","block":6,"time":"2021-09-19T11:08:20.006Z","response":"neither","certainty":"high","char":"G","transposition":1,"order":["swapped","shifted"],"probe_pitches":[4,-1,3,1,-1,5,-1,2],"shifted_pitches":[4,-1,3,1,0,5,-1,2],"swapped_pitches":[4,-1,3,-1,1,5,-1,2],"shift_direction":1,"question_num":151,"has_decoy":false},{"rt":2517,"stimulus":"[A] option 1, [L] option 2, [G] neither","key_press":71,"name":"choice","trial_type":"html-keyboard-response","trial_index":186,"time_elapsed":293415,"internal_node_id":"0.0-186.0","subject":"S1C0808","sona":"38883","block":6,"time":"2021-09-19T11:08:20.006Z","response":"neither","certainty":"high","char":"G","transposition":-2,"order":["shifted","swapped"],"probe_pitches":[12,7,5,3,10,7,5,3],"shifted_pitches":[12,7,5,2,10,7,5,3],"swapped_pitches":[12,7,5,10,3,7,5,3],"shift_direction":-1,"question_num":161,"has_decoy":false},{"rt":1573.199999988079,"stimulus":"[A] option 1, [L] option 2, [G] neither","key_press":71,"name":"choice","trial_type":"html-keyboard-response","trial_index":197,"time_elapsed":309453,"internal_node_id":"0.0-197.0","subject":"S1C0808","sona":"38883","block":6,"time":"2021-09-19T11:08:20.006Z","response":"neither","certainty":"high","char":"G","transposition":-3,"order":["swapped","shifted"],"probe_pitches":[3,5,8,10,12,8,10,3],"shifted_pitches":[3,5,8,10,13,8,10,3],"swapped_pitches":[3,5,8,12,10,8,10,3],"shift_direction":1,"question_num":171,"has_decoy":false},{"rt":543.9000000357628,"stimulus":"[A] option 1, [L] option 2, [G] neither","key_press":71,"name":"choice","trial_type":"html-keyboard-response","trial_index":208,"time_elapsed":325619,"internal_node_id":"0.0-208.0","subject":"S1C0808","sona":"38883","block":6,"time":"2021-09-19T11:08:20.006Z","response":"neither","certainty":"high","char":"G","transposition":2,"order":["swapped","shifted"],"probe_pitches":[9,6,3,5,9,1,2,9],"shifted_pitches":[9,6,3,4,9,1,2,9],"swapped_pitches":[9,6,3,9,5,1,2,9],"shift_direction":-1,"question_num":181,"has_decoy":false},{"rt":2734.800000011921,"stimulus":"[A] option 1, [L] option 2, [G] neither","key_press":76,"name":"choice","trial_type":"html-keyboard-response","trial_index":219,"time_elapsed":343127,"internal_node_id":"0.0-219.0","subject":"S1C0808","sona":"38883","block":6,"time":"2021-09-19T11:08:20.006Z","response":"2nd","certainty":"high","char":"L","transposition":-1,"order":["shifted","swapped"],"probe_pitches":[4,7,2,8,7,5,7,1],"shifted_pitches":[4,7,2,8,6,5,7,1],"swapped_pitches":[4,7,2,7,8,5,7,1],"shift_direction":-1,"question_num":191,"has_decoy":false}]