[{"rt":1332.7000000476837,"stimulus":"[A] option 1, [L] option 2, [G] neither","key_press":65,"name":"choice","trial_type":"html-keyboard-response","trial_index":10,"time_elapsed":29985,"internal_node_id":"0.0-10.0","subject":"S1C1629","sona":"41550","block":2,"time":"2021-09-22T00:16:50.726Z","response":"1st","certainty":"high","char":"A","transposition":1,"order":["swapped","shifted"],"probe_pitches":[6,10,13,15,10,3,6,8,3,6,8,6,13,3,10,8],"shifted_pitches":[6,10,13,15,10,3,6,7,3,6,8,6,13,3,10,8],"swapped_pitches":[6,10,13,15,10,3,6,3,8,6,8,6,13,3,10,8],"shift_direction":-1,"question_num":1,"has_decoy":false},{"rt":755.7000000476837,"stimulus":"[A] option 1, [L] option 2, [G] neither","key_press":65,"name":"choice","trial_type":"html-keyboard-response","trial_index":21,"time_elapsed":53259,"internal_node_id":"0.0-21.0","subject":"S1C1629","sona":"41550","block":2,"time":"2021-09-22T00:16:50.726Z","response":"1st","certainty":"high","char":"A","transposition":2,"order":["shifted","swapped"],"probe_pitches":[13,15,10,5,13,10,5,13,8,10,15,10,8,5,13,5],"shifted_pitches":[13,15,10,5,13,10,5,13,9,10,15,10,8,5,13,5],"swapped_pitches":[13,15,10,5,13,10,5,8,13,10,15,10,8,5,13,5],"shift_direction":1,"question_num":11,"has_decoy":false},{"rt":499.5,"stimulus":"[A] option 1, [L] option 2, [G] neither","key_press":65,"name":"choice","trial_type":"html-keyboard-response","trial_index":32,"time_elapsed":76149,"internal_node_id":"0.0-32.0","subject":"S1C1629","sona":"41550","block":2,"time":"2021-09-22T00:16:50.726Z","response":"1st","certainty":"high","char":"A","transposition":1,"order":["swapped","shifted"],"probe_pitches":[-2,2,3,-2,-1,4,2,1,4,-2,1,6,3,7,2,5],"shifted_pitches":[-2,2,3,-2,-1,4,2,0,4,-2,1,6,3,7,2,5],"swapped_pitches":[-2,2,3,-2,-1,4,2,4,1,-2,1,6,3,7,2,5],"shift_direction":-1,"question_num":21,"has_decoy":false},{"rt":471.60000002384186,"stimulus":"[A] option 1, [L] option 2, [G] neither","key_press":65,"name":"choice","trial_type":"html-keyboard-response","trial_index":43,"time_elapsed":99182,"internal_node_id":"0.0-43.0","subject":"S1C1629","sona":"41550","block":2,"time":"2021-09-22T00:16:50.726Z","response":"1st","certainty":"high","char":"A","transposition":-2,"order":["swapped","shifted"],"probe_pitches":[15,10,12,5,12,15,5,8,15,3,12,5,10,15,3,12],"shifted_pitches":[15,10,12,5,12,15,5,8,14,3,12,5,10,15,3,12],"swapped_pitches":[15,10,12,5,12,15,5,15,8,3,12,5,10,15,3,12],"shift_direction":-1,"question_num":31,"has_decoy":false},{"rt":543.7999999523163,"stimulus":"[A] option 1, [L] option 2, [G] neither","key_press":76,"name":"choice","trial_type":"html-keyboard-response","trial_index":54,"time_elapsed":122102,"internal_node_id":"0.0-54.0","subject":"S1C1629","sona":"41550","block":2,"time":"2021-09-22T00:16:50.726Z","response":"2nd","certainty":"high","char":"L","transposition":-2,"order":["shifted","swapped"],"probe_pitches":[2,4,7,9,8,9,-2,7,3,5,4,5,10,-2,5,8],"shifted_pitches":[2,4,7,9,8,9,-2,6,3,5,4,5,10,-2,5,8],"swapped_pitches":[2,4,7,9,8,9,-2,3,7,5,4,5,10,-2,5,8],"shift_direction":-1,"question_num":41,"has_decoy":false},{"rt":2276.6999999284744,"stimulus":"[A] option 1, [L] option 2, [G] neither","key_press":71,"name":"choice","trial_type":"html-keyboard-response","trial_index":65,"time_elapsed":147485,"internal_node_id":"0.0-65.0","subject":"S1C1629","sona":"41550","block":2,"time":"2021-09-22T00:16:50.726Z","response":"neither","certainty":"high","char":"G","transposition":0,"order":["shifted","swapped"],"probe_pitches":[2,7,0,6,8,5,8,10,0,7,2,-1,6,4,5,8],"shifted_pitches":[2,7,0,6,8,5,8,10,1,7,2,-1,6,4,5,8],"swapped_pitches":[2,7,0,6,8,5,8,0,10,7,2,-1,6,4,5,8],"shift_direction":1,"question_num":51,"has_decoy":false},{"rt":528.3999999761581,"stimulus":"[A] option 1, [L] option 2, [G] neither","key_press":65,"name":"choice","trial_type":"html-keyboard-response","trial_index":76,"time_elapsed":170678,"internal_node_id":"0.0-76.0","subject":"S1C1629","sona":"41550","block":2,"time":"2021-09-22T00:16:50.726Z","response":"1st","certainty":"high","char":"A","transposition":-3,"order":["shifted","swapped"],"probe_pitches":[11,13,11,3,11,3,8,11,13,3,6,8,11,8,6,11],"shifted_pitches":[11,13,11,3,11,3,8,12,13,3,6,8,11,8,6,11],"swapped_pitches":[11,13,11,3,11,3,8,13,11,3,6,8,11,8,6,11],"shift_direction":1,"question_num":61,"has_decoy":false},{"rt":1216.7999999523163,"stimulus":"[A] option 1, [L] option 2, [G] neither","key_press":71,"name":"choice","trial_type":"html-keyboard-response","trial_index":87,"time_elapsed":194668,"internal_node_id":"0.0-87.0","subject":"S1C1629","sona":"41550","block":2,"time":"2021-09-22T00:16:50.726Z","response":"neither","certainty":"high","char":"G","transposition":-2,"order":["shifted","swapped"],"probe_pitches":[5,10,3,7,15,5,10,5,3,10,12,7,5,3,10,7],"shifted_pitches":[5,10,3,7,15,5,10,5,4,10,12,7,5,3,10,7],"swapped_pitches":[5,10,3,7,15,5,10,3,5,10,12,7,5,3,10,7],"shift_direction":1,"question_num":71,"has_decoy":false},{"rt":446.89999997615814,"stimulus":"[A] option 1, [L] option 2, [G] neither","key_press":76,"name":"choice","trial_type":"html-keyboard-response","trial_index":98,"time_elapsed":217466,"internal_node_id":"0.0-98.0","subject":"S1C1629","sona":"41550","block":2,"time":"2021-09-22T00:16:50.726Z","response":"2nd","certainty":"high","char":"L","transposition":-1,"order":["swapped","shifted"],"probe_pitches":[12,15,8,3,5,3,5,3,15,10,8,3,15,3,5,12],"shifted_pitches":[12,15,8,3,5,3,5,2,15,10,8,3,15,3,5,12],"swapped_pitches":[12,15,8,3,5,3,5,15,3,10,8,3,15,3,5,12],"shift_direction":-1,"question_num":81,"has_decoy":false},{"rt":1192.2000000476837,"stimulus":"[A] option 1, [L] option 2, [G] neither","key_press":65,"name":"choice","trial_type":"html-keyboard-response","trial_index":109,"time_elapsed":241033,"internal_node_id":"0.0-109.0","subject":"S1C1629","sona":"41550","block":2,"time":"2021-09-22T00:16:50.726Z","response":"1st","certainty":"high","char":"A","transposition":-1,"order":["swapped","shifted"],"probe_pitches":[-1,4,8,9,1,7,0,6,1,8,1,6,0,1,8,3],"shifted_pitches":[-1,4,8,9,1,7,0,5,1,8,1,6,0,1,8,3],"swapped_pitches":[-1,4,8,9,1,7,0,1,6,8,1,6,0,1,8,3],"shift_direction":-1,"question_num":91,"has_decoy":false},{"rt":1274.6000000238419,"stimulus":"[A] option 1, [L] option 2, [G] neither","key_press":76,"name":"choice","trial_type":"html-keyboard-response","trial_index":120,"time_elapsed":264795,"internal_node_id":"0.0-120.0","subject":"S1C1629","sona":"41550","block":2,"time":"2021-09-22T00:16:50.726Z","response":"2nd","certainty":"high","char":"L","transposition":-3,"order":["swapped","shifted"],"probe_pitches":[0,-2,5,0,-2,-1,7,5,4,-1,2,-1,-2,0,-1,4],"shifted_pitches":[0,-2,5,0,-2,-1,7,5,3,-1,2,-1,-2,0,-1,4],"swapped_pitches":[0,-2,5,0,-2,-1,7,4,5,-1,2,-1,-2,0,-1,4],"shift_direction":-1,"question_num":101,"has_decoy":false},{"rt":736.2999999523163,"stimulus":"[A] option 1, [L] option 2, [G] neither","key_press":65,"name":"choice","trial_type":"html-keyboard-response","trial_index":131,"time_elapsed":287974,"internal_node_id":"0.0-131.0","subject":"S1C1629","sona":"41550","block":2,"time":"2021-09-22T00:16:50.726Z","response":"1st","certainty":"high","char":"A","transposition":-2,"order":["shifted","swapped"],"probe_pitches":[10,9,8,9,0,5,4,1,5,7,0,-1,6,4,7,-1],"shifted_pitches":[10,9,8,9,0,5,4,2,5,7,0,-1,6,4,7,-1],"swapped_pitches":[10,9,8,9,0,5,4,5,1,7,0,-1,6,4,7,-1],"shift_direction":1,"question_num":111,"has_decoy":false},{"rt":1268.7999999523163,"stimulus":"[A] option 1, [L] option 2, [G] neither","key_press":71,"name":"choice","trial_type":"html-keyboard-response","trial_index":142,"time_elapsed":311679,"internal_node_id":"0.0-142.0","subject":"S1C1629","sona":"41550","block":2,"time":"2021-09-22T00:16:50.726Z","response":"neither","certainty":"high","char":"G","transposition":-3,"order":["shifted","swapped"],"probe_pitches":[3,6,8,6,13,3,6,10,13,3,6,15,13,10,8,15],"shifted_pitches":[3,6,8,6,13,3,6,9,13,3,6,15,13,10,8,15],"swapped_pitches":[3,6,8,6,13,3,6,13,10,3,6,15,13,10,8,15],"shift_direction":-1,"question_num":121,"has_decoy":false},{"rt":1856.7999999523163,"stimulus":"[A] option 1, [L] option 2, [G] neither","key_press":76,"name":"choice","trial_type":"html-keyboard-response","trial_index":153,"time_elapsed":336598,"internal_node_id":"0.0-153.0","subject":"S1C1629","sona":"41550","block":2,"time":"2021-09-22T00:16:50.726Z","response":"2nd","certainty":"high","char":"L","transposition":-1,"order":["shifted","swapped"],"probe_pitches":[6,1,-2,5,2,0,2,0,6,1,5,-1,8,1,6,9],"shifted_pitches":[6,1,-2,5,2,0,2,0,7,1,5,-1,8,1,6,9],"swapped_pitches":[6,1,-2,5,2,0,2,6,0,1,5,-1,8,1,6,9],"shift_direction":1,"question_num":131,"has_decoy":false},{"rt":5720.899999976158,"stimulus":"[A] option 1, [L] option 2, [G] neither","key_press":65,"name":"choice","trial_type":"html-keyboard-response","trial_index":164,"time_elapsed":365347,"internal_node_id":"0.0-164.0","subject":"S1C1629","sona":"41550","block":2,"time":"2021-09-22T00:16:50.726Z","response":"1st","certainty":"high","char":"A","transposition":3,"order":["swapped","shifted"],"probe_pitches":[11,6,11,6,11,3,11,13,8,11,3,15,3,11,15,6],"shifted_pitches":[11,6,11,6,11,3,11,14,8,11,3,15,3,11,15,6],"swapped_pitches":[11,6,11,6,11,3,11,8,13,11,3,15,3,11,15,6],"shift_direction":1,"question_num":141,"has_decoy":false},{"rt":1098.3999999761581,"stimulus":"[A] option 1, [L] option 2, [G] neither","key_press":71,"name":"choice","trial_type":"html-keyboard-response","trial_index":175,"time_elapsed":395898,"internal_node_id":"0.0-175.0","subject":"S1C1629","sona":"41550","block":2,"time":"2021-09-22T00:16:50.726Z","response":"neither","certainty":"high","char":"G","transposition":-3,"order":["swapped","shifted"],"probe_pitches":[2,5,2,7,10,3,0,3,1,5,2,5,-1,1,10,8],"shifted_pitches":[2,5,2,7,10,3,0,4,1,5,2,5,-1,1,10,8],"swapped_pitches":[2,5,2,7,10,3,0,1,3,5,2,5,-1,1,10,8],"shift_direction":1,"question_num":151,"has_decoy":false},{"rt":1346.6000000238419,"stimulus":"[A] option 1, [L] option 2, [G] neither","key_press":71,"name":"choice","trial_type":"html-keyboard-response","trial_index":186,"time_elapsed":419665,"internal_node_id":"0.0-186.0","subject":"S1C1629","sona":"41550","block":2,"time":"2021-09-22T00:16:50.726Z","response":"neither","certainty":"high","char":"G","transposition":2,"order":["swapped","shifted"],"probe_pitches":[10,7,6,3,9,4,9,-1,7,10,3,6,5,-2,3,2],"shifted_pitches":[10,7,6,3,9,4,9,-1,8,10,3,6,5,-2,3,2],"swapped_pitches":[10,7,6,3,9,4,9,7,-1,10,3,6,5,-2,3,2],"shift_direction":1,"question_num":161,"has_decoy":false},{"rt":3191.6999999284744,"stimulus":"[A] option 1, [L] option 2, [G] neither","key_press":76,"name":"choice","trial_type":"html-keyboard-response","trial_index":197,"time_elapsed":445292,"internal_node_id":"0.0-197.0","subject":"S1C1629","sona":"41550","block":2,"time":"2021-09-22T00:16:50.726Z","response":"2nd","certainty":"high","char":"L","transposition":3,"order":["shifted","swapped"],"probe_pitches":[6,7,5,10,6,4,1,8,-2,5,3,8,2,10,0,6],"shifted_pitches":[6,7,5,10,6,4,1,8,-3,5,3,8,2,10,0,6],"swapped_pitches":[6,7,5,10,6,4,1,-2,8,5,3,8,2,10,0,6],"shift_direction":-1,"question_num":171,"has_decoy":false},{"rt":2632.2999999523163,"stimulus":"[A] option 1, [L] option 2, [G] neither","key_press":71,"name":"choice","trial_type":"html-keyboard-response","trial_index":208,"time_elapsed":470748,"internal_node_id":"0.0-208.0","subject":"S1C1629","sona":"41550","block":2,"time":"2021-09-22T00:16:50.726Z","response":"neither","certainty":"high","char":"G","transposition":0,"order":["shifted","swapped"],"probe_pitches":[3,5,10,3,8,15,13,8,15,10,3,8,13,15,13,10],"shifted_pitches":[3,5,10,3,8,15,13,8,16,10,3,8,13,15,13,10],"swapped_pitches":[3,5,10,3,8,15,13,15,8,10,3,8,13,15,13,10],"shift_direction":1,"question_num":181,"has_decoy":false},{"rt":2495,"stimulus":"[A] option 1, [L] option 2, [G] neither","key_press":65,"name":"choice","trial_type":"html-keyboard-response","trial_index":219,"time_elapsed":495875,"internal_node_id":"0.0-219.0","subject":"S1C1629","sona":"41550","block":2,"time":"2021-09-22T00:16:50.726Z","response":"1st","certainty":"high","char":"A","transposition":-1,"order":["swapped","shifted"],"probe_pitches":[7,12,5,3,7,5,12,7,5,10,12,10,12,3,12,15],"shifted_pitches":[7,12,5,3,7,5,12,7,4,10,12,10,12,3,12,15],"swapped_pitches":[7,12,5,3,7,5,12,5,7,10,12,10,12,3,12,15],"shift_direction":-1,"question_num":191,"has_decoy":false}]