[{"rt":8997.700000047684,"stimulus":"[A] option 1, [L] option 2, [G] neither","key_press":65,"name":"choice","trial_type":"html-keyboard-response","trial_index":10,"time_elapsed":35559,"internal_node_id":"0.0-10.0","subject":"S1C1629","sona":"41550","block":5,"time":"2021-09-22T01:19:33.186Z","response":"1st","certainty":"high","char":"A","transposition":-2,"order":["shifted","swapped"],"probe_pitches":[3,1,8,3,1,8,2,7,8,2,8,3,7,-1,5,7],"shifted_pitches":[3,1,8,3,1,8,2,6,8,2,8,3,7,-1,5,7],"swapped_pitches":[3,1,8,3,1,8,2,8,7,2,8,3,7,-1,5,7],"shift_direction":-1,"question_num":1,"has_decoy":false},{"rt":17677.399999976158,"stimulus":"[A] option 1, [L] option 2, [G] neither","key_press":65,"name":"choice","trial_type":"html-keyboard-response","trial_index":21,"time_elapsed":76606,"internal_node_id":"0.0-21.0","subject":"S1C1629","sona":"41550","block":5,"time":"2021-09-22T01:19:33.186Z","response":"1st","certainty":"high","char":"A","transposition":1,"order":["swapped","shifted"],"probe_pitches":[10,7,2,3,10,4,1,8,6,11,7,9,4,3,10,6],"shifted_pitches":[10,7,2,3,10,4,1,8,5,11,7,9,4,3,10,6],"swapped_pitches":[10,7,2,3,10,4,1,6,8,11,7,9,4,3,10,6],"shift_direction":-1,"question_num":11,"has_decoy":false},{"rt":5154.100000023842,"stimulus":"[A] option 1, [L] option 2, [G] neither","key_press":76,"name":"choice","trial_type":"html-keyboard-response","trial_index":32,"time_elapsed":110003,"internal_node_id":"0.0-32.0","subject":"S1C1629","sona":"41550","block":5,"time":"2021-09-22T01:19:33.186Z","response":"2nd","certainty":"high","char":"L","transposition":-1,"order":["swapped","shifted"],"probe_pitches":[1,3,1,7,3,11,0,7,6,4,11,-1,7,1,10,1],"shifted_pitches":[1,3,1,7,3,11,0,8,6,4,11,-1,7,1,10,1],"swapped_pitches":[1,3,1,7,3,11,0,6,7,4,11,-1,7,1,10,1],"shift_direction":1,"question_num":21,"has_decoy":false},{"rt":7654.700000047684,"stimulus":"[A] option 1, [L] option 2, [G] neither","key_press":71,"name":"choice","trial_type":"html-keyboard-response","trial_index":43,"time_elapsed":140135,"internal_node_id":"0.0-43.0","subject":"S1C1629","sona":"41550","block":5,"time":"2021-09-22T01:19:33.186Z","response":"neither","certainty":"high","char":"G","transposition":-3,"order":["shifted","swapped"],"probe_pitches":[3,4,1,7,1,9,7,3,11,9,0,11,3,11,7,0],"shifted_pitches":[3,4,1,7,1,9,7,2,11,9,0,11,3,11,7,0],"swapped_pitches":[3,4,1,7,1,9,7,11,3,9,0,11,3,11,7,0],"shift_direction":-1,"question_num":31,"has_decoy":false},{"rt":10279.199999928474,"stimulus":"[A] option 1, [L] option 2, [G] neither","key_press":76,"name":"choice","trial_type":"html-keyboard-response","trial_index":54,"time_elapsed":180780,"internal_node_id":"0.0-54.0","subject":"S1C1629","sona":"41550","block":5,"time":"2021-09-22T01:19:33.186Z","response":"2nd","certainty":"high","char":"L","transposition":-1,"order":["shifted","swapped"],"probe_pitches":[-2,3,10,8,1,3,-2,8,1,10,8,5,3,1,10,-2],"shifted_pitches":[-2,3,10,8,1,3,-2,7,1,10,8,5,3,1,10,-2],"swapped_pitches":[-2,3,10,8,1,3,-2,1,8,10,8,5,3,1,10,-2],"shift_direction":-1,"question_num":41,"has_decoy":false},{"rt":14007.299999952316,"stimulus":"[A] option 1, [L] option 2, [G] neither","key_press":71,"name":"choice","trial_type":"html-keyboard-response","trial_index":65,"time_elapsed":217133,"internal_node_id":"0.0-65.0","subject":"S1C1629","sona":"41550","block":5,"time":"2021-09-22T01:19:33.186Z","response":"neither","certainty":"high","char":"G","transposition":2,"order":["shifted","swapped"],"probe_pitches":[3,5,3,-2,0,8,-2,5,10,-2,0,3,0,3,-2,5],"shifted_pitches":[3,5,3,-2,0,8,-2,6,10,-2,0,3,0,3,-2,5],"swapped_pitches":[3,5,3,-2,0,8,-2,10,5,-2,0,3,0,3,-2,5],"shift_direction":1,"question_num":51,"has_decoy":false},{"rt":14562,"stimulus":"[A] option 1, [L] option 2, [G] neither","key_press":71,"name":"choice","trial_type":"html-keyboard-response","trial_index":76,"time_elapsed":253874,"internal_node_id":"0.0-76.0","subject":"S1C1629","sona":"41550","block":5,"time":"2021-09-22T01:19:33.186Z","response":"neither","certainty":"high","char":"G","transposition":0,"order":["shifted","swapped"],"probe_pitches":[5,0,3,5,0,3,7,10,5,3,-2,7,5,-2,7,-2],"shifted_pitches":[5,0,3,5,0,3,7,10,6,3,-2,7,5,-2,7,-2],"swapped_pitches":[5,0,3,5,0,3,7,5,10,3,-2,7,5,-2,7,-2],"shift_direction":1,"question_num":61,"has_decoy":false},{"rt":17962.199999928474,"stimulus":"[A] option 1, [L] option 2, [G] neither","key_press":71,"name":"choice","trial_type":"html-keyboard-response","trial_index":87,"time_elapsed":396369,"internal_node_id":"0.0-87.0","subject":"S1C1629","sona":"41550","block":5,"time":"2021-09-22T01:19:33.186Z","response":"neither","certainty":"high","char":"G","transposition":-1,"order":["shifted","swapped"],"probe_pitches":[-2,3,0,8,3,10,5,3,10,-2,10,3,5,0,10,-2],"shifted_pitches":[-2,3,0,8,3,10,5,2,10,-2,10,3,5,0,10,-2],"swapped_pitches":[-2,3,0,8,3,10,5,10,3,-2,10,3,5,0,10,-2],"shift_direction":-1,"question_num":71,"has_decoy":false},{"rt":15210.700000047684,"stimulus":"[A] option 1, [L] option 2, [G] neither","key_press":71,"name":"choice","trial_type":"html-keyboard-response","trial_index":98,"time_elapsed":434097,"internal_node_id":"0.0-98.0","subject":"S1C1629","sona":"41550","block":5,"time":"2021-09-22T01:19:33.186Z","response":"neither","certainty":"high","char":"G","transposition":0,"order":["shifted","swapped"],"probe_pitches":[10,5,11,7,6,-1,6,0,9,-1,10,2,0,10,8,-1],"shifted_pitches":[10,5,11,7,6,-1,6,1,9,-1,10,2,0,10,8,-1],"swapped_pitches":[10,5,11,7,6,-1,6,9,0,-1,10,2,0,10,8,-1],"shift_direction":1,"question_num":81,"has_decoy":false},{"rt":14513.799999952316,"stimulus":"[A] option 1, [L] option 2, [G] neither","key_press":71,"name":"choice","trial_type":"html-keyboard-response","trial_index":109,"time_elapsed":471219,"internal_node_id":"0.0-109.0","subject":"S1C1629","sona":"41550","block":5,"time":"2021-09-22T01:19:33.186Z","response":"neither","certainty":"high","char":"G","transposition":2,"order":["shifted","swapped"],"probe_pitches":[4,0,2,1,3,4,0,11,6,9,2,-1,4,6,9,1],"shifted_pitches":[4,0,2,1,3,4,0,11,7,9,2,-1,4,6,9,1],"swapped_pitches":[4,0,2,1,3,4,0,6,11,9,2,-1,4,6,9,1],"shift_direction":1,"question_num":91,"has_decoy":false},{"rt":16958.5,"stimulus":"[A] option 1, [L] option 2, [G] neither","key_press":76,"name":"choice","trial_type":"html-keyboard-response","trial_index":120,"time_elapsed":513583,"internal_node_id":"0.0-120.0","subject":"S1C1629","sona":"41550","block":5,"time":"2021-09-22T01:19:33.186Z","response":"2nd","certainty":"high","char":"L","transposition":-3,"order":["shifted","swapped"],"probe_pitches":[-2,0,-2,0,5,10,5,7,-2,0,10,5,7,2,10,-2],"shifted_pitches":[-2,0,-2,0,5,10,5,7,-1,0,10,5,7,2,10,-2],"swapped_pitches":[-2,0,-2,0,5,10,5,-2,7,0,10,5,7,2,10,-2],"shift_direction":1,"question_num":101,"has_decoy":false},{"rt":1887.5,"stimulus":"[A] option 1, [L] option 2, [G] neither","key_press":76,"name":"choice","trial_type":"html-keyboard-response","trial_index":131,"time_elapsed":537520,"internal_node_id":"0.0-131.0","subject":"S1C1629","sona":"41550","block":5,"time":"2021-09-22T01:19:33.186Z","response":"2nd","certainty":"high","char":"L","transposition":3,"order":["swapped","shifted"],"probe_pitches":[10,6,8,6,-2,8,-2,8,3,1,3,10,6,-2,10,1],"shifted_pitches":[10,6,8,6,-2,8,-2,8,4,1,3,10,6,-2,10,1],"swapped_pitches":[10,6,8,6,-2,8,-2,3,8,1,3,10,6,-2,10,1],"shift_direction":1,"question_num":111,"has_decoy":false},{"rt":119637.80000007153,"stimulus":"[A] option 1, [L] option 2, [G] neither","key_press":71,"name":"choice","trial_type":"html-keyboard-response","trial_index":142,"time_elapsed":821809,"internal_node_id":"0.0-142.0","subject":"S1C1629","sona":"41550","block":5,"time":"2021-09-22T01:19:33.186Z","response":"neither","certainty":"high","char":"G","transposition":3,"order":["swapped","shifted"],"probe_pitches":[1,5,7,10,3,5,2,8,3,6,8,5,7,10,9,2],"shifted_pitches":[1,5,7,10,3,5,2,8,4,6,8,5,7,10,9,2],"swapped_pitches":[1,5,7,10,3,5,2,3,8,6,8,5,7,10,9,2],"shift_direction":1,"question_num":121,"has_decoy":false},{"rt":861.1000000238419,"stimulus":"[A] option 1, [L] option 2, [G] neither","key_press":76,"name":"choice","trial_type":"html-keyboard-response","trial_index":153,"time_elapsed":847128,"internal_node_id":"0.0-153.0","subject":"S1C1629","sona":"41550","block":5,"time":"2021-09-22T01:19:33.186Z","response":"2nd","certainty":"high","char":"L","transposition":-2,"order":["swapped","shifted"],"probe_pitches":[2,7,2,-2,7,-2,2,5,10,7,0,5,0,10,2,10],"shifted_pitches":[2,7,2,-2,7,-2,2,4,10,7,0,5,0,10,2,10],"swapped_pitches":[2,7,2,-2,7,-2,2,10,5,7,0,5,0,10,2,10],"shift_direction":-1,"question_num":131,"has_decoy":false},{"rt":4602.200000047684,"stimulus":"[A] option 1, [L] option 2, [G] neither","key_press":76,"name":"choice","trial_type":"html-keyboard-response","trial_index":164,"time_elapsed":874298,"internal_node_id":"0.0-164.0","subject":"S1C1629","sona":"41550","block":5,"time":"2021-09-22T01:19:33.186Z","response":"2nd","certainty":"high","char":"L","transposition":1,"order":["swapped","shifted"],"probe_pitches":[10,6,1,3,6,10,8,10,1,-2,1,3,10,8,3,6],"shifted_pitches":[10,6,1,3,6,10,8,11,1,-2,1,3,10,8,3,6],"swapped_pitches":[10,6,1,3,6,10,8,1,10,-2,1,3,10,8,3,6],"shift_direction":1,"question_num":141,"has_decoy":false},{"rt":70777.80000007153,"stimulus":"[A] option 1, [L] option 2, [G] neither","key_press":71,"name":"choice","trial_type":"html-keyboard-response","trial_index":175,"time_elapsed":967195,"internal_node_id":"0.0-175.0","subject":"S1C1629","sona":"41550","block":5,"time":"2021-09-22T01:19:33.186Z","response":"neither","certainty":"high","char":"G","transposition":-3,"order":["swapped","shifted"],"probe_pitches":[8,3,10,5,1,8,5,-2,10,3,8,-2,3,5,-2,8],"shifted_pitches":[8,3,10,5,1,8,5,-2,9,3,8,-2,3,5,-2,8],"swapped_pitches":[8,3,10,5,1,8,5,10,-2,3,8,-2,3,5,-2,8],"shift_direction":-1,"question_num":151,"has_decoy":false},{"rt":107356.30000007153,"stimulus":"[A] option 1, [L] option 2, [G] neither","key_press":65,"name":"choice","trial_type":"html-keyboard-response","trial_index":186,"time_elapsed":1096986,"internal_node_id":"0.0-186.0","subject":"S1C1629","sona":"41550","block":5,"time":"2021-09-22T01:19:33.186Z","response":"1st","certainty":"high","char":"A","transposition":-1,"order":["swapped","shifted"],"probe_pitches":[10,5,7,9,0,7,5,10,2,5,7,6,11,1,11,8],"shifted_pitches":[10,5,7,9,0,7,5,10,3,5,7,6,11,1,11,8],"swapped_pitches":[10,5,7,9,0,7,5,2,10,5,7,6,11,1,11,8],"shift_direction":1,"question_num":161,"has_decoy":false},{"rt":181733.09999990463,"stimulus":"[A] option 1, [L] option 2, [G] neither","key_press":71,"name":"choice","trial_type":"html-keyboard-response","trial_index":197,"time_elapsed":1818304,"internal_node_id":"0.0-197.0","subject":"S1C1629","sona":"41550","block":5,"time":"2021-09-22T01:19:33.186Z","response":"neither","certainty":"high","char":"G","transposition":-2,"order":["swapped","shifted"],"probe_pitches":[1,2,8,1,-1,8,1,-1,11,2,7,2,0,5,1,2],"shifted_pitches":[1,2,8,1,-1,8,1,-2,11,2,7,2,0,5,1,2],"swapped_pitches":[1,2,8,1,-1,8,1,11,-1,2,7,2,0,5,1,2],"shift_direction":-1,"question_num":171,"has_decoy":false},{"rt":3867.5999999046326,"stimulus":"[A] option 1, [L] option 2, [G] neither","key_press":65,"name":"choice","trial_type":"html-keyboard-response","trial_index":208,"time_elapsed":1846218,"internal_node_id":"0.0-208.0","subject":"S1C1629","sona":"41550","block":5,"time":"2021-09-22T01:19:33.186Z","response":"1st","certainty":"high","char":"A","transposition":-2,"order":["swapped","shifted"],"probe_pitches":[-2,0,-2,3,10,5,0,5,-2,7,-2,0,5,7,3,-2],"shifted_pitches":[-2,0,-2,3,10,5,0,5,-3,7,-2,0,5,7,3,-2],"swapped_pitches":[-2,0,-2,3,10,5,0,-2,5,7,-2,0,5,7,3,-2],"shift_direction":-1,"question_num":181,"has_decoy":false},{"rt":2759.5,"stimulus":"[A] option 1, [L] option 2, [G] neither","key_press":76,"name":"choice","trial_type":"html-keyboard-response","trial_index":219,"time_elapsed":1875679,"internal_node_id":"0.0-219.0","subject":"S1C1629","sona":"41550","block":5,"time":"2021-09-22T01:19:33.186Z","response":"2nd","certainty":"high","char":"L","transposition":-3,"order":["shifted","swapped"],"probe_pitches":[3,2,4,8,-1,3,-1,5,10,4,5,6,10,0,5,11],"shifted_pitches":[3,2,4,8,-1,3,-1,5,9,4,5,6,10,0,5,11],"swapped_pitches":[3,2,4,8,-1,3,-1,10,5,4,5,6,10,0,5,11],"shift_direction":-1,"question_num":191,"has_decoy":false}]