[{"rt":21278.5,"stimulus":"[A] option 1, [L] option 2, [G] neither","key_press":76,"name":"choice","trial_type":"html-keyboard-response","trial_index":10,"time_elapsed":46783,"internal_node_id":"0.0-10.0","subject":"S1C1629","sona":"41550","block":3,"time":"2021-09-22T00:27:03.503Z","response":"2nd","certainty":"high","char":"L","transposition":-3,"order":["shifted","swapped"],"probe_pitches":[11,6,4,11,2,4,14,2,11,4,9,2,11,2,6,4],"shifted_pitches":[11,6,4,11,2,4,14,1,11,4,9,2,11,2,6,4],"swapped_pitches":[11,6,4,11,2,4,14,11,2,4,9,2,11,2,6,4],"shift_direction":-1,"question_num":1,"has_decoy":false},{"rt":4897.800000071526,"stimulus":"[A] option 1, [L] option 2, [G] neither","key_press":65,"name":"choice","trial_type":"html-keyboard-response","trial_index":21,"time_elapsed":74498,"internal_node_id":"0.0-21.0","subject":"S1C1629","sona":"41550","block":3,"time":"2021-09-22T00:27:03.503Z","response":"1st","certainty":"high","char":"A","transposition":-2,"order":["shifted","swapped"],"probe_pitches":[4,7,12,10,15,8,5,9,12,7,8,14,6,12,5,7],"shifted_pitches":[4,7,12,10,15,8,5,9,11,7,8,14,6,12,5,7],"swapped_pitches":[4,7,12,10,15,8,5,12,9,7,8,14,6,12,5,7],"shift_direction":-1,"question_num":11,"has_decoy":false},{"rt":1261.3000000715256,"stimulus":"[A] option 1, [L] option 2, [G] neither","key_press":65,"name":"choice","trial_type":"html-keyboard-response","trial_index":32,"time_elapsed":98499,"internal_node_id":"0.0-32.0","subject":"S1C1629","sona":"41550","block":3,"time":"2021-09-22T00:27:03.503Z","response":"1st","certainty":"high","char":"A","transposition":-1,"order":["swapped","shifted"],"probe_pitches":[15,9,4,9,13,12,3,5,7,10,11,15,6,13,6,10],"shifted_pitches":[15,9,4,9,13,12,3,5,8,10,11,15,6,13,6,10],"swapped_pitches":[15,9,4,9,13,12,3,7,5,10,11,15,6,13,6,10],"shift_direction":1,"question_num":21,"has_decoy":false},{"rt":1598.3999999761581,"stimulus":"[A] option 1, [L] option 2, [G] neither","key_press":65,"name":"choice","trial_type":"html-keyboard-response","trial_index":43,"time_elapsed":123364,"internal_node_id":"0.0-43.0","subject":"S1C1629","sona":"41550","block":3,"time":"2021-09-22T00:27:03.503Z","response":"1st","certainty":"high","char":"A","transposition":1,"order":["swapped","shifted"],"probe_pitches":[6,8,13,11,13,12,3,9,4,14,4,7,12,10,7,4],"shifted_pitches":[6,8,13,11,13,12,3,9,5,14,4,7,12,10,7,4],"swapped_pitches":[6,8,13,11,13,12,3,4,9,14,4,7,12,10,7,4],"shift_direction":1,"question_num":31,"has_decoy":false},{"rt":2511.899999976158,"stimulus":"[A] option 1, [L] option 2, [G] neither","key_press":65,"name":"choice","trial_type":"html-keyboard-response","trial_index":54,"time_elapsed":152709,"internal_node_id":"0.0-54.0","subject":"S1C1629","sona":"41550","block":3,"time":"2021-09-22T00:27:03.503Z","response":"1st","certainty":"high","char":"A","transposition":-2,"order":["swapped","shifted"],"probe_pitches":[7,2,4,11,9,7,2,14,4,11,14,7,11,7,9,4],"shifted_pitches":[7,2,4,11,9,7,2,14,3,11,14,7,11,7,9,4],"swapped_pitches":[7,2,4,11,9,7,2,4,14,11,14,7,11,7,9,4],"shift_direction":-1,"question_num":41,"has_decoy":false},{"rt":2499.7999999523163,"stimulus":"[A] option 1, [L] option 2, [G] neither","key_press":76,"name":"choice","trial_type":"html-keyboard-response","trial_index":65,"time_elapsed":177721,"internal_node_id":"0.0-65.0","subject":"S1C1629","sona":"41550","block":3,"time":"2021-09-22T00:27:03.503Z","response":"2nd","certainty":"high","char":"L","transposition":-1,"order":["swapped","shifted"],"probe_pitches":[7,9,12,9,4,2,9,4,2,7,4,7,9,7,4,12],"shifted_pitches":[7,9,12,9,4,2,9,4,3,7,4,7,9,7,4,12],"swapped_pitches":[7,9,12,9,4,2,9,2,4,7,4,7,9,7,4,12],"shift_direction":1,"question_num":51,"has_decoy":false},{"rt":2253.5,"stimulus":"[A] option 1, [L] option 2, [G] neither","key_press":71,"name":"choice","trial_type":"html-keyboard-response","trial_index":76,"time_elapsed":202477,"internal_node_id":"0.0-76.0","subject":"S1C1629","sona":"41550","block":3,"time":"2021-09-22T00:27:03.503Z","response":"neither","certainty":"high","char":"G","transposition":-3,"order":["shifted","swapped"],"probe_pitches":[4,9,15,8,4,8,9,14,7,3,13,11,13,8,14,15],"shifted_pitches":[4,9,15,8,4,8,9,14,6,3,13,11,13,8,14,15],"swapped_pitches":[4,9,15,8,4,8,9,7,14,3,13,11,13,8,14,15],"shift_direction":-1,"question_num":61,"has_decoy":false},{"rt":4745.799999952316,"stimulus":"[A] option 1, [L] option 2, [G] neither","key_press":76,"name":"choice","trial_type":"html-keyboard-response","trial_index":87,"time_elapsed":230500,"internal_node_id":"0.0-87.0","subject":"S1C1629","sona":"41550","block":3,"time":"2021-09-22T00:27:03.503Z","response":"2nd","certainty":"high","char":"L","transposition":1,"order":["shifted","swapped"],"probe_pitches":[5,7,2,5,12,7,14,7,9,14,9,2,12,9,7,9],"shifted_pitches":[5,7,2,5,12,7,14,8,9,14,9,2,12,9,7,9],"swapped_pitches":[5,7,2,5,12,7,14,9,7,14,9,2,12,9,7,9],"shift_direction":1,"question_num":71,"has_decoy":false},{"rt":2906.2999999523163,"stimulus":"[A] option 1, [L] option 2, [G] neither","key_press":71,"name":"choice","trial_type":"html-keyboard-response","trial_index":98,"time_elapsed":256111,"internal_node_id":"0.0-98.0","subject":"S1C1629","sona":"41550","block":3,"time":"2021-09-22T00:27:03.503Z","response":"neither","certainty":"high","char":"G","transposition":3,"order":["shifted","swapped"],"probe_pitches":[5,7,9,12,5,2,12,9,5,12,14,9,5,7,9,12],"shifted_pitches":[5,7,9,12,5,2,12,10,5,12,14,9,5,7,9,12],"swapped_pitches":[5,7,9,12,5,2,12,5,9,12,14,9,5,7,9,12],"shift_direction":1,"question_num":81,"has_decoy":false},{"rt":3438,"stimulus":"[A] option 1, [L] option 2, [G] neither","key_press":76,"name":"choice","trial_type":"html-keyboard-response","trial_index":109,"time_elapsed":284359,"internal_node_id":"0.0-109.0","subject":"S1C1629","sona":"41550","block":3,"time":"2021-09-22T00:27:03.503Z","response":"2nd","certainty":"high","char":"L","transposition":3,"order":["shifted","swapped"],"probe_pitches":[13,8,9,15,7,12,4,15,9,6,13,11,12,9,8,11],"shifted_pitches":[13,8,9,15,7,12,4,15,10,6,13,11,12,9,8,11],"swapped_pitches":[13,8,9,15,7,12,4,9,15,6,13,11,12,9,8,11],"shift_direction":1,"question_num":91,"has_decoy":false},{"rt":4325.600000023842,"stimulus":"[A] option 1, [L] option 2, [G] neither","key_press":76,"name":"choice","trial_type":"html-keyboard-response","trial_index":120,"time_elapsed":311119,"internal_node_id":"0.0-120.0","subject":"S1C1629","sona":"41550","block":3,"time":"2021-09-22T00:27:03.503Z","response":"2nd","certainty":"high","char":"L","transposition":-2,"order":["swapped","shifted"],"probe_pitches":[14,13,6,12,13,5,4,10,5,6,11,12,11,12,13,7],"shifted_pitches":[14,13,6,12,13,5,4,9,5,6,11,12,11,12,13,7],"swapped_pitches":[14,13,6,12,13,5,4,5,10,6,11,12,11,12,13,7],"shift_direction":-1,"question_num":101,"has_decoy":false},{"rt":3750.5,"stimulus":"[A] option 1, [L] option 2, [G] neither","key_press":65,"name":"choice","trial_type":"html-keyboard-response","trial_index":131,"time_elapsed":337307,"internal_node_id":"0.0-131.0","subject":"S1C1629","sona":"41550","block":3,"time":"2021-09-22T00:27:03.503Z","response":"1st","certainty":"high","char":"A","transposition":-3,"order":["shifted","swapped"],"probe_pitches":[4,9,6,7,12,14,15,14,11,8,11,5,3,6,8,4],"shifted_pitches":[4,9,6,7,12,14,15,13,11,8,11,5,3,6,8,4],"swapped_pitches":[4,9,6,7,12,14,15,11,14,8,11,5,3,6,8,4],"shift_direction":-1,"question_num":111,"has_decoy":false},{"rt":2628.399999976158,"stimulus":"[A] option 1, [L] option 2, [G] neither","key_press":76,"name":"choice","trial_type":"html-keyboard-response","trial_index":142,"time_elapsed":362408,"internal_node_id":"0.0-142.0","subject":"S1C1629","sona":"41550","block":3,"time":"2021-09-22T00:27:03.503Z","response":"2nd","certainty":"high","char":"L","transposition":-3,"order":["swapped","shifted"],"probe_pitches":[6,4,6,2,9,2,9,2,11,9,11,4,2,6,2,11],"shifted_pitches":[6,4,6,2,9,2,9,2,12,9,11,4,2,6,2,11],"swapped_pitches":[6,4,6,2,9,2,9,11,2,9,11,4,2,6,2,11],"shift_direction":1,"question_num":121,"has_decoy":false},{"rt":4572,"stimulus":"[A] option 1, [L] option 2, [G] neither","key_press":65,"name":"choice","trial_type":"html-keyboard-response","trial_index":153,"time_elapsed":389105,"internal_node_id":"0.0-153.0","subject":"S1C1629","sona":"41550","block":3,"time":"2021-09-22T00:27:03.503Z","response":"1st","certainty":"high","char":"A","transposition":2,"order":["swapped","shifted"],"probe_pitches":[11,9,2,4,7,2,7,11,9,4,7,11,4,7,2,9],"shifted_pitches":[11,9,2,4,7,2,7,10,9,4,7,11,4,7,2,9],"swapped_pitches":[11,9,2,4,7,2,7,9,11,4,7,11,4,7,2,9],"shift_direction":-1,"question_num":131,"has_decoy":false},{"rt":5783.5,"stimulus":"[A] option 1, [L] option 2, [G] neither","key_press":71,"name":"choice","trial_type":"html-keyboard-response","trial_index":164,"time_elapsed":417073,"internal_node_id":"0.0-164.0","subject":"S1C1629","sona":"41550","block":3,"time":"2021-09-22T00:27:03.503Z","response":"neither","certainty":"high","char":"G","transposition":0,"order":["shifted","swapped"],"probe_pitches":[13,15,13,6,9,11,10,15,13,12,11,6,5,11,9,3],"shifted_pitches":[13,15,13,6,9,11,10,14,13,12,11,6,5,11,9,3],"swapped_pitches":[13,15,13,6,9,11,10,13,15,12,11,6,5,11,9,3],"shift_direction":-1,"question_num":141,"has_decoy":false},{"rt":5918.899999976158,"stimulus":"[A] option 1, [L] option 2, [G] neither","key_press":71,"name":"choice","trial_type":"html-keyboard-response","trial_index":175,"time_elapsed":488165,"internal_node_id":"0.0-175.0","subject":"S1C1629","sona":"41550","block":3,"time":"2021-09-22T00:27:03.503Z","response":"neither","certainty":"high","char":"G","transposition":0,"order":["shifted","swapped"],"probe_pitches":[7,2,7,5,12,10,7,12,2,5,10,5,14,12,5,14],"shifted_pitches":[7,2,7,5,12,10,7,11,2,5,10,5,14,12,5,14],"swapped_pitches":[7,2,7,5,12,10,7,2,12,5,10,5,14,12,5,14],"shift_direction":-1,"question_num":151,"has_decoy":false},{"rt":3410.2000000476837,"stimulus":"[A] option 1, [L] option 2, [G] neither","key_press":76,"name":"choice","trial_type":"html-keyboard-response","trial_index":186,"time_elapsed":513656,"internal_node_id":"0.0-186.0","subject":"S1C1629","sona":"41550","block":3,"time":"2021-09-22T00:27:03.503Z","response":"2nd","certainty":"high","char":"L","transposition":2,"order":["swapped","shifted"],"probe_pitches":[8,6,13,10,8,4,9,6,3,13,5,15,5,8,12,5],"shifted_pitches":[8,6,13,10,8,4,9,7,3,13,5,15,5,8,12,5],"swapped_pitches":[8,6,13,10,8,4,9,3,6,13,5,15,5,8,12,5],"shift_direction":1,"question_num":161,"has_decoy":false},{"rt":5352.899999976158,"stimulus":"[A] option 1, [L] option 2, [G] neither","key_press":65,"name":"choice","trial_type":"html-keyboard-response","trial_index":197,"time_elapsed":550543,"internal_node_id":"0.0-197.0","subject":"S1C1629","sona":"41550","block":3,"time":"2021-09-22T00:27:03.503Z","response":"1st","certainty":"high","char":"A","transposition":-1,"order":["swapped","shifted"],"probe_pitches":[5,8,9,13,15,6,9,11,6,14,3,14,5,4,5,6],"shifted_pitches":[5,8,9,13,15,6,9,12,6,14,3,14,5,4,5,6],"swapped_pitches":[5,8,9,13,15,6,9,6,11,14,3,14,5,4,5,6],"shift_direction":1,"question_num":171,"has_decoy":false},{"rt":604.8999999761581,"stimulus":"[A] option 1, [L] option 2, [G] neither","key_press":71,"name":"choice","trial_type":"html-keyboard-response","trial_index":208,"time_elapsed":574339,"internal_node_id":"0.0-208.0","subject":"S1C1629","sona":"41550","block":3,"time":"2021-09-22T00:27:03.503Z","response":"neither","certainty":"high","char":"G","transposition":-1,"order":["shifted","swapped"],"probe_pitches":[4,9,4,12,9,2,7,4,9,7,12,14,12,2,4,7],"shifted_pitches":[4,9,4,12,9,2,7,4,8,7,12,14,12,2,4,7],"swapped_pitches":[4,9,4,12,9,2,7,9,4,7,12,14,12,2,4,7],"shift_direction":-1,"question_num":181,"has_decoy":false},{"rt":2572.3000000715256,"stimulus":"[A] option 1, [L] option 2, [G] neither","key_press":76,"name":"choice","trial_type":"html-keyboard-response","trial_index":219,"time_elapsed":609409,"internal_node_id":"0.0-219.0","subject":"S1C1629","sona":"41550","block":3,"time":"2021-09-22T00:27:03.503Z","response":"2nd","certainty":"high","char":"L","transposition":-2,"order":["swapped","shifted"],"probe_pitches":[14,12,14,7,14,7,14,10,2,14,2,12,5,14,7,12],"shifted_pitches":[14,12,14,7,14,7,14,10,3,14,2,12,5,14,7,12],"swapped_pitches":[14,12,14,7,14,7,14,2,10,14,2,12,5,14,7,12],"shift_direction":1,"question_num":191,"has_decoy":false}]