[{"rt":4652.299999952316,"stimulus":"[A] option 1, [L] option 2, [G] neither","key_press":65,"name":"choice","trial_type":"html-keyboard-response","trial_index":10,"time_elapsed":31378,"internal_node_id":"0.0-10.0","subject":"S1C1629","sona":"41550","block":4,"time":"2021-09-22T00:48:14.257Z","response":"1st","certainty":"high","char":"A","transposition":-3,"order":["swapped","shifted"],"probe_pitches":[5,10,5,0,5,7,3,7,-2,0,3,0,5,10,7,-2],"shifted_pitches":[5,10,5,0,5,7,3,6,-2,0,3,0,5,10,7,-2],"swapped_pitches":[5,10,5,0,5,7,3,-2,7,0,3,0,5,10,7,-2],"shift_direction":-1,"question_num":1,"has_decoy":false},{"rt":5665.899999976158,"stimulus":"[A] option 1, [L] option 2, [G] neither","key_press":65,"name":"choice","trial_type":"html-keyboard-response","trial_index":21,"time_elapsed":60099,"internal_node_id":"0.0-21.0","subject":"S1C1629","sona":"41550","block":4,"time":"2021-09-22T00:48:14.257Z","response":"1st","certainty":"high","char":"A","transposition":-1,"order":["swapped","shifted"],"probe_pitches":[9,7,3,8,12,4,3,4,9,14,9,6,12,8,10,11],"shifted_pitches":[9,7,3,8,12,4,3,5,9,14,9,6,12,8,10,11],"swapped_pitches":[9,7,3,8,12,4,3,9,4,14,9,6,12,8,10,11],"shift_direction":1,"question_num":11,"has_decoy":false},{"rt":11043.599999904633,"stimulus":"[A] option 1, [L] option 2, [G] neither","key_press":71,"name":"choice","trial_type":"html-keyboard-response","trial_index":32,"time_elapsed":93674,"internal_node_id":"0.0-32.0","subject":"S1C1629","sona":"41550","block":4,"time":"2021-09-22T00:48:14.257Z","response":"neither","certainty":"high","char":"G","transposition":-2,"order":["swapped","shifted"],"probe_pitches":[12,10,3,10,2,7,12,13,3,11,3,10,6,3,7,3],"shifted_pitches":[12,10,3,10,2,7,12,13,4,11,3,10,6,3,7,3],"swapped_pitches":[12,10,3,10,2,7,12,3,13,11,3,10,6,3,7,3],"shift_direction":1,"question_num":21,"has_decoy":false},{"rt":4602.899999976158,"stimulus":"[A] option 1, [L] option 2, [G] neither","key_press":65,"name":"choice","trial_type":"html-keyboard-response","trial_index":43,"time_elapsed":120892,"internal_node_id":"0.0-43.0","subject":"S1C1629","sona":"41550","block":4,"time":"2021-09-22T00:48:14.257Z","response":"1st","certainty":"high","char":"A","transposition":-3,"order":["shifted","swapped"],"probe_pitches":[4,10,6,9,12,3,4,2,14,7,11,8,3,6,2,3],"shifted_pitches":[4,10,6,9,12,3,4,2,13,7,11,8,3,6,2,3],"swapped_pitches":[4,10,6,9,12,3,4,14,2,7,11,8,3,6,2,3],"shift_direction":-1,"question_num":31,"has_decoy":false},{"rt":11650.600000023842,"stimulus":"[A] option 1, [L] option 2, [G] neither","key_press":71,"name":"choice","trial_type":"html-keyboard-response","trial_index":54,"time_elapsed":155113,"internal_node_id":"0.0-54.0","subject":"S1C1629","sona":"41550","block":4,"time":"2021-09-22T00:48:14.257Z","response":"neither","certainty":"high","char":"G","transposition":-3,"order":["shifted","swapped"],"probe_pitches":[8,10,14,8,10,4,14,5,2,14,4,7,8,4,14,7],"shifted_pitches":[8,10,14,8,10,4,14,6,2,14,4,7,8,4,14,7],"swapped_pitches":[8,10,14,8,10,4,14,2,5,14,4,7,8,4,14,7],"shift_direction":1,"question_num":41,"has_decoy":false},{"rt":7206.199999928474,"stimulus":"[A] option 1, [L] option 2, [G] neither","key_press":65,"name":"choice","trial_type":"html-keyboard-response","trial_index":65,"time_elapsed":184572,"internal_node_id":"0.0-65.0","subject":"S1C1629","sona":"41550","block":4,"time":"2021-09-22T00:48:14.257Z","response":"1st","certainty":"high","char":"A","transposition":-2,"order":["swapped","shifted"],"probe_pitches":[8,14,12,8,12,4,8,6,13,5,6,8,9,11,6,11],"shifted_pitches":[8,14,12,8,12,4,8,7,13,5,6,8,9,11,6,11],"swapped_pitches":[8,14,12,8,12,4,8,13,6,5,6,8,9,11,6,11],"shift_direction":1,"question_num":51,"has_decoy":false},{"rt":14342.300000071526,"stimulus":"[A] option 1, [L] option 2, [G] neither","key_press":71,"name":"choice","trial_type":"html-keyboard-response","trial_index":76,"time_elapsed":220972,"internal_node_id":"0.0-76.0","subject":"S1C1629","sona":"41550","block":4,"time":"2021-09-22T00:48:14.257Z","response":"neither","certainty":"high","char":"G","transposition":1,"order":["shifted","swapped"],"probe_pitches":[14,8,13,7,5,13,7,3,13,4,5,11,14,3,8,13],"shifted_pitches":[14,8,13,7,5,13,7,3,12,4,5,11,14,3,8,13],"swapped_pitches":[14,8,13,7,5,13,7,13,3,4,5,11,14,3,8,13],"shift_direction":-1,"question_num":61,"has_decoy":false},{"rt":14860.300000071526,"stimulus":"[A] option 1, [L] option 2, [G] neither","key_press":71,"name":"choice","trial_type":"html-keyboard-response","trial_index":87,"time_elapsed":257949,"internal_node_id":"0.0-87.0","subject":"S1C1629","sona":"41550","block":4,"time":"2021-09-22T00:48:14.257Z","response":"neither","certainty":"high","char":"G","transposition":-1,"order":["shifted","swapped"],"probe_pitches":[12,7,3,4,10,3,6,10,11,5,12,8,4,3,2,10],"shifted_pitches":[12,7,3,4,10,3,6,9,11,5,12,8,4,3,2,10],"swapped_pitches":[12,7,3,4,10,3,6,11,10,5,12,8,4,3,2,10],"shift_direction":-1,"question_num":71,"has_decoy":false},{"rt":120231.89999997616,"stimulus":"[A] option 1, [L] option 2, [G] neither","key_press":71,"name":"choice","trial_type":"html-keyboard-response","trial_index":98,"time_elapsed":442367,"internal_node_id":"0.0-98.0","subject":"S1C1629","sona":"41550","block":4,"time":"2021-09-22T00:48:14.257Z","response":"neither","certainty":"high","char":"G","transposition":-1,"order":["swapped","shifted"],"probe_pitches":[5,1,-2,1,5,-2,8,1,5,10,5,10,-2,3,1,10],"shifted_pitches":[5,1,-2,1,5,-2,8,0,5,10,5,10,-2,3,1,10],"swapped_pitches":[5,1,-2,1,5,-2,8,5,1,10,5,10,-2,3,1,10],"shift_direction":-1,"question_num":81,"has_decoy":false},{"rt":25977.100000023842,"stimulus":"[A] option 1, [L] option 2, [G] neither","key_press":71,"name":"choice","trial_type":"html-keyboard-response","trial_index":109,"time_elapsed":490535,"internal_node_id":"0.0-109.0","subject":"S1C1629","sona":"41550","block":4,"time":"2021-09-22T00:48:14.257Z","response":"neither","certainty":"high","char":"G","transposition":2,"order":["swapped","shifted"],"probe_pitches":[8,7,11,6,8,2,8,13,11,4,11,7,6,9,11,14],"shifted_pitches":[8,7,11,6,8,2,8,13,10,4,11,7,6,9,11,14],"swapped_pitches":[8,7,11,6,8,2,8,11,13,4,11,7,6,9,11,14],"shift_direction":-1,"question_num":91,"has_decoy":false},{"rt":18757,"stimulus":"[A] option 1, [L] option 2, [G] neither","key_press":65,"name":"choice","trial_type":"html-keyboard-response","trial_index":120,"time_elapsed":531524,"internal_node_id":"0.0-120.0","subject":"S1C1629","sona":"41550","block":4,"time":"2021-09-22T00:48:14.257Z","response":"1st","certainty":"high","char":"A","transposition":0,"order":["swapped","shifted"],"probe_pitches":[2,0,5,2,0,7,0,-2,7,10,-2,0,2,5,7,10],"shifted_pitches":[2,0,5,2,0,7,0,-2,6,10,-2,0,2,5,7,10],"swapped_pitches":[2,0,5,2,0,7,0,7,-2,10,-2,0,2,5,7,10],"shift_direction":-1,"question_num":101,"has_decoy":false},{"rt":119993.80000007153,"stimulus":"[A] option 1, [L] option 2, [G] neither","key_press":71,"name":"choice","trial_type":"html-keyboard-response","trial_index":131,"time_elapsed":713834,"internal_node_id":"0.0-131.0","subject":"S1C1629","sona":"41550","block":4,"time":"2021-09-22T00:48:14.257Z","response":"neither","certainty":"high","char":"G","transposition":-3,"order":["swapped","shifted"],"probe_pitches":[1,-2,1,8,3,-2,3,1,5,3,8,10,1,3,10,8],"shifted_pitches":[1,-2,1,8,3,-2,3,1,6,3,8,10,1,3,10,8],"swapped_pitches":[1,-2,1,8,3,-2,3,5,1,3,8,10,1,3,10,8],"shift_direction":1,"question_num":111,"has_decoy":false},{"rt":117873.69999992847,"stimulus":"[A] option 1, [L] option 2, [G] neither","key_press":71,"name":"choice","trial_type":"html-keyboard-response","trial_index":142,"time_elapsed":1061653,"internal_node_id":"0.0-142.0","subject":"S1C1629","sona":"41550","block":4,"time":"2021-09-22T00:48:14.257Z","response":"neither","certainty":"high","char":"G","transposition":-1,"order":["shifted","swapped"],"probe_pitches":[7,10,7,5,10,0,10,0,3,5,0,10,-2,3,5,3],"shifted_pitches":[7,10,7,5,10,0,10,-1,3,5,0,10,-2,3,5,3],"swapped_pitches":[7,10,7,5,10,0,10,3,0,5,0,10,-2,3,5,3],"shift_direction":-1,"question_num":121,"has_decoy":false},{"rt":3276.2000000476837,"stimulus":"[A] option 1, [L] option 2, [G] neither","key_press":76,"name":"choice","trial_type":"html-keyboard-response","trial_index":153,"time_elapsed":1088762,"internal_node_id":"0.0-153.0","subject":"S1C1629","sona":"41550","block":4,"time":"2021-09-22T00:48:14.257Z","response":"2nd","certainty":"high","char":"L","transposition":-2,"order":["shifted","swapped"],"probe_pitches":[10,5,3,-2,0,5,3,-2,8,5,3,0,10,3,5,10],"shifted_pitches":[10,5,3,-2,0,5,3,-2,7,5,3,0,10,3,5,10],"swapped_pitches":[10,5,3,-2,0,5,3,8,-2,5,3,0,10,3,5,10],"shift_direction":-1,"question_num":131,"has_decoy":false},{"rt":6595.900000095367,"stimulus":"[A] option 1, [L] option 2, [G] neither","key_press":65,"name":"choice","trial_type":"html-keyboard-response","trial_index":164,"time_elapsed":1118231,"internal_node_id":"0.0-164.0","subject":"S1C1629","sona":"41550","block":4,"time":"2021-09-22T00:48:14.257Z","response":"1st","certainty":"high","char":"A","transposition":1,"order":["shifted","swapped"],"probe_pitches":[2,5,10,7,0,5,7,5,-2,7,2,10,7,-2,10,2],"shifted_pitches":[2,5,10,7,0,5,7,6,-2,7,2,10,7,-2,10,2],"swapped_pitches":[2,5,10,7,0,5,7,-2,5,7,2,10,7,-2,10,2],"shift_direction":1,"question_num":141,"has_decoy":false},{"rt":7264,"stimulus":"[A] option 1, [L] option 2, [G] neither","key_press":65,"name":"choice","trial_type":"html-keyboard-response","trial_index":175,"time_elapsed":1148414,"internal_node_id":"0.0-175.0","subject":"S1C1629","sona":"41550","block":4,"time":"2021-09-22T00:48:14.257Z","response":"1st","certainty":"high","char":"A","transposition":0,"order":["shifted","swapped"],"probe_pitches":[10,14,10,12,6,13,6,13,7,9,3,6,9,7,5,10],"shifted_pitches":[10,14,10,12,6,13,6,13,8,9,3,6,9,7,5,10],"swapped_pitches":[10,14,10,12,6,13,6,7,13,9,3,6,9,7,5,10],"shift_direction":1,"question_num":151,"has_decoy":false},{"rt":3799.2999999523163,"stimulus":"[A] option 1, [L] option 2, [G] neither","key_press":65,"name":"choice","trial_type":"html-keyboard-response","trial_index":186,"time_elapsed":1174708,"internal_node_id":"0.0-186.0","subject":"S1C1629","sona":"41550","block":4,"time":"2021-09-22T00:48:14.257Z","response":"1st","certainty":"high","char":"A","transposition":2,"order":["shifted","swapped"],"probe_pitches":[10,8,10,8,1,-2,1,-2,8,6,8,3,1,10,6,1],"shifted_pitches":[10,8,10,8,1,-2,1,-1,8,6,8,3,1,10,6,1],"swapped_pitches":[10,8,10,8,1,-2,1,8,-2,6,8,3,1,10,6,1],"shift_direction":1,"question_num":161,"has_decoy":false},{"rt":9829.600000023842,"stimulus":"[A] option 1, [L] option 2, [G] neither","key_press":71,"name":"choice","trial_type":"html-keyboard-response","trial_index":197,"time_elapsed":1206732,"internal_node_id":"0.0-197.0","subject":"S1C1629","sona":"41550","block":4,"time":"2021-09-22T00:48:14.257Z","response":"neither","certainty":"high","char":"G","transposition":-2,"order":["swapped","shifted"],"probe_pitches":[3,0,-2,5,0,3,10,0,8,10,5,0,8,5,0,8],"shifted_pitches":[3,0,-2,5,0,3,10,0,9,10,5,0,8,5,0,8],"swapped_pitches":[3,0,-2,5,0,3,10,8,0,10,5,0,8,5,0,8],"shift_direction":1,"question_num":171,"has_decoy":false},{"rt":11916.299999952316,"stimulus":"[A] option 1, [L] option 2, [G] neither","key_press":76,"name":"choice","trial_type":"html-keyboard-response","trial_index":208,"time_elapsed":1240799,"internal_node_id":"0.0-208.0","subject":"S1C1629","sona":"41550","block":4,"time":"2021-09-22T00:48:14.257Z","response":"2nd","certainty":"high","char":"L","transposition":3,"order":["shifted","swapped"],"probe_pitches":[8,3,-2,1,6,-2,3,-2,1,6,3,10,3,8,10,6],"shifted_pitches":[8,3,-2,1,6,-2,3,-2,2,6,3,10,3,8,10,6],"swapped_pitches":[8,3,-2,1,6,-2,3,1,-2,6,3,10,3,8,10,6],"shift_direction":1,"question_num":181,"has_decoy":false},{"rt":3004.5,"stimulus":"[A] option 1, [L] option 2, [G] neither","key_press":76,"name":"choice","trial_type":"html-keyboard-response","trial_index":219,"time_elapsed":1268393,"internal_node_id":"0.0-219.0","subject":"S1C1629","sona":"41550","block":4,"time":"2021-09-22T00:48:14.257Z","response":"2nd","certainty":"high","char":"L","transposition":3,"order":["swapped","shifted"],"probe_pitches":[12,6,7,3,8,12,5,12,4,2,7,13,3,12,6,13],"shifted_pitches":[12,6,7,3,8,12,5,11,4,2,7,13,3,12,6,13],"swapped_pitches":[12,6,7,3,8,12,5,4,12,2,7,13,3,12,6,13],"shift_direction":-1,"question_num":191,"has_decoy":false}]