[{"rt":13157.299999952316,"stimulus":"[A] option 1, [L] option 2, [G] neither","key_press":71,"name":"choice","trial_type":"html-keyboard-response","trial_index":10,"time_elapsed":35925,"internal_node_id":"0.0-10.0","subject":"S1C1629","sona":"41550","block":6,"time":"2021-09-22T01:39:22.336Z","response":"neither","certainty":"high","char":"G","transposition":-3,"order":["shifted","swapped"],"probe_pitches":[5,2,7,2,0,-3,5,0,-3,7,0,7,2,-3,9,7],"shifted_pitches":[5,2,7,2,0,-3,5,1,-3,7,0,7,2,-3,9,7],"swapped_pitches":[5,2,7,2,0,-3,5,-3,0,7,0,7,2,-3,9,7],"shift_direction":1,"question_num":1,"has_decoy":false},{"rt":10423.5,"stimulus":"[A] option 1, [L] option 2, [G] neither","key_press":76,"name":"choice","trial_type":"html-keyboard-response","trial_index":21,"time_elapsed":68977,"internal_node_id":"0.0-21.0","subject":"S1C1629","sona":"41550","block":6,"time":"2021-09-22T01:39:22.336Z","response":"2nd","certainty":"high","char":"L","transposition":1,"order":["swapped","shifted"],"probe_pitches":[2,-1,-3,2,-3,-1,9,2,7,9,7,2,4,-1,2,9],"shifted_pitches":[2,-1,-3,2,-3,-1,9,3,7,9,7,2,4,-1,2,9],"swapped_pitches":[2,-1,-3,2,-3,-1,9,7,2,9,7,2,4,-1,2,9],"shift_direction":1,"question_num":11,"has_decoy":false},{"rt":34939.5,"stimulus":"[A] option 1, [L] option 2, [G] neither","key_press":71,"name":"choice","trial_type":"html-keyboard-response","trial_index":32,"time_elapsed":126395,"internal_node_id":"0.0-32.0","subject":"S1C1629","sona":"41550","block":6,"time":"2021-09-22T01:39:22.336Z","response":"neither","certainty":"high","char":"G","transposition":-3,"order":["shifted","swapped"],"probe_pitches":[4,6,4,6,-3,1,-3,9,4,-3,6,4,1,-1,4,9],"shifted_pitches":[4,6,4,6,-3,1,-3,8,4,-3,6,4,1,-1,4,9],"swapped_pitches":[4,6,4,6,-3,1,-3,4,9,-3,6,4,1,-1,4,9],"shift_direction":-1,"question_num":21,"has_decoy":false},{"rt":15242.299999952316,"stimulus":"[A] option 1, [L] option 2, [G] neither","key_press":65,"name":"choice","trial_type":"html-keyboard-response","trial_index":43,"time_elapsed":171829,"internal_node_id":"0.0-43.0","subject":"S1C1629","sona":"41550","block":6,"time":"2021-09-22T01:39:22.336Z","response":"1st","certainty":"high","char":"A","transposition":-2,"order":["shifted","swapped"],"probe_pitches":[10,5,-2,1,10,3,8,10,7,6,10,-1,5,7,5,3],"shifted_pitches":[10,5,-2,1,10,3,8,9,7,6,10,-1,5,7,5,3],"swapped_pitches":[10,5,-2,1,10,3,8,7,10,6,10,-1,5,7,5,3],"shift_direction":-1,"question_num":31,"has_decoy":false},{"rt":17581.899999976158,"stimulus":"[A] option 1, [L] option 2, [G] neither","key_press":71,"name":"choice","trial_type":"html-keyboard-response","trial_index":54,"time_elapsed":212587,"internal_node_id":"0.0-54.0","subject":"S1C1629","sona":"41550","block":6,"time":"2021-09-22T01:39:22.336Z","response":"neither","certainty":"high","char":"G","transposition":-2,"order":["swapped","shifted"],"probe_pitches":[-1,-3,-1,4,-1,7,-3,7,4,9,2,-1,9,-3,2,9],"shifted_pitches":[-1,-3,-1,4,-1,7,-3,7,5,9,2,-1,9,-3,2,9],"swapped_pitches":[-1,-3,-1,4,-1,7,-3,4,7,9,2,-1,9,-3,2,9],"shift_direction":1,"question_num":41,"has_decoy":false},{"rt":6249.100000023842,"stimulus":"[A] option 1, [L] option 2, [G] neither","key_press":71,"name":"choice","trial_type":"html-keyboard-response","trial_index":65,"time_elapsed":241653,"internal_node_id":"0.0-65.0","subject":"S1C1629","sona":"41550","block":6,"time":"2021-09-22T01:39:22.336Z","response":"neither","certainty":"high","char":"G","transposition":-1,"order":["swapped","shifted"],"probe_pitches":[-3,0,2,-3,5,9,0,-3,9,5,7,9,7,5,9,-3],"shifted_pitches":[-3,0,2,-3,5,9,0,-3,8,5,7,9,7,5,9,-3],"swapped_pitches":[-3,0,2,-3,5,9,0,9,-3,5,7,9,7,5,9,-3],"shift_direction":-1,"question_num":51,"has_decoy":false},{"rt":10548.100000023842,"stimulus":"[A] option 1, [L] option 2, [G] neither","key_press":65,"name":"choice","trial_type":"html-keyboard-response","trial_index":76,"time_elapsed":276518,"internal_node_id":"0.0-76.0","subject":"S1C1629","sona":"41550","block":6,"time":"2021-09-22T01:39:22.336Z","response":"1st","certainty":"high","char":"A","transposition":-1,"order":["swapped","shifted"],"probe_pitches":[2,4,-3,2,9,2,-3,7,0,-3,4,0,9,-3,2,9],"shifted_pitches":[2,4,-3,2,9,2,-3,6,0,-3,4,0,9,-3,2,9],"swapped_pitches":[2,4,-3,2,9,2,-3,0,7,-3,4,0,9,-3,2,9],"shift_direction":-1,"question_num":61,"has_decoy":false},{"rt":4956,"stimulus":"[A] option 1, [L] option 2, [G] neither","key_press":71,"name":"choice","trial_type":"html-keyboard-response","trial_index":87,"time_elapsed":305123,"internal_node_id":"0.0-87.0","subject":"S1C1629","sona":"41550","block":6,"time":"2021-09-22T01:39:22.336Z","response":"neither","certainty":"high","char":"G","transposition":-1,"order":["swapped","shifted"],"probe_pitches":[10,7,1,2,10,2,-1,7,3,9,3,6,3,9,5,9],"shifted_pitches":[10,7,1,2,10,2,-1,8,3,9,3,6,3,9,5,9],"swapped_pitches":[10,7,1,2,10,2,-1,3,7,9,3,6,3,9,5,9],"shift_direction":1,"question_num":71,"has_decoy":false},{"rt":6255,"stimulus":"[A] option 1, [L] option 2, [G] neither","key_press":76,"name":"choice","trial_type":"html-keyboard-response","trial_index":98,"time_elapsed":334171,"internal_node_id":"0.0-98.0","subject":"S1C1629","sona":"41550","block":6,"time":"2021-09-22T01:39:22.336Z","response":"2nd","certainty":"high","char":"L","transposition":-3,"order":["swapped","shifted"],"probe_pitches":[1,3,-2,5,1,2,-2,8,5,10,6,2,0,8,6,2],"shifted_pitches":[1,3,-2,5,1,2,-2,8,4,10,6,2,0,8,6,2],"swapped_pitches":[1,3,-2,5,1,2,-2,5,8,10,6,2,0,8,6,2],"shift_direction":-1,"question_num":81,"has_decoy":false},{"rt":103244.89999997616,"stimulus":"[A] option 1, [L] option 2, [G] neither","key_press":76,"name":"choice","trial_type":"html-keyboard-response","trial_index":109,"time_elapsed":459438,"internal_node_id":"0.0-109.0","subject":"S1C1629","sona":"41550","block":6,"time":"2021-09-22T01:39:22.336Z","response":"2nd","certainty":"high","char":"L","transposition":0,"order":["swapped","shifted"],"probe_pitches":[9,6,4,8,1,4,5,1,2,7,-1,8,1,5,10,-2],"shifted_pitches":[9,6,4,8,1,4,5,0,2,7,-1,8,1,5,10,-2],"swapped_pitches":[9,6,4,8,1,4,5,2,1,7,-1,8,1,5,10,-2],"shift_direction":-1,"question_num":91,"has_decoy":false},{"rt":118571.30000007153,"stimulus":"[A] option 1, [L] option 2, [G] neither","key_press":76,"name":"choice","trial_type":"html-keyboard-response","trial_index":120,"time_elapsed":621724,"internal_node_id":"0.0-120.0","subject":"S1C1629","sona":"41550","block":6,"time":"2021-09-22T01:39:22.336Z","response":"2nd","certainty":"high","char":"L","transposition":-2,"order":["shifted","swapped"],"probe_pitches":[2,4,6,2,-1,9,2,9,-1,6,-1,-3,6,-3,6,2],"shifted_pitches":[2,4,6,2,-1,9,2,9,-2,6,-1,-3,6,-3,6,2],"swapped_pitches":[2,4,6,2,-1,9,2,-1,9,6,-1,-3,6,-3,6,2],"shift_direction":-1,"question_num":101,"has_decoy":false},{"rt":117110.59999990463,"stimulus":"[A] option 1, [L] option 2, [G] neither","key_press":65,"name":"choice","trial_type":"html-keyboard-response","trial_index":131,"time_elapsed":776517,"internal_node_id":"0.0-131.0","subject":"S1C1629","sona":"41550","block":6,"time":"2021-09-22T01:39:22.336Z","response":"1st","certainty":"high","char":"A","transposition":2,"order":["shifted","swapped"],"probe_pitches":[5,4,9,3,7,-2,2,8,0,9,-2,3,0,9,5,0],"shifted_pitches":[5,4,9,3,7,-2,2,8,1,9,-2,3,0,9,5,0],"swapped_pitches":[5,4,9,3,7,-2,2,0,8,9,-2,3,0,9,5,0],"shift_direction":1,"question_num":111,"has_decoy":false},{"rt":31752.199999928474,"stimulus":"[A] option 1, [L] option 2, [G] neither","key_press":76,"name":"choice","trial_type":"html-keyboard-response","trial_index":142,"time_elapsed":830682,"internal_node_id":"0.0-142.0","subject":"S1C1629","sona":"41550","block":6,"time":"2021-09-22T01:39:22.336Z","response":"2nd","certainty":"high","char":"L","transposition":1,"order":["shifted","swapped"],"probe_pitches":[-2,2,6,9,5,2,8,0,6,1,4,10,9,4,8,1],"shifted_pitches":[-2,2,6,9,5,2,8,0,7,1,4,10,9,4,8,1],"swapped_pitches":[-2,2,6,9,5,2,8,6,0,1,4,10,9,4,8,1],"shift_direction":1,"question_num":121,"has_decoy":false},{"rt":13162.5,"stimulus":"[A] option 1, [L] option 2, [G] neither","key_press":71,"name":"choice","trial_type":"html-keyboard-response","trial_index":153,"time_elapsed":867151,"internal_node_id":"0.0-153.0","subject":"S1C1629","sona":"41550","block":6,"time":"2021-09-22T01:39:22.336Z","response":"neither","certainty":"high","char":"G","transposition":2,"order":["shifted","swapped"],"probe_pitches":[6,4,-1,-3,4,-1,4,-1,6,4,2,-1,-3,6,9,-3],"shifted_pitches":[6,4,-1,-3,4,-1,4,-2,6,4,2,-1,-3,6,9,-3],"swapped_pitches":[6,4,-1,-3,4,-1,4,6,-1,4,2,-1,-3,6,9,-3],"shift_direction":-1,"question_num":131,"has_decoy":false},{"rt":61364.59999990463,"stimulus":"[A] option 1, [L] option 2, [G] neither","key_press":71,"name":"choice","trial_type":"html-keyboard-response","trial_index":164,"time_elapsed":951070,"internal_node_id":"0.0-164.0","subject":"S1C1629","sona":"41550","block":6,"time":"2021-09-22T01:39:22.336Z","response":"neither","certainty":"high","char":"G","transposition":3,"order":["swapped","shifted"],"probe_pitches":[2,0,7,0,-3,0,4,-3,9,0,-3,4,9,4,-3,0],"shifted_pitches":[2,0,7,0,-3,0,4,-3,10,0,-3,4,9,4,-3,0],"swapped_pitches":[2,0,7,0,-3,0,4,9,-3,0,-3,4,9,4,-3,0],"shift_direction":1,"question_num":141,"has_decoy":false},{"rt":59643.39999997616,"stimulus":"[A] option 1, [L] option 2, [G] neither","key_press":71,"name":"choice","trial_type":"html-keyboard-response","trial_index":175,"time_elapsed":1036239,"internal_node_id":"0.0-175.0","subject":"S1C1629","sona":"41550","block":6,"time":"2021-09-22T01:39:22.336Z","response":"neither","certainty":"high","char":"G","transposition":0,"order":["shifted","swapped"],"probe_pitches":[-3,-1,6,-1,4,-3,4,-3,-1,6,1,-3,-1,1,-1,-3],"shifted_pitches":[-3,-1,6,-1,4,-3,4,-3,0,6,1,-3,-1,1,-1,-3],"swapped_pitches":[-3,-1,6,-1,4,-3,4,-1,-3,6,1,-3,-1,1,-1,-3],"shift_direction":1,"question_num":151,"has_decoy":false},{"rt":4859.899999976158,"stimulus":"[A] option 1, [L] option 2, [G] neither","key_press":71,"name":"choice","trial_type":"html-keyboard-response","trial_index":186,"time_elapsed":1063211,"internal_node_id":"0.0-186.0","subject":"S1C1629","sona":"41550","block":6,"time":"2021-09-22T01:39:22.336Z","response":"neither","certainty":"high","char":"G","transposition":-1,"order":["swapped","shifted"],"probe_pitches":[-1,5,-1,1,-1,6,8,1,10,-1,5,1,10,5,3,9],"shifted_pitches":[-1,5,-1,1,-1,6,8,2,10,-1,5,1,10,5,3,9],"swapped_pitches":[-1,5,-1,1,-1,6,8,10,1,-1,5,1,10,5,3,9],"shift_direction":1,"question_num":161,"has_decoy":false},{"rt":2885.399999976158,"stimulus":"[A] option 1, [L] option 2, [G] neither","key_press":65,"name":"choice","trial_type":"html-keyboard-response","trial_index":197,"time_elapsed":1088911,"internal_node_id":"0.0-197.0","subject":"S1C1629","sona":"41550","block":6,"time":"2021-09-22T01:39:22.336Z","response":"1st","certainty":"high","char":"A","transposition":3,"order":["shifted","swapped"],"probe_pitches":[-1,5,-1,1,4,7,0,4,10,9,10,5,10,7,9,6],"shifted_pitches":[-1,5,-1,1,4,7,0,3,10,9,10,5,10,7,9,6],"swapped_pitches":[-1,5,-1,1,4,7,0,10,4,9,10,5,10,7,9,6],"shift_direction":-1,"question_num":171,"has_decoy":false},{"rt":23320.899999976158,"stimulus":"[A] option 1, [L] option 2, [G] neither","key_press":71,"name":"choice","trial_type":"html-keyboard-response","trial_index":208,"time_elapsed":1135006,"internal_node_id":"0.0-208.0","subject":"S1C1629","sona":"41550","block":6,"time":"2021-09-22T01:39:22.336Z","response":"neither","certainty":"high","char":"G","transposition":-2,"order":["swapped","shifted"],"probe_pitches":[9,4,6,10,7,0,2,1,4,7,9,0,1,4,0,1],"shifted_pitches":[9,4,6,10,7,0,2,1,5,7,9,0,1,4,0,1],"swapped_pitches":[9,4,6,10,7,0,2,4,1,7,9,0,1,4,0,1],"shift_direction":1,"question_num":181,"has_decoy":false},{"rt":25430.100000023842,"stimulus":"[A] option 1, [L] option 2, [G] neither","key_press":71,"name":"choice","trial_type":"html-keyboard-response","trial_index":219,"time_elapsed":1182447,"internal_node_id":"0.0-219.0","subject":"S1C1629","sona":"41550","block":6,"time":"2021-09-22T01:39:22.336Z","response":"neither","certainty":"high","char":"G","transposition":-3,"order":["shifted","swapped"],"probe_pitches":[1,-1,-2,5,-1,8,0,4,7,-2,9,2,0,1,5,9],"shifted_pitches":[1,-1,-2,5,-1,8,0,4,6,-2,9,2,0,1,5,9],"swapped_pitches":[1,-1,-2,5,-1,8,0,7,4,-2,9,2,0,1,5,9],"shift_direction":-1,"question_num":191,"has_decoy":false}]