[{"rt":12863.5,"stimulus":"[A] option 1, [L] option 2, [G] neither","key_press":76,"name":"choice","trial_type":"html-keyboard-response","trial_index":15,"time_elapsed":356586859,"internal_node_id":"0.0-15.0","response":"2nd","certainty":"high","char":"L","transposition":2,"order":["swapped","shifted"],"probe_pitches":[10,5,6,1,4,0,9,4,3,-1,5,1,8,11,10,4],"shifted_pitches":[10,5,6,1,4,0,9,4,2,-1,5,1,8,11,10,4],"swapped_pitches":[10,5,6,1,4,0,9,3,4,-1,5,1,8,11,10,4],"shift_direction":-1,"question_num":1,"has_decoy":false,"subject":"S1C1629","sona":"41550","block":1,"time":"2021-09-22T00:08:30.853Z"},{"rt":18584.399999976158,"stimulus":"[A] option 1, [L] option 2, [G] neither","key_press":71,"name":"choice","trial_type":"html-keyboard-response","trial_index":26,"time_elapsed":356630061,"internal_node_id":"0.0-26.0","response":"neither","certainty":"high","char":"G","transposition":3,"order":["shifted","swapped"],"probe_pitches":[9,5,7,5,7,5,0,7,2,5,7,-3,7,2,-3,5],"shifted_pitches":[9,5,7,5,7,5,0,6,2,5,7,-3,7,2,-3,5],"swapped_pitches":[9,5,7,5,7,5,0,2,7,5,7,-3,7,2,-3,5],"shift_direction":-1,"question_num":11,"has_decoy":false,"subject":"S1C1629","sona":"41550","block":1,"time":"2021-09-22T00:08:30.853Z"},{"rt":1010.7999999523163,"stimulus":"[A] option 1, [L] option 2, [G] neither","key_press":76,"name":"choice","trial_type":"html-keyboard-response","trial_index":37,"time_elapsed":356654476,"internal_node_id":"0.0-37.0","response":"2nd","certainty":"high","char":"L","transposition":-1,"order":["shifted","swapped"],"probe_pitches":[4,6,1,-1,-3,4,1,6,-1,4,1,4,-3,9,6,4],"shifted_pitches":[4,6,1,-1,-3,4,1,6,0,4,1,4,-3,9,6,4],"swapped_pitches":[4,6,1,-1,-3,4,1,-1,6,4,1,4,-3,9,6,4],"shift_direction":1,"question_num":21,"has_decoy":false,"subject":"S1C1629","sona":"41550","block":1,"time":"2021-09-22T00:08:30.853Z"},{"rt":19991.900000095367,"stimulus":"[A] option 1, [L] option 2, [G] neither","key_press":76,"name":"choice","trial_type":"html-keyboard-response","trial_index":48,"time_elapsed":356698220,"internal_node_id":"0.0-48.0","response":"2nd","certainty":"high","char":"L","transposition":-1,"order":["shifted","swapped"],"probe_pitches":[8,10,8,3,1,7,8,4,3,10,11,0,7,9,7,10],"shifted_pitches":[8,10,8,3,1,7,8,5,3,10,11,0,7,9,7,10],"swapped_pitches":[8,10,8,3,1,7,8,3,4,10,11,0,7,9,7,10],"shift_direction":1,"question_num":31,"has_decoy":false,"subject":"S1C1629","sona":"41550","block":1,"time":"2021-09-22T00:08:30.853Z"},{"rt":1157.3000000715256,"stimulus":"[A] option 1, [L] option 2, [G] neither","key_press":76,"name":"choice","trial_type":"html-keyboard-response","trial_index":59,"time_elapsed":356724408,"internal_node_id":"0.0-59.0","response":"2nd","certainty":"high","char":"L","transposition":2,"order":["swapped","shifted"],"probe_pitches":[7,9,7,0,4,0,4,2,-3,7,-3,0,7,0,7,2],"shifted_pitches":[7,9,7,0,4,0,4,2,-2,7,-3,0,7,0,7,2],"swapped_pitches":[7,9,7,0,4,0,4,-3,2,7,-3,0,7,0,7,2],"shift_direction":1,"question_num":41,"has_decoy":false,"subject":"S1C1629","sona":"41550","block":1,"time":"2021-09-22T00:08:30.853Z"},{"rt":1429.8999999761581,"stimulus":"[A] option 1, [L] option 2, [G] neither","key_press":65,"name":"choice","trial_type":"html-keyboard-response","trial_index":70,"time_elapsed":356748726,"internal_node_id":"0.0-70.0","response":"1st","certainty":"high","char":"A","transposition":-3,"order":["shifted","swapped"],"probe_pitches":[7,5,0,5,-3,5,-3,2,7,-3,9,0,5,7,9,0],"shifted_pitches":[7,5,0,5,-3,5,-3,2,8,-3,9,0,5,7,9,0],"swapped_pitches":[7,5,0,5,-3,5,-3,7,2,-3,9,0,5,7,9,0],"shift_direction":1,"question_num":51,"has_decoy":false,"subject":"S1C1629","sona":"41550","block":1,"time":"2021-09-22T00:08:30.853Z"},{"rt":692.3999999761581,"stimulus":"[A] option 1, [L] option 2, [G] neither","key_press":65,"name":"choice","trial_type":"html-keyboard-response","trial_index":81,"time_elapsed":356771842,"internal_node_id":"0.0-81.0","response":"1st","certainty":"high","char":"A","transposition":1,"order":["swapped","shifted"],"probe_pitches":[7,2,4,2,-1,7,4,9,-3,-1,-3,7,-3,2,7,2],"shifted_pitches":[7,2,4,2,-1,7,4,9,-2,-1,-3,7,-3,2,7,2],"swapped_pitches":[7,2,4,2,-1,7,4,-3,9,-1,-3,7,-3,2,7,2],"shift_direction":1,"question_num":61,"has_decoy":false,"subject":"S1C1629","sona":"41550","block":1,"time":"2021-09-22T00:08:30.853Z"},{"rt":960.6999999284744,"stimulus":"[A] option 1, [L] option 2, [G] neither","key_press":71,"name":"choice","trial_type":"html-keyboard-response","trial_index":92,"time_elapsed":356795401,"internal_node_id":"0.0-92.0","response":"neither","certainty":"high","char":"G","transposition":0,"order":["swapped","shifted"],"probe_pitches":[2,-3,-1,6,-3,-1,9,-1,6,9,2,4,6,-3,2,-3],"shifted_pitches":[2,-3,-1,6,-3,-1,9,-1,7,9,2,4,6,-3,2,-3],"swapped_pitches":[2,-3,-1,6,-3,-1,9,6,-1,9,2,4,6,-3,2,-3],"shift_direction":1,"question_num":71,"has_decoy":false,"subject":"S1C1629","sona":"41550","block":1,"time":"2021-09-22T00:08:30.853Z"},{"rt":1812.5,"stimulus":"[A] option 1, [L] option 2, [G] neither","key_press":71,"name":"choice","trial_type":"html-keyboard-response","trial_index":103,"time_elapsed":356819970,"internal_node_id":"0.0-103.0","response":"neither","certainty":"high","char":"G","transposition":-2,"order":["shifted","swapped"],"probe_pitches":[-1,4,1,6,4,1,4,1,9,-1,9,6,1,9,-3,6],"shifted_pitches":[-1,4,1,6,4,1,4,0,9,-1,9,6,1,9,-3,6],"swapped_pitches":[-1,4,1,6,4,1,4,9,1,-1,9,6,1,9,-3,6],"shift_direction":-1,"question_num":81,"has_decoy":false,"subject":"S1C1629","sona":"41550","block":1,"time":"2021-09-22T00:08:30.853Z"},{"rt":4307.800000071526,"stimulus":"[A] option 1, [L] option 2, [G] neither","key_press":71,"name":"choice","trial_type":"html-keyboard-response","trial_index":114,"time_elapsed":356847714,"internal_node_id":"0.0-114.0","response":"neither","certainty":"high","char":"G","transposition":-3,"order":["swapped","shifted"],"probe_pitches":[6,4,-3,-1,6,-1,-3,6,9,4,-1,2,-3,6,-3,-1],"shifted_pitches":[6,4,-3,-1,6,-1,-3,5,9,4,-1,2,-3,6,-3,-1],"swapped_pitches":[6,4,-3,-1,6,-1,-3,9,6,4,-1,2,-3,6,-3,-1],"shift_direction":-1,"question_num":91,"has_decoy":false,"subject":"S1C1629","sona":"41550","block":1,"time":"2021-09-22T00:08:30.853Z"},{"rt":943.3000000715256,"stimulus":"[A] option 1, [L] option 2, [G] neither","key_press":71,"name":"choice","trial_type":"html-keyboard-response","trial_index":125,"time_elapsed":356872215,"internal_node_id":"0.0-125.0","response":"neither","certainty":"high","char":"G","transposition":-3,"order":["shifted","swapped"],"probe_pitches":[3,5,8,6,3,7,10,2,5,3,8,4,2,8,6,4],"shifted_pitches":[3,5,8,6,3,7,10,1,5,3,8,4,2,8,6,4],"swapped_pitches":[3,5,8,6,3,7,10,5,2,3,8,4,2,8,6,4],"shift_direction":-1,"question_num":101,"has_decoy":false,"subject":"S1C1629","sona":"41550","block":1,"time":"2021-09-22T00:08:30.853Z"},{"rt":1306.1000000238419,"stimulus":"[A] option 1, [L] option 2, [G] neither","key_press":76,"name":"choice","trial_type":"html-keyboard-response","trial_index":136,"time_elapsed":356895997,"internal_node_id":"0.0-136.0","response":"2nd","certainty":"high","char":"L","transposition":-1,"order":["shifted","swapped"],"probe_pitches":[3,-1,3,4,10,3,1,8,7,3,2,-1,1,7,3,10],"shifted_pitches":[3,-1,3,4,10,3,1,9,7,3,2,-1,1,7,3,10],"swapped_pitches":[3,-1,3,4,10,3,1,7,8,3,2,-1,1,7,3,10],"shift_direction":1,"question_num":111,"has_decoy":false,"subject":"S1C1629","sona":"41550","block":1,"time":"2021-09-22T00:08:30.853Z"},{"rt":1055.6000000238419,"stimulus":"[A] option 1, [L] option 2, [G] neither","key_press":65,"name":"choice","trial_type":"html-keyboard-response","trial_index":147,"time_elapsed":356919223,"internal_node_id":"0.0-147.0","response":"1st","certainty":"high","char":"A","transposition":-1,"order":["swapped","shifted"],"probe_pitches":[2,7,9,4,2,4,0,2,9,4,9,-3,0,-3,2,9],"shifted_pitches":[2,7,9,4,2,4,0,1,9,4,9,-3,0,-3,2,9],"swapped_pitches":[2,7,9,4,2,4,0,9,2,4,9,-3,0,-3,2,9],"shift_direction":-1,"question_num":121,"has_decoy":false,"subject":"S1C1629","sona":"41550","block":1,"time":"2021-09-22T00:08:30.853Z"},{"rt":2175.600000023842,"stimulus":"[A] option 1, [L] option 2, [G] neither","key_press":65,"name":"choice","trial_type":"html-keyboard-response","trial_index":158,"time_elapsed":356944413,"internal_node_id":"0.0-158.0","response":"1st","certainty":"high","char":"A","transposition":-2,"order":["shifted","swapped"],"probe_pitches":[7,4,-3,-1,-3,2,7,4,9,2,9,7,2,-3,2,9],"shifted_pitches":[7,4,-3,-1,-3,2,7,3,9,2,9,7,2,-3,2,9],"swapped_pitches":[7,4,-3,-1,-3,2,7,9,4,2,9,7,2,-3,2,9],"shift_direction":-1,"question_num":131,"has_decoy":false,"subject":"S1C1629","sona":"41550","block":1,"time":"2021-09-22T00:08:30.853Z"},{"rt":801.2000000476837,"stimulus":"[A] option 1, [L] option 2, [G] neither","key_press":65,"name":"choice","trial_type":"html-keyboard-response","trial_index":169,"time_elapsed":356967241,"internal_node_id":"0.0-169.0","response":"1st","certainty":"high","char":"A","transposition":0,"order":["swapped","shifted"],"probe_pitches":[0,3,-1,5,0,7,-1,5,10,6,11,5,-1,10,9,1],"shifted_pitches":[0,3,-1,5,0,7,-1,4,10,6,11,5,-1,10,9,1],"swapped_pitches":[0,3,-1,5,0,7,-1,10,5,6,11,5,-1,10,9,1],"shift_direction":-1,"question_num":141,"has_decoy":false,"subject":"S1C1629","sona":"41550","block":1,"time":"2021-09-22T00:08:30.853Z"},{"rt":3519.7000000476837,"stimulus":"[A] option 1, [L] option 2, [G] neither","key_press":65,"name":"choice","trial_type":"html-keyboard-response","trial_index":180,"time_elapsed":356993938,"internal_node_id":"0.0-180.0","response":"1st","certainty":"high","char":"A","transposition":3,"order":["shifted","swapped"],"probe_pitches":[5,6,9,5,6,0,3,4,6,11,0,3,5,10,2,1],"shifted_pitches":[5,6,9,5,6,0,3,4,7,11,0,3,5,10,2,1],"swapped_pitches":[5,6,9,5,6,0,3,6,4,11,0,3,5,10,2,1],"shift_direction":1,"question_num":151,"has_decoy":false,"subject":"S1C1629","sona":"41550","block":1,"time":"2021-09-22T00:08:30.853Z"},{"rt":1090.1999999284744,"stimulus":"[A] option 1, [L] option 2, [G] neither","key_press":76,"name":"choice","trial_type":"html-keyboard-response","trial_index":191,"time_elapsed":357017172,"internal_node_id":"0.0-191.0","response":"2nd","certainty":"high","char":"L","transposition":-3,"order":["swapped","shifted"],"probe_pitches":[2,6,-1,4,0,9,1,0,11,6,5,4,5,-1,7,2],"shifted_pitches":[2,6,-1,4,0,9,1,0,10,6,5,4,5,-1,7,2],"swapped_pitches":[2,6,-1,4,0,9,1,11,0,6,5,4,5,-1,7,2],"shift_direction":-1,"question_num":161,"has_decoy":false,"subject":"S1C1629","sona":"41550","block":1,"time":"2021-09-22T00:08:30.853Z"},{"rt":598,"stimulus":"[A] option 1, [L] option 2, [G] neither","key_press":76,"name":"choice","trial_type":"html-keyboard-response","trial_index":202,"time_elapsed":357040483,"internal_node_id":"0.0-202.0","response":"2nd","certainty":"high","char":"L","transposition":-2,"order":["swapped","shifted"],"probe_pitches":[0,-1,6,3,-1,2,4,1,7,6,1,7,9,11,2,-1],"shifted_pitches":[0,-1,6,3,-1,2,4,1,8,6,1,7,9,11,2,-1],"swapped_pitches":[0,-1,6,3,-1,2,4,7,1,6,1,7,9,11,2,-1],"shift_direction":1,"question_num":171,"has_decoy":false,"subject":"S1C1629","sona":"41550","block":1,"time":"2021-09-22T00:08:30.853Z"},{"rt":671.3000000715256,"stimulus":"[A] option 1, [L] option 2, [G] neither","key_press":65,"name":"choice","trial_type":"html-keyboard-response","trial_index":213,"time_elapsed":357063564,"internal_node_id":"0.0-213.0","response":"1st","certainty":"high","char":"A","transposition":1,"order":["swapped","shifted"],"probe_pitches":[6,7,1,2,0,4,2,4,7,0,7,9,8,1,11,-1],"shifted_pitches":[6,7,1,2,0,4,2,3,7,0,7,9,8,1,11,-1],"swapped_pitches":[6,7,1,2,0,4,2,7,4,0,7,9,8,1,11,-1],"shift_direction":-1,"question_num":181,"has_decoy":false,"subject":"S1C1629","sona":"41550","block":1,"time":"2021-09-22T00:08:30.853Z"},{"rt":5575.900000095367,"stimulus":"[A] option 1, [L] option 2, [G] neither","key_press":65,"name":"choice","trial_type":"html-keyboard-response","trial_index":224,"time_elapsed":357092121,"internal_node_id":"0.0-224.0","response":"1st","certainty":"high","char":"A","transposition":-2,"order":["shifted","swapped"],"probe_pitches":[-1,1,2,0,7,8,2,10,5,9,10,1,7,0,-1,1],"shifted_pitches":[-1,1,2,0,7,8,2,10,6,9,10,1,7,0,-1,1],"swapped_pitches":[-1,1,2,0,7,8,2,5,10,9,10,1,7,0,-1,1],"shift_direction":1,"question_num":191,"has_decoy":false,"subject":"S1C1629","sona":"41550","block":1,"time":"2021-09-22T00:08:30.853Z"}]