[{"rt":1324.9000000357628,"stimulus":"[A] option 1, [L] option 2, [G] neither","key_press":65,"name":"choice","trial_type":"html-keyboard-response","trial_index":10,"time_elapsed":23504,"internal_node_id":"0.0-10.0","subject":"S1C1208","sona":"41404","block":6,"time":"2021-09-07T04:33:31.418Z","response":"1st","certainty":"high","char":"A","transposition":-1,"order":["shifted","swapped"],"probe_pitches":[4,9,11,9,11,4,9,2,4,14,7,11],"shifted_pitches":[4,9,11,9,11,3,9,2,4,14,7,11],"swapped_pitches":[4,9,11,9,11,9,4,2,4,14,7,11],"shift_direction":-1,"question_num":1,"has_decoy":false},{"rt":1526.199999988079,"stimulus":"[A] option 1, [L] option 2, [G] neither","key_press":65,"name":"choice","trial_type":"html-keyboard-response","trial_index":21,"time_elapsed":52472,"internal_node_id":"0.0-21.0","subject":"S1C1208","sona":"41404","block":6,"time":"2021-09-07T04:33:31.418Z","response":"1st","certainty":"high","char":"A","transposition":-2,"order":["shifted","swapped"],"probe_pitches":[7,9,2,7,2,7,5,14,9,12,9,7],"shifted_pitches":[7,9,2,7,2,7,4,14,9,12,9,7],"swapped_pitches":[7,9,2,7,2,5,7,14,9,12,9,7],"shift_direction":-1,"question_num":11,"has_decoy":false},{"rt":6886.400000035763,"stimulus":"[A] option 1, [L] option 2, [G] neither","key_press":71,"name":"choice","trial_type":"html-keyboard-response","trial_index":32,"time_elapsed":79539,"internal_node_id":"0.0-32.0","subject":"S1C1208","sona":"41404","block":6,"time":"2021-09-07T04:33:31.418Z","response":"neither","certainty":"high","char":"G","transposition":-3,"order":["shifted","swapped"],"probe_pitches":[14,11,9,11,7,9,11,4,7,4,9,4],"shifted_pitches":[14,11,9,11,7,10,11,4,7,4,9,4],"swapped_pitches":[14,11,9,11,7,11,9,4,7,4,9,4],"shift_direction":1,"question_num":21,"has_decoy":false},{"rt":2391.399999976158,"stimulus":"[A] option 1, [L] option 2, [G] neither","key_press":65,"name":"choice","trial_type":"html-keyboard-response","trial_index":43,"time_elapsed":101997,"internal_node_id":"0.0-43.0","subject":"S1C1208","sona":"41404","block":6,"time":"2021-09-07T04:33:31.418Z","response":"1st","certainty":"high","char":"A","transposition":-3,"order":["shifted","swapped"],"probe_pitches":[7,11,4,8,-1,0,8,7,6,2,7,5],"shifted_pitches":[7,11,4,8,-1,0,9,7,6,2,7,5],"swapped_pitches":[7,11,4,8,-1,8,0,7,6,2,7,5],"shift_direction":1,"question_num":31,"has_decoy":false},{"rt":682,"stimulus":"[A] option 1, [L] option 2, [G] neither","key_press":76,"name":"choice","trial_type":"html-keyboard-response","trial_index":54,"time_elapsed":124978,"internal_node_id":"0.0-54.0","subject":"S1C1208","sona":"41404","block":6,"time":"2021-09-07T04:33:31.418Z","response":"2nd","certainty":"high","char":"L","transposition":-1,"order":["swapped","shifted"],"probe_pitches":[6,7,1,0,4,0,11,3,11,1,9,2],"shifted_pitches":[6,7,1,0,4,0,10,3,11,1,9,2],"swapped_pitches":[6,7,1,0,4,11,0,3,11,1,9,2],"shift_direction":-1,"question_num":41,"has_decoy":false},{"rt":6319.699999988079,"stimulus":"[A] option 1, [L] option 2, [G] neither","key_press":65,"name":"choice","trial_type":"html-keyboard-response","trial_index":65,"time_elapsed":157831,"internal_node_id":"0.0-65.0","subject":"S1C1208","sona":"41404","block":6,"time":"2021-09-07T04:33:31.418Z","response":"1st","certainty":"high","char":"A","transposition":1,"order":["shifted","swapped"],"probe_pitches":[6,4,9,2,4,2,11,9,2,14,6,14],"shifted_pitches":[6,4,9,2,4,1,11,9,2,14,6,14],"swapped_pitches":[6,4,9,2,4,11,2,9,2,14,6,14],"shift_direction":-1,"question_num":51,"has_decoy":false},{"rt":4227.300000011921,"stimulus":"[A] option 1, [L] option 2, [G] neither","key_press":65,"name":"choice","trial_type":"html-keyboard-response","trial_index":76,"time_elapsed":186467,"internal_node_id":"0.0-76.0","subject":"S1C1208","sona":"41404","block":6,"time":"2021-09-07T04:33:31.418Z","response":"1st","certainty":"high","char":"A","transposition":-1,"order":["shifted","swapped"],"probe_pitches":[8,9,6,1,9,11,8,10,4,10,3,6],"shifted_pitches":[8,9,6,1,9,11,7,10,4,10,3,6],"swapped_pitches":[8,9,6,1,9,8,11,10,4,10,3,6],"shift_direction":-1,"question_num":61,"has_decoy":false},{"rt":1775.4000000357628,"stimulus":"[A] option 1, [L] option 2, [G] neither","key_press":76,"name":"choice","trial_type":"html-keyboard-response","trial_index":87,"time_elapsed":209139,"internal_node_id":"0.0-87.0","subject":"S1C1208","sona":"41404","block":6,"time":"2021-09-07T04:33:31.418Z","response":"2nd","certainty":"high","char":"L","transposition":-2,"order":["swapped","shifted"],"probe_pitches":[7,12,5,12,9,12,7,2,12,2,14,9],"shifted_pitches":[7,12,5,12,9,12,8,2,12,2,14,9],"swapped_pitches":[7,12,5,12,9,7,12,2,12,2,14,9],"shift_direction":1,"question_num":71,"has_decoy":false},{"rt":2081.5,"stimulus":"[A] option 1, [L] option 2, [G] neither","key_press":65,"name":"choice","trial_type":"html-keyboard-response","trial_index":98,"time_elapsed":230682,"internal_node_id":"0.0-98.0","subject":"S1C1208","sona":"41404","block":6,"time":"2021-09-07T04:33:31.418Z","response":"1st","certainty":"high","char":"A","transposition":-1,"order":["swapped","shifted"],"probe_pitches":[14,12,14,10,7,12,14,7,12,2,5,7],"shifted_pitches":[14,12,14,10,7,12,13,7,12,2,5,7],"swapped_pitches":[14,12,14,10,7,14,12,7,12,2,5,7],"shift_direction":-1,"question_num":81,"has_decoy":false},{"rt":20305.399999976158,"stimulus":"[A] option 1, [L] option 2, [G] neither","key_press":76,"name":"choice","trial_type":"html-keyboard-response","trial_index":109,"time_elapsed":271498,"internal_node_id":"0.0-109.0","subject":"S1C1208","sona":"41404","block":6,"time":"2021-09-07T04:33:31.418Z","response":"2nd","certainty":"high","char":"L","transposition":3,"order":["swapped","shifted"],"probe_pitches":[4,2,6,11,6,2,4,11,6,9,6,9],"shifted_pitches":[4,2,6,11,6,3,4,11,6,9,6,9],"swapped_pitches":[4,2,6,11,6,4,2,11,6,9,6,9],"shift_direction":1,"question_num":91,"has_decoy":false},{"rt":1359.3999999761581,"stimulus":"[A] option 1, [L] option 2, [G] neither","key_press":76,"name":"choice","trial_type":"html-keyboard-response","trial_index":120,"time_elapsed":292669,"internal_node_id":"0.0-120.0","subject":"S1C1208","sona":"41404","block":6,"time":"2021-09-07T04:33:31.418Z","response":"2nd","certainty":"high","char":"L","transposition":-3,"order":["swapped","shifted"],"probe_pitches":[2,7,9,12,14,4,2,14,9,7,9,14],"shifted_pitches":[2,7,9,12,14,5,2,14,9,7,9,14],"swapped_pitches":[2,7,9,12,14,2,4,14,9,7,9,14],"shift_direction":1,"question_num":101,"has_decoy":false},{"rt":2885.100000023842,"stimulus":"[A] option 1, [L] option 2, [G] neither","key_press":65,"name":"choice","trial_type":"html-keyboard-response","trial_index":131,"time_elapsed":315079,"internal_node_id":"0.0-131.0","subject":"S1C1208","sona":"41404","block":6,"time":"2021-09-07T04:33:31.418Z","response":"1st","certainty":"high","char":"A","transposition":3,"order":["shifted","swapped"],"probe_pitches":[0,4,1,8,9,-1,2,11,10,2,8,2],"shifted_pitches":[0,4,1,8,9,-1,3,11,10,2,8,2],"swapped_pitches":[0,4,1,8,9,2,-1,11,10,2,8,2],"shift_direction":1,"question_num":111,"has_decoy":false},{"rt":6226.699999988079,"stimulus":"[A] option 1, [L] option 2, [G] neither","key_press":76,"name":"choice","trial_type":"html-keyboard-response","trial_index":142,"time_elapsed":343514,"internal_node_id":"0.0-142.0","subject":"S1C1208","sona":"41404","block":6,"time":"2021-09-07T04:33:31.418Z","response":"2nd","certainty":"high","char":"L","transposition":1,"order":["shifted","swapped"],"probe_pitches":[10,11,4,3,9,7,3,0,10,4,2,4],"shifted_pitches":[10,11,4,3,9,6,3,0,10,4,2,4],"swapped_pitches":[10,11,4,3,9,3,7,0,10,4,2,4],"shift_direction":-1,"question_num":121,"has_decoy":false},{"rt":1569,"stimulus":"[A] option 1, [L] option 2, [G] neither","key_press":65,"name":"choice","trial_type":"html-keyboard-response","trial_index":153,"time_elapsed":364302,"internal_node_id":"0.0-153.0","subject":"S1C1208","sona":"41404","block":6,"time":"2021-09-07T04:33:31.418Z","response":"1st","certainty":"high","char":"A","transposition":-2,"order":["swapped","shifted"],"probe_pitches":[3,9,2,9,3,0,8,6,3,7,8,2],"shifted_pitches":[3,9,2,9,3,1,8,6,3,7,8,2],"swapped_pitches":[3,9,2,9,3,8,0,6,3,7,8,2],"shift_direction":1,"question_num":131,"has_decoy":false},{"rt":3000.800000011921,"stimulus":"[A] option 1, [L] option 2, [G] neither","key_press":76,"name":"choice","trial_type":"html-keyboard-response","trial_index":164,"time_elapsed":390298,"internal_node_id":"0.0-164.0","subject":"S1C1208","sona":"41404","block":6,"time":"2021-09-07T04:33:31.418Z","response":"2nd","certainty":"high","char":"L","transposition":0,"order":["swapped","shifted"],"probe_pitches":[14,9,7,14,9,2,7,4,9,12,9,4],"shifted_pitches":[14,9,7,14,9,2,6,4,9,12,9,4],"swapped_pitches":[14,9,7,14,9,7,2,4,9,12,9,4],"shift_direction":-1,"question_num":141,"has_decoy":false},{"rt":5637.700000047684,"stimulus":"[A] option 1, [L] option 2, [G] neither","key_press":65,"name":"choice","trial_type":"html-keyboard-response","trial_index":175,"time_elapsed":415671,"internal_node_id":"0.0-175.0","subject":"S1C1208","sona":"41404","block":6,"time":"2021-09-07T04:33:31.418Z","response":"1st","certainty":"high","char":"A","transposition":0,"order":["swapped","shifted"],"probe_pitches":[1,2,6,10,6,9,7,-1,10,11,0,6],"shifted_pitches":[1,2,6,10,6,8,7,-1,10,11,0,6],"swapped_pitches":[1,2,6,10,6,7,9,-1,10,11,0,6],"shift_direction":-1,"question_num":151,"has_decoy":false},{"rt":1156.8999999761581,"stimulus":"[A] option 1, [L] option 2, [G] neither","key_press":76,"name":"choice","trial_type":"html-keyboard-response","trial_index":186,"time_elapsed":438288,"internal_node_id":"0.0-186.0","subject":"S1C1208","sona":"41404","block":6,"time":"2021-09-07T04:33:31.418Z","response":"2nd","certainty":"high","char":"L","transposition":-2,"order":["swapped","shifted"],"probe_pitches":[7,9,6,3,-1,1,7,-1,7,1,8,10],"shifted_pitches":[7,9,6,3,-1,2,7,-1,7,1,8,10],"swapped_pitches":[7,9,6,3,-1,7,1,-1,7,1,8,10],"shift_direction":1,"question_num":161,"has_decoy":false},{"rt":1179.5,"stimulus":"[A] option 1, [L] option 2, [G] neither","key_press":76,"name":"choice","trial_type":"html-keyboard-response","trial_index":197,"time_elapsed":459714,"internal_node_id":"0.0-197.0","subject":"S1C1208","sona":"41404","block":6,"time":"2021-09-07T04:33:31.418Z","response":"2nd","certainty":"high","char":"L","transposition":2,"order":["swapped","shifted"],"probe_pitches":[0,5,1,9,6,5,-1,7,2,-1,2,7],"shifted_pitches":[0,5,1,9,6,4,-1,7,2,-1,2,7],"swapped_pitches":[0,5,1,9,6,-1,5,7,2,-1,2,7],"shift_direction":-1,"question_num":171,"has_decoy":false},{"rt":3509.100000023842,"stimulus":"[A] option 1, [L] option 2, [G] neither","key_press":65,"name":"choice","trial_type":"html-keyboard-response","trial_index":208,"time_elapsed":488902,"internal_node_id":"0.0-208.0","subject":"S1C1208","sona":"41404","block":6,"time":"2021-09-07T04:33:31.418Z","response":"1st","certainty":"high","char":"A","transposition":-3,"order":["shifted","swapped"],"probe_pitches":[7,1,2,10,6,0,4,-1,6,0,4,9],"shifted_pitches":[7,1,2,10,6,0,5,-1,6,0,4,9],"swapped_pitches":[7,1,2,10,6,4,0,-1,6,0,4,9],"shift_direction":1,"question_num":181,"has_decoy":false},{"rt":2114.199999988079,"stimulus":"[A] option 1, [L] option 2, [G] neither","key_press":65,"name":"choice","trial_type":"html-keyboard-response","trial_index":219,"time_elapsed":513117,"internal_node_id":"0.0-219.0","subject":"S1C1208","sona":"41404","block":6,"time":"2021-09-07T04:33:31.418Z","response":"1st","certainty":"high","char":"A","transposition":2,"order":["shifted","swapped"],"probe_pitches":[7,10,12,10,14,5,12,10,7,12,10,7],"shifted_pitches":[7,10,12,10,14,5,13,10,7,12,10,7],"swapped_pitches":[7,10,12,10,14,12,5,10,7,12,10,7],"shift_direction":1,"question_num":191,"has_decoy":false}]