[{"rt":1937.1000000238419,"stimulus":"[A] option 1, [L] option 2, [G] neither","key_press":76,"name":"choice","trial_type":"html-keyboard-response","trial_index":10,"time_elapsed":25510,"internal_node_id":"0.0-10.0","subject":"S1C1208","sona":"41404","block":4,"time":"2021-09-07T04:16:14.470Z","response":"2nd","certainty":"high","char":"L","transposition":0,"order":["shifted","swapped"],"probe_pitches":[2,4,-1,2,4,6,2,-3,6,-3,9,2],"shifted_pitches":[2,4,-1,2,4,7,2,-3,6,-3,9,2],"swapped_pitches":[2,4,-1,2,4,2,6,-3,6,-3,9,2],"shift_direction":1,"question_num":1,"has_decoy":false},{"rt":495.10000002384186,"stimulus":"[A] option 1, [L] option 2, [G] neither","key_press":76,"name":"choice","trial_type":"html-keyboard-response","trial_index":21,"time_elapsed":45774,"internal_node_id":"0.0-21.0","subject":"S1C1208","sona":"41404","block":4,"time":"2021-09-07T04:16:14.470Z","response":"2nd","certainty":"high","char":"L","transposition":-3,"order":["swapped","shifted"],"probe_pitches":[0,5,4,7,1,5,11,9,6,7,11,1],"shifted_pitches":[0,5,4,7,1,5,10,9,6,7,11,1],"swapped_pitches":[0,5,4,7,1,11,5,9,6,7,11,1],"shift_direction":-1,"question_num":11,"has_decoy":false},{"rt":1734.3999999761581,"stimulus":"[A] option 1, [L] option 2, [G] neither","key_press":76,"name":"choice","trial_type":"html-keyboard-response","trial_index":32,"time_elapsed":66047,"internal_node_id":"0.0-32.0","subject":"S1C1208","sona":"41404","block":4,"time":"2021-09-07T04:16:14.470Z","response":"2nd","certainty":"high","char":"L","transposition":-3,"order":["shifted","swapped"],"probe_pitches":[6,9,4,2,6,-1,-3,9,2,4,-1,4],"shifted_pitches":[6,9,4,2,6,-2,-3,9,2,4,-1,4],"swapped_pitches":[6,9,4,2,6,-3,-1,9,2,4,-1,4],"shift_direction":-1,"question_num":21,"has_decoy":false},{"rt":2554.199999988079,"stimulus":"[A] option 1, [L] option 2, [G] neither","key_press":65,"name":"choice","trial_type":"html-keyboard-response","trial_index":43,"time_elapsed":87757,"internal_node_id":"0.0-43.0","subject":"S1C1208","sona":"41404","block":4,"time":"2021-09-07T04:16:14.470Z","response":"1st","certainty":"high","char":"A","transposition":-2,"order":["shifted","swapped"],"probe_pitches":[11,7,9,10,2,9,6,4,7,10,4,12],"shifted_pitches":[11,7,9,10,2,8,6,4,7,10,4,12],"swapped_pitches":[11,7,9,10,2,6,9,4,7,10,4,12],"shift_direction":-1,"question_num":31,"has_decoy":false},{"rt":548,"stimulus":"[A] option 1, [L] option 2, [G] neither","key_press":76,"name":"choice","trial_type":"html-keyboard-response","trial_index":54,"time_elapsed":107591,"internal_node_id":"0.0-54.0","subject":"S1C1208","sona":"41404","block":4,"time":"2021-09-07T04:16:14.470Z","response":"2nd","certainty":"high","char":"L","transposition":-1,"order":["shifted","swapped"],"probe_pitches":[11,9,6,8,2,5,9,11,0,5,8,12],"shifted_pitches":[11,9,6,8,2,4,9,11,0,5,8,12],"swapped_pitches":[11,9,6,8,2,9,5,11,0,5,8,12],"shift_direction":-1,"question_num":41,"has_decoy":false},{"rt":478.60000002384186,"stimulus":"[A] option 1, [L] option 2, [G] neither","key_press":76,"name":"choice","trial_type":"html-keyboard-response","trial_index":65,"time_elapsed":126855,"internal_node_id":"0.0-65.0","subject":"S1C1208","sona":"41404","block":4,"time":"2021-09-07T04:16:14.470Z","response":"2nd","certainty":"high","char":"L","transposition":0,"order":["swapped","shifted"],"probe_pitches":[4,1,2,4,0,1,10,0,2,5,1,10],"shifted_pitches":[4,1,2,4,0,1,11,0,2,5,1,10],"swapped_pitches":[4,1,2,4,0,10,1,0,2,5,1,10],"shift_direction":1,"question_num":51,"has_decoy":false},{"rt":602.6000000238419,"stimulus":"[A] option 1, [L] option 2, [G] neither","key_press":65,"name":"choice","trial_type":"html-keyboard-response","trial_index":76,"time_elapsed":146057,"internal_node_id":"0.0-76.0","subject":"S1C1208","sona":"41404","block":4,"time":"2021-09-07T04:16:14.470Z","response":"1st","certainty":"high","char":"A","transposition":-2,"order":["shifted","swapped"],"probe_pitches":[7,11,12,10,1,5,9,3,9,5,3,8],"shifted_pitches":[7,11,12,10,1,6,9,3,9,5,3,8],"swapped_pitches":[7,11,12,10,1,9,5,3,9,5,3,8],"shift_direction":1,"question_num":61,"has_decoy":false},{"rt":770.5999999642372,"stimulus":"[A] option 1, [L] option 2, [G] neither","key_press":76,"name":"choice","trial_type":"html-keyboard-response","trial_index":87,"time_elapsed":165729,"internal_node_id":"0.0-87.0","subject":"S1C1208","sona":"41404","block":4,"time":"2021-09-07T04:16:14.470Z","response":"2nd","certainty":"high","char":"L","transposition":2,"order":["swapped","shifted"],"probe_pitches":[4,7,12,10,1,3,6,0,9,12,11,1],"shifted_pitches":[4,7,12,10,1,2,6,0,9,12,11,1],"swapped_pitches":[4,7,12,10,1,6,3,0,9,12,11,1],"shift_direction":-1,"question_num":71,"has_decoy":false},{"rt":1608.8999999761581,"stimulus":"[A] option 1, [L] option 2, [G] neither","key_press":76,"name":"choice","trial_type":"html-keyboard-response","trial_index":98,"time_elapsed":186235,"internal_node_id":"0.0-98.0","subject":"S1C1208","sona":"41404","block":4,"time":"2021-09-07T04:16:14.470Z","response":"2nd","certainty":"high","char":"L","transposition":-1,"order":["shifted","swapped"],"probe_pitches":[7,2,0,7,0,7,-3,2,4,0,4,0],"shifted_pitches":[7,2,0,7,0,8,-3,2,4,0,4,0],"swapped_pitches":[7,2,0,7,0,-3,7,2,4,0,4,0],"shift_direction":1,"question_num":81,"has_decoy":false},{"rt":1145.300000011921,"stimulus":"[A] option 1, [L] option 2, [G] neither","key_press":65,"name":"choice","trial_type":"html-keyboard-response","trial_index":109,"time_elapsed":206353,"internal_node_id":"0.0-109.0","subject":"S1C1208","sona":"41404","block":4,"time":"2021-09-07T04:16:14.470Z","response":"1st","certainty":"high","char":"A","transposition":-2,"order":["swapped","shifted"],"probe_pitches":[7,9,2,4,9,-1,7,-3,-1,2,7,2],"shifted_pitches":[7,9,2,4,9,-1,6,-3,-1,2,7,2],"swapped_pitches":[7,9,2,4,9,7,-1,-3,-1,2,7,2],"shift_direction":-1,"question_num":91,"has_decoy":false},{"rt":1315.199999988079,"stimulus":"[A] option 1, [L] option 2, [G] neither","key_press":65,"name":"choice","trial_type":"html-keyboard-response","trial_index":120,"time_elapsed":226757,"internal_node_id":"0.0-120.0","subject":"S1C1208","sona":"41404","block":4,"time":"2021-09-07T04:16:14.470Z","response":"1st","certainty":"high","char":"A","transposition":1,"order":["shifted","swapped"],"probe_pitches":[9,3,6,5,3,2,6,11,4,10,2,9],"shifted_pitches":[9,3,6,5,3,2,7,11,4,10,2,9],"swapped_pitches":[9,3,6,5,3,6,2,11,4,10,2,9],"shift_direction":1,"question_num":101,"has_decoy":false},{"rt":343.39999997615814,"stimulus":"[A] option 1, [L] option 2, [G] neither","key_press":76,"name":"choice","trial_type":"html-keyboard-response","trial_index":131,"time_elapsed":245600,"internal_node_id":"0.0-131.0","subject":"S1C1208","sona":"41404","block":4,"time":"2021-09-07T04:16:14.470Z","response":"2nd","certainty":"high","char":"L","transposition":2,"order":["swapped","shifted"],"probe_pitches":[9,5,0,7,9,7,-3,2,7,-3,5,0],"shifted_pitches":[9,5,0,7,9,7,-2,2,7,-3,5,0],"swapped_pitches":[9,5,0,7,9,-3,7,2,7,-3,5,0],"shift_direction":1,"question_num":111,"has_decoy":false},{"rt":2607.100000023842,"stimulus":"[A] option 1, [L] option 2, [G] neither","key_press":65,"name":"choice","trial_type":"html-keyboard-response","trial_index":142,"time_elapsed":266962,"internal_node_id":"0.0-142.0","subject":"S1C1208","sona":"41404","block":4,"time":"2021-09-07T04:16:14.470Z","response":"1st","certainty":"high","char":"A","transposition":-2,"order":["swapped","shifted"],"probe_pitches":[5,2,5,7,0,-3,2,0,2,-3,0,-3],"shifted_pitches":[5,2,5,7,0,-3,1,0,2,-3,0,-3],"swapped_pitches":[5,2,5,7,0,2,-3,0,2,-3,0,-3],"shift_direction":-1,"question_num":121,"has_decoy":false},{"rt":630.9000000357628,"stimulus":"[A] option 1, [L] option 2, [G] neither","key_press":76,"name":"choice","trial_type":"html-keyboard-response","trial_index":153,"time_elapsed":286698,"internal_node_id":"0.0-153.0","subject":"S1C1208","sona":"41404","block":4,"time":"2021-09-07T04:16:14.470Z","response":"2nd","certainty":"high","char":"L","transposition":1,"order":["shifted","swapped"],"probe_pitches":[4,1,4,-3,4,-3,-1,4,6,9,-1,9],"shifted_pitches":[4,1,4,-3,4,-4,-1,4,6,9,-1,9],"swapped_pitches":[4,1,4,-3,4,-1,-3,4,6,9,-1,9],"shift_direction":-1,"question_num":131,"has_decoy":false},{"rt":3352.2000000476837,"stimulus":"[A] option 1, [L] option 2, [G] neither","key_press":65,"name":"choice","trial_type":"html-keyboard-response","trial_index":164,"time_elapsed":309387,"internal_node_id":"0.0-164.0","subject":"S1C1208","sona":"41404","block":4,"time":"2021-09-07T04:16:14.470Z","response":"1st","certainty":"high","char":"A","transposition":-1,"order":["shifted","swapped"],"probe_pitches":[9,4,9,4,-3,2,0,4,9,7,4,0],"shifted_pitches":[9,4,9,4,-3,2,1,4,9,7,4,0],"swapped_pitches":[9,4,9,4,-3,0,2,4,9,7,4,0],"shift_direction":1,"question_num":141,"has_decoy":false},{"rt":1719.300000011921,"stimulus":"[A] option 1, [L] option 2, [G] neither","key_press":76,"name":"choice","trial_type":"html-keyboard-response","trial_index":175,"time_elapsed":330778,"internal_node_id":"0.0-175.0","subject":"S1C1208","sona":"41404","block":4,"time":"2021-09-07T04:16:14.470Z","response":"2nd","certainty":"high","char":"L","transposition":3,"order":["shifted","swapped"],"probe_pitches":[8,11,12,8,12,6,8,3,11,4,9,0],"shifted_pitches":[8,11,12,8,12,5,8,3,11,4,9,0],"swapped_pitches":[8,11,12,8,12,8,6,3,11,4,9,0],"shift_direction":-1,"question_num":151,"has_decoy":false},{"rt":527,"stimulus":"[A] option 1, [L] option 2, [G] neither","key_press":76,"name":"choice","trial_type":"html-keyboard-response","trial_index":186,"time_elapsed":349890,"internal_node_id":"0.0-186.0","subject":"S1C1208","sona":"41404","block":4,"time":"2021-09-07T04:16:14.470Z","response":"2nd","certainty":"high","char":"L","transposition":3,"order":["swapped","shifted"],"probe_pitches":[7,9,2,-3,2,4,-1,9,7,9,2,-1],"shifted_pitches":[7,9,2,-3,2,4,-2,9,7,9,2,-1],"swapped_pitches":[7,9,2,-3,2,-1,4,9,7,9,2,-1],"shift_direction":-1,"question_num":161,"has_decoy":false},{"rt":2119.199999988079,"stimulus":"[A] option 1, [L] option 2, [G] neither","key_press":65,"name":"choice","trial_type":"html-keyboard-response","trial_index":197,"time_elapsed":370985,"internal_node_id":"0.0-197.0","subject":"S1C1208","sona":"41404","block":4,"time":"2021-09-07T04:16:14.470Z","response":"1st","certainty":"high","char":"A","transposition":-3,"order":["swapped","shifted"],"probe_pitches":[-1,-3,-1,6,-3,6,9,4,6,1,-3,-1],"shifted_pitches":[-1,-3,-1,6,-3,7,9,4,6,1,-3,-1],"swapped_pitches":[-1,-3,-1,6,-3,9,6,4,6,1,-3,-1],"shift_direction":1,"question_num":171,"has_decoy":false},{"rt":1973.6000000238419,"stimulus":"[A] option 1, [L] option 2, [G] neither","key_press":65,"name":"choice","trial_type":"html-keyboard-response","trial_index":208,"time_elapsed":393917,"internal_node_id":"0.0-208.0","subject":"S1C1208","sona":"41404","block":4,"time":"2021-09-07T04:16:14.470Z","response":"1st","certainty":"high","char":"A","transposition":-1,"order":["swapped","shifted"],"probe_pitches":[12,10,6,1,0,9,2,6,8,4,6,5],"shifted_pitches":[12,10,6,1,0,9,3,6,8,4,6,5],"swapped_pitches":[12,10,6,1,0,2,9,6,8,4,6,5],"shift_direction":1,"question_num":181,"has_decoy":false},{"rt":4247.5,"stimulus":"[A] option 1, [L] option 2, [G] neither","key_press":76,"name":"choice","trial_type":"html-keyboard-response","trial_index":219,"time_elapsed":419001,"internal_node_id":"0.0-219.0","subject":"S1C1208","sona":"41404","block":4,"time":"2021-09-07T04:16:14.470Z","response":"2nd","certainty":"high","char":"L","transposition":-3,"order":["swapped","shifted"],"probe_pitches":[11,5,10,4,1,3,8,1,3,0,5,6],"shifted_pitches":[11,5,10,4,1,3,9,1,3,0,5,6],"swapped_pitches":[11,5,10,4,1,8,3,1,3,0,5,6],"shift_direction":1,"question_num":191,"has_decoy":false}]