[{"rt":1922,"stimulus":"[A] option 1, [L] option 2, [G] neither","key_press":65,"name":"choice","trial_type":"html-keyboard-response","trial_index":10,"time_elapsed":24163,"internal_node_id":"0.0-10.0","subject":"S1C1208","sona":"41404","block":2,"time":"2021-09-07T03:27:17.315Z","response":"1st","certainty":"high","char":"A","transposition":-1,"order":["shifted","swapped"],"probe_pitches":[9,7,9,7,2,9,7,0,2,0,7,5],"shifted_pitches":[9,7,9,7,2,9,8,0,2,0,7,5],"swapped_pitches":[9,7,9,7,2,7,9,0,2,0,7,5],"shift_direction":1,"question_num":1,"has_decoy":false},{"rt":385.4000000357628,"stimulus":"[A] option 1, [L] option 2, [G] neither","key_press":65,"name":"choice","trial_type":"html-keyboard-response","trial_index":21,"time_elapsed":44236,"internal_node_id":"0.0-21.0","subject":"S1C1208","sona":"41404","block":2,"time":"2021-09-07T03:27:17.315Z","response":"1st","certainty":"high","char":"A","transposition":-3,"order":["swapped","shifted"],"probe_pitches":[2,-2,2,7,6,8,7,-2,6,0,7,-1],"shifted_pitches":[2,-2,2,7,6,9,7,-2,6,0,7,-1],"swapped_pitches":[2,-2,2,7,6,7,8,-2,6,0,7,-1],"shift_direction":1,"question_num":11,"has_decoy":false},{"rt":309.10000002384186,"stimulus":"[A] option 1, [L] option 2, [G] neither","key_press":76,"name":"choice","trial_type":"html-keyboard-response","trial_index":32,"time_elapsed":67067,"internal_node_id":"0.0-32.0","subject":"S1C1208","sona":"41404","block":2,"time":"2021-09-07T03:27:17.315Z","response":"2nd","certainty":"high","char":"L","transposition":3,"order":["shifted","swapped"],"probe_pitches":[1,3,10,6,9,-1,1,8,7,-1,7,-1],"shifted_pitches":[1,3,10,6,9,-1,0,8,7,-1,7,-1],"swapped_pitches":[1,3,10,6,9,1,-1,8,7,-1,7,-1],"shift_direction":-1,"question_num":21,"has_decoy":false},{"rt":1005.4000000357628,"stimulus":"[A] option 1, [L] option 2, [G] neither","key_press":65,"name":"choice","trial_type":"html-keyboard-response","trial_index":43,"time_elapsed":86867,"internal_node_id":"0.0-43.0","subject":"S1C1208","sona":"41404","block":2,"time":"2021-09-07T03:27:17.315Z","response":"1st","certainty":"high","char":"A","transposition":-2,"order":["swapped","shifted"],"probe_pitches":[0,5,10,9,10,5,0,9,10,3,6,3],"shifted_pitches":[0,5,10,9,10,4,0,9,10,3,6,3],"swapped_pitches":[0,5,10,9,10,0,5,9,10,3,6,3],"shift_direction":-1,"question_num":31,"has_decoy":false},{"rt":362.10000002384186,"stimulus":"[A] option 1, [L] option 2, [G] neither","key_press":76,"name":"choice","trial_type":"html-keyboard-response","trial_index":54,"time_elapsed":105960,"internal_node_id":"0.0-54.0","subject":"S1C1208","sona":"41404","block":2,"time":"2021-09-07T03:27:17.315Z","response":"2nd","certainty":"high","char":"L","transposition":-1,"order":["swapped","shifted"],"probe_pitches":[2,5,3,-1,8,5,4,7,0,9,-1,5],"shifted_pitches":[2,5,3,-1,8,6,4,7,0,9,-1,5],"swapped_pitches":[2,5,3,-1,8,4,5,7,0,9,-1,5],"shift_direction":1,"question_num":41,"has_decoy":false},{"rt":1194.300000011921,"stimulus":"[A] option 1, [L] option 2, [G] neither","key_press":65,"name":"choice","trial_type":"html-keyboard-response","trial_index":65,"time_elapsed":126178,"internal_node_id":"0.0-65.0","subject":"S1C1208","sona":"41404","block":2,"time":"2021-09-07T03:27:17.315Z","response":"1st","certainty":"high","char":"A","transposition":-2,"order":["shifted","swapped"],"probe_pitches":[0,-1,6,10,5,-2,9,0,3,6,2,9],"shifted_pitches":[0,-1,6,10,5,-2,8,0,3,6,2,9],"swapped_pitches":[0,-1,6,10,5,9,-2,0,3,6,2,9],"shift_direction":-1,"question_num":51,"has_decoy":false},{"rt":840.6999999880791,"stimulus":"[A] option 1, [L] option 2, [G] neither","key_press":76,"name":"choice","trial_type":"html-keyboard-response","trial_index":76,"time_elapsed":148147,"internal_node_id":"0.0-76.0","subject":"S1C1208","sona":"41404","block":2,"time":"2021-09-07T03:27:17.315Z","response":"2nd","certainty":"high","char":"L","transposition":2,"order":["swapped","shifted"],"probe_pitches":[-3,-1,-3,1,4,6,-3,-1,4,-3,-1,6],"shifted_pitches":[-3,-1,-3,1,4,7,-3,-1,4,-3,-1,6],"swapped_pitches":[-3,-1,-3,1,4,-3,6,-1,4,-3,-1,6],"shift_direction":1,"question_num":61,"has_decoy":false},{"rt":1646.800000011921,"stimulus":"[A] option 1, [L] option 2, [G] neither","key_press":65,"name":"choice","trial_type":"html-keyboard-response","trial_index":87,"time_elapsed":168985,"internal_node_id":"0.0-87.0","subject":"S1C1208","sona":"41404","block":2,"time":"2021-09-07T03:27:17.315Z","response":"1st","certainty":"high","char":"A","transposition":-1,"order":["shifted","swapped"],"probe_pitches":[9,7,0,2,4,7,9,2,7,2,-3,2],"shifted_pitches":[9,7,0,2,4,8,9,2,7,2,-3,2],"swapped_pitches":[9,7,0,2,4,9,7,2,7,2,-3,2],"shift_direction":1,"question_num":71,"has_decoy":false},{"rt":940.9000000357628,"stimulus":"[A] option 1, [L] option 2, [G] neither","key_press":76,"name":"choice","trial_type":"html-keyboard-response","trial_index":98,"time_elapsed":188738,"internal_node_id":"0.0-98.0","subject":"S1C1208","sona":"41404","block":2,"time":"2021-09-07T03:27:17.315Z","response":"2nd","certainty":"high","char":"L","transposition":0,"order":["swapped","shifted"],"probe_pitches":[5,-1,2,0,9,5,4,-2,0,4,0,7],"shifted_pitches":[5,-1,2,0,9,5,3,-2,0,4,0,7],"swapped_pitches":[5,-1,2,0,9,4,5,-2,0,4,0,7],"shift_direction":-1,"question_num":81,"has_decoy":false},{"rt":386.4000000357628,"stimulus":"[A] option 1, [L] option 2, [G] neither","key_press":76,"name":"choice","trial_type":"html-keyboard-response","trial_index":109,"time_elapsed":208354,"internal_node_id":"0.0-109.0","subject":"S1C1208","sona":"41404","block":2,"time":"2021-09-07T03:27:17.315Z","response":"2nd","certainty":"high","char":"L","transposition":-2,"order":["swapped","shifted"],"probe_pitches":[4,2,4,9,7,9,-1,-3,-1,4,9,-1],"shifted_pitches":[4,2,4,9,7,9,0,-3,-1,4,9,-1],"swapped_pitches":[4,2,4,9,7,-1,9,-3,-1,4,9,-1],"shift_direction":1,"question_num":91,"has_decoy":false},{"rt":1173.699999988079,"stimulus":"[A] option 1, [L] option 2, [G] neither","key_press":65,"name":"choice","trial_type":"html-keyboard-response","trial_index":120,"time_elapsed":228719,"internal_node_id":"0.0-120.0","subject":"S1C1208","sona":"41404","block":2,"time":"2021-09-07T03:27:17.315Z","response":"1st","certainty":"high","char":"A","transposition":-2,"order":["swapped","shifted"],"probe_pitches":[7,9,2,9,7,-1,9,4,2,-3,7,4],"shifted_pitches":[7,9,2,9,7,-1,8,4,2,-3,7,4],"swapped_pitches":[7,9,2,9,7,9,-1,4,2,-3,7,4],"shift_direction":-1,"question_num":101,"has_decoy":false},{"rt":329.4000000357628,"stimulus":"[A] option 1, [L] option 2, [G] neither","key_press":76,"name":"choice","trial_type":"html-keyboard-response","trial_index":131,"time_elapsed":247926,"internal_node_id":"0.0-131.0","subject":"S1C1208","sona":"41404","block":2,"time":"2021-09-07T03:27:17.315Z","response":"2nd","certainty":"high","char":"L","transposition":-1,"order":["shifted","swapped"],"probe_pitches":[0,2,6,2,8,2,7,-2,3,9,-1,5],"shifted_pitches":[0,2,6,2,8,1,7,-2,3,9,-1,5],"swapped_pitches":[0,2,6,2,8,7,2,-2,3,9,-1,5],"shift_direction":-1,"question_num":111,"has_decoy":false},{"rt":606,"stimulus":"[A] option 1, [L] option 2, [G] neither","key_press":65,"name":"choice","trial_type":"html-keyboard-response","trial_index":142,"time_elapsed":272354,"internal_node_id":"0.0-142.0","subject":"S1C1208","sona":"41404","block":2,"time":"2021-09-07T03:27:17.315Z","response":"1st","certainty":"high","char":"A","transposition":-3,"order":["shifted","swapped"],"probe_pitches":[2,7,9,4,-3,7,2,9,-3,9,-3,0],"shifted_pitches":[2,7,9,4,-3,6,2,9,-3,9,-3,0],"swapped_pitches":[2,7,9,4,-3,2,7,9,-3,9,-3,0],"shift_direction":-1,"question_num":121,"has_decoy":false},{"rt":2817,"stimulus":"[A] option 1, [L] option 2, [G] neither","key_press":65,"name":"choice","trial_type":"html-keyboard-response","trial_index":153,"time_elapsed":294607,"internal_node_id":"0.0-153.0","subject":"S1C1208","sona":"41404","block":2,"time":"2021-09-07T03:27:17.315Z","response":"1st","certainty":"high","char":"A","transposition":1,"order":["shifted","swapped"],"probe_pitches":[6,1,-3,-1,6,-3,-1,6,-1,1,4,6],"shifted_pitches":[6,1,-3,-1,6,-4,-1,6,-1,1,4,6],"swapped_pitches":[6,1,-3,-1,6,-1,-3,6,-1,1,4,6],"shift_direction":-1,"question_num":131,"has_decoy":false},{"rt":478,"stimulus":"[A] option 1, [L] option 2, [G] neither","key_press":76,"name":"choice","trial_type":"html-keyboard-response","trial_index":164,"time_elapsed":313869,"internal_node_id":"0.0-164.0","subject":"S1C1208","sona":"41404","block":2,"time":"2021-09-07T03:27:17.315Z","response":"2nd","certainty":"high","char":"L","transposition":0,"order":["swapped","shifted"],"probe_pitches":[2,-3,-1,6,-1,4,2,-3,2,-3,-1,-3],"shifted_pitches":[2,-3,-1,6,-1,3,2,-3,2,-3,-1,-3],"swapped_pitches":[2,-3,-1,6,-1,2,4,-3,2,-3,-1,-3],"shift_direction":-1,"question_num":141,"has_decoy":false},{"rt":3672.800000011921,"stimulus":"[A] option 1, [L] option 2, [G] neither","key_press":76,"name":"choice","trial_type":"html-keyboard-response","trial_index":175,"time_elapsed":336706,"internal_node_id":"0.0-175.0","subject":"S1C1208","sona":"41404","block":2,"time":"2021-09-07T03:27:17.315Z","response":"2nd","certainty":"high","char":"L","transposition":-3,"order":["shifted","swapped"],"probe_pitches":[0,-3,0,2,-3,7,2,9,7,5,9,7],"shifted_pitches":[0,-3,0,2,-3,7,3,9,7,5,9,7],"swapped_pitches":[0,-3,0,2,-3,2,7,9,7,5,9,7],"shift_direction":1,"question_num":151,"has_decoy":false},{"rt":229.19999998807907,"stimulus":"[A] option 1, [L] option 2, [G] neither","key_press":65,"name":"choice","trial_type":"html-keyboard-response","trial_index":186,"time_elapsed":356258,"internal_node_id":"0.0-186.0","subject":"S1C1208","sona":"41404","block":2,"time":"2021-09-07T03:27:17.315Z","response":"1st","certainty":"high","char":"A","transposition":1,"order":["shifted","swapped"],"probe_pitches":[9,3,4,10,9,3,4,2,8,0,1,3],"shifted_pitches":[9,3,4,10,9,3,5,2,8,0,1,3],"swapped_pitches":[9,3,4,10,9,4,3,2,8,0,1,3],"shift_direction":1,"question_num":161,"has_decoy":false},{"rt":3472.199999988079,"stimulus":"[A] option 1, [L] option 2, [G] neither","key_press":65,"name":"choice","trial_type":"html-keyboard-response","trial_index":197,"time_elapsed":378874,"internal_node_id":"0.0-197.0","subject":"S1C1208","sona":"41404","block":2,"time":"2021-09-07T03:27:17.315Z","response":"1st","certainty":"high","char":"A","transposition":3,"order":["swapped","shifted"],"probe_pitches":[9,4,-1,-3,-1,6,2,4,9,-1,9,2],"shifted_pitches":[9,4,-1,-3,-1,6,1,4,9,-1,9,2],"swapped_pitches":[9,4,-1,-3,-1,2,6,4,9,-1,9,2],"shift_direction":-1,"question_num":171,"has_decoy":false},{"rt":2774.2000000476837,"stimulus":"[A] option 1, [L] option 2, [G] neither","key_press":65,"name":"choice","trial_type":"html-keyboard-response","trial_index":208,"time_elapsed":400458,"internal_node_id":"0.0-208.0","subject":"S1C1208","sona":"41404","block":2,"time":"2021-09-07T03:27:17.315Z","response":"1st","certainty":"high","char":"A","transposition":2,"order":["swapped","shifted"],"probe_pitches":[3,-1,0,2,5,6,2,3,8,1,-2,3],"shifted_pitches":[3,-1,0,2,5,7,2,3,8,1,-2,3],"swapped_pitches":[3,-1,0,2,5,2,6,3,8,1,-2,3],"shift_direction":1,"question_num":181,"has_decoy":false},{"rt":3798.400000035763,"stimulus":"[A] option 1, [L] option 2, [G] neither","key_press":76,"name":"choice","trial_type":"html-keyboard-response","trial_index":219,"time_elapsed":423332,"internal_node_id":"0.0-219.0","subject":"S1C1208","sona":"41404","block":2,"time":"2021-09-07T03:27:17.315Z","response":"2nd","certainty":"high","char":"L","transposition":-3,"order":["shifted","swapped"],"probe_pitches":[0,3,8,9,5,8,1,-2,0,3,10,9],"shifted_pitches":[0,3,8,9,5,8,2,-2,0,3,10,9],"swapped_pitches":[0,3,8,9,5,1,8,-2,0,3,10,9],"shift_direction":1,"question_num":191,"has_decoy":false}]