[{"rt":35825.19999998808,"stimulus":"[A] option 1, [L] option 2, [G] neither","key_press":76,"name":"choice","trial_type":"html-keyboard-response","trial_index":10,"time_elapsed":57054,"internal_node_id":"0.0-10.0","subject":"S1C1208","sona":"41404","block":5,"time":"2021-09-07T04:24:49.412Z","response":"2nd","certainty":"high","char":"L","transposition":-2,"order":["swapped","shifted"],"probe_pitches":[8,7,1,8,7,3,-1,7,-2,-3,2,6],"shifted_pitches":[8,7,1,8,7,3,0,7,-2,-3,2,6],"swapped_pitches":[8,7,1,8,7,-1,3,7,-2,-3,2,6],"shift_direction":1,"question_num":1,"has_decoy":false},{"rt":3970,"stimulus":"[A] option 1, [L] option 2, [G] neither","key_press":65,"name":"choice","trial_type":"html-keyboard-response","trial_index":21,"time_elapsed":81960,"internal_node_id":"0.0-21.0","subject":"S1C1208","sona":"41404","block":5,"time":"2021-09-07T04:24:49.412Z","response":"1st","certainty":"high","char":"A","transposition":-3,"order":["shifted","swapped"],"probe_pitches":[13,11,13,6,11,4,13,9,11,9,4,11],"shifted_pitches":[13,11,13,6,11,4,14,9,11,9,4,11],"swapped_pitches":[13,11,13,6,11,13,4,9,11,9,4,11],"shift_direction":1,"question_num":11,"has_decoy":false},{"rt":2063.100000023842,"stimulus":"[A] option 1, [L] option 2, [G] neither","key_press":65,"name":"choice","trial_type":"html-keyboard-response","trial_index":32,"time_elapsed":103588,"internal_node_id":"0.0-32.0","subject":"S1C1208","sona":"41404","block":5,"time":"2021-09-07T04:24:49.412Z","response":"1st","certainty":"high","char":"A","transposition":-1,"order":["shifted","swapped"],"probe_pitches":[1,-3,-2,6,5,-1,3,8,3,9,-2,1],"shifted_pitches":[1,-3,-2,6,5,-1,2,8,3,9,-2,1],"swapped_pitches":[1,-3,-2,6,5,3,-1,8,3,9,-2,1],"shift_direction":-1,"question_num":21,"has_decoy":false},{"rt":2671.199999988079,"stimulus":"[A] option 1, [L] option 2, [G] neither","key_press":76,"name":"choice","trial_type":"html-keyboard-response","trial_index":43,"time_elapsed":126910,"internal_node_id":"0.0-43.0","subject":"S1C1208","sona":"41404","block":5,"time":"2021-09-07T04:24:49.412Z","response":"2nd","certainty":"high","char":"L","transposition":-2,"order":["shifted","swapped"],"probe_pitches":[8,13,6,10,6,8,10,13,8,3,1,8],"shifted_pitches":[8,13,6,10,6,8,11,13,8,3,1,8],"swapped_pitches":[8,13,6,10,6,10,8,13,8,3,1,8],"shift_direction":1,"question_num":31,"has_decoy":false},{"rt":1703.5999999642372,"stimulus":"[A] option 1, [L] option 2, [G] neither","key_press":65,"name":"choice","trial_type":"html-keyboard-response","trial_index":54,"time_elapsed":152500,"internal_node_id":"0.0-54.0","subject":"S1C1208","sona":"41404","block":5,"time":"2021-09-07T04:24:49.412Z","response":"1st","certainty":"high","char":"A","transposition":-3,"order":["shifted","swapped"],"probe_pitches":[13,11,13,6,4,1,8,11,1,13,4,13],"shifted_pitches":[13,11,13,6,4,2,8,11,1,13,4,13],"swapped_pitches":[13,11,13,6,4,8,1,11,1,13,4,13],"shift_direction":1,"question_num":41,"has_decoy":false},{"rt":560.8999999761581,"stimulus":"[A] option 1, [L] option 2, [G] neither","key_press":65,"name":"choice","trial_type":"html-keyboard-response","trial_index":65,"time_elapsed":175903,"internal_node_id":"0.0-65.0","subject":"S1C1208","sona":"41404","block":5,"time":"2021-09-07T04:24:49.412Z","response":"1st","certainty":"high","char":"A","transposition":-1,"order":["shifted","swapped"],"probe_pitches":[6,10,13,8,13,10,1,8,3,8,3,13],"shifted_pitches":[6,10,13,8,13,11,1,8,3,8,3,13],"swapped_pitches":[6,10,13,8,13,1,10,8,3,8,3,13],"shift_direction":1,"question_num":51,"has_decoy":false},{"rt":1785.3999999761581,"stimulus":"[A] option 1, [L] option 2, [G] neither","key_press":76,"name":"choice","trial_type":"html-keyboard-response","trial_index":76,"time_elapsed":196461,"internal_node_id":"0.0-76.0","subject":"S1C1208","sona":"41404","block":5,"time":"2021-09-07T04:24:49.412Z","response":"2nd","certainty":"high","char":"L","transposition":2,"order":["swapped","shifted"],"probe_pitches":[0,-2,-1,-3,4,7,2,1,6,0,-2,0],"shifted_pitches":[0,-2,-1,-3,4,8,2,1,6,0,-2,0],"swapped_pitches":[0,-2,-1,-3,4,2,7,1,6,0,-2,0],"shift_direction":1,"question_num":61,"has_decoy":false},{"rt":2602.599999964237,"stimulus":"[A] option 1, [L] option 2, [G] neither","key_press":76,"name":"choice","trial_type":"html-keyboard-response","trial_index":87,"time_elapsed":217741,"internal_node_id":"0.0-87.0","subject":"S1C1208","sona":"41404","block":5,"time":"2021-09-07T04:24:49.412Z","response":"2nd","certainty":"high","char":"L","transposition":3,"order":["swapped","shifted"],"probe_pitches":[6,3,1,6,3,6,11,13,1,11,3,8],"shifted_pitches":[6,3,1,6,3,7,11,13,1,11,3,8],"swapped_pitches":[6,3,1,6,3,11,6,13,1,11,3,8],"shift_direction":1,"question_num":71,"has_decoy":false},{"rt":2529.300000011921,"stimulus":"[A] option 1, [L] option 2, [G] neither","key_press":65,"name":"choice","trial_type":"html-keyboard-response","trial_index":98,"time_elapsed":238938,"internal_node_id":"0.0-98.0","subject":"S1C1208","sona":"41404","block":5,"time":"2021-09-07T04:24:49.412Z","response":"1st","certainty":"high","char":"A","transposition":-1,"order":["swapped","shifted"],"probe_pitches":[6,1,8,1,4,11,1,13,6,4,8,11],"shifted_pitches":[6,1,8,1,4,10,1,13,6,4,8,11],"swapped_pitches":[6,1,8,1,4,1,11,13,6,4,8,11],"shift_direction":-1,"question_num":81,"has_decoy":false},{"rt":1868.3999999761581,"stimulus":"[A] option 1, [L] option 2, [G] neither","key_press":76,"name":"choice","trial_type":"html-keyboard-response","trial_index":109,"time_elapsed":259466,"internal_node_id":"0.0-109.0","subject":"S1C1208","sona":"41404","block":5,"time":"2021-09-07T04:24:49.412Z","response":"2nd","certainty":"high","char":"L","transposition":3,"order":["swapped","shifted"],"probe_pitches":[9,8,9,6,-1,3,2,6,-1,0,6,3],"shifted_pitches":[9,8,9,6,-1,4,2,6,-1,0,6,3],"swapped_pitches":[9,8,9,6,-1,2,3,6,-1,0,6,3],"shift_direction":1,"question_num":91,"has_decoy":false},{"rt":4251.099999964237,"stimulus":"[A] option 1, [L] option 2, [G] neither","key_press":76,"name":"choice","trial_type":"html-keyboard-response","trial_index":120,"time_elapsed":285727,"internal_node_id":"0.0-120.0","subject":"S1C1208","sona":"41404","block":5,"time":"2021-09-07T04:24:49.412Z","response":"2nd","certainty":"high","char":"L","transposition":2,"order":["shifted","swapped"],"probe_pitches":[6,1,3,11,3,8,6,3,8,13,1,6],"shifted_pitches":[6,1,3,11,3,7,6,3,8,13,1,6],"swapped_pitches":[6,1,3,11,3,6,8,3,8,13,1,6],"shift_direction":-1,"question_num":101,"has_decoy":false},{"rt":3729,"stimulus":"[A] option 1, [L] option 2, [G] neither","key_press":65,"name":"choice","trial_type":"html-keyboard-response","trial_index":131,"time_elapsed":310943,"internal_node_id":"0.0-131.0","subject":"S1C1208","sona":"41404","block":5,"time":"2021-09-07T04:24:49.412Z","response":"1st","certainty":"high","char":"A","transposition":-1,"order":["swapped","shifted"],"probe_pitches":[4,8,2,6,-3,2,3,4,-3,-2,9,8],"shifted_pitches":[4,8,2,6,-3,1,3,4,-3,-2,9,8],"swapped_pitches":[4,8,2,6,-3,3,2,4,-3,-2,9,8],"shift_direction":-1,"question_num":111,"has_decoy":false},{"rt":4921.100000023842,"stimulus":"[A] option 1, [L] option 2, [G] neither","key_press":71,"name":"choice","trial_type":"html-keyboard-response","trial_index":142,"time_elapsed":337152,"internal_node_id":"0.0-142.0","subject":"S1C1208","sona":"41404","block":5,"time":"2021-09-07T04:24:49.412Z","response":"neither","certainty":"high","char":"G","transposition":0,"order":["swapped","shifted"],"probe_pitches":[13,9,13,9,4,11,9,4,9,11,6,9],"shifted_pitches":[13,9,13,9,4,11,8,4,9,11,6,9],"swapped_pitches":[13,9,13,9,4,9,11,4,9,11,6,9],"shift_direction":-1,"question_num":121,"has_decoy":false},{"rt":2146.300000011921,"stimulus":"[A] option 1, [L] option 2, [G] neither","key_press":76,"name":"choice","trial_type":"html-keyboard-response","trial_index":153,"time_elapsed":359529,"internal_node_id":"0.0-153.0","subject":"S1C1208","sona":"41404","block":5,"time":"2021-09-07T04:24:49.412Z","response":"2nd","certainty":"high","char":"L","transposition":-2,"order":["shifted","swapped"],"probe_pitches":[6,9,8,4,0,-3,6,3,5,-2,8,-2],"shifted_pitches":[6,9,8,4,0,-3,7,3,5,-2,8,-2],"swapped_pitches":[6,9,8,4,0,6,-3,3,5,-2,8,-2],"shift_direction":1,"question_num":131,"has_decoy":false},{"rt":3591.300000011921,"stimulus":"[A] option 1, [L] option 2, [G] neither","key_press":65,"name":"choice","trial_type":"html-keyboard-response","trial_index":164,"time_elapsed":384546,"internal_node_id":"0.0-164.0","subject":"S1C1208","sona":"41404","block":5,"time":"2021-09-07T04:24:49.412Z","response":"1st","certainty":"high","char":"A","transposition":0,"order":["shifted","swapped"],"probe_pitches":[2,-3,0,2,-1,4,0,-1,7,-2,2,6],"shifted_pitches":[2,-3,0,2,-1,3,0,-1,7,-2,2,6],"swapped_pitches":[2,-3,0,2,-1,0,4,-1,7,-2,2,6],"shift_direction":-1,"question_num":141,"has_decoy":false},{"rt":2222.399999976158,"stimulus":"[A] option 1, [L] option 2, [G] neither","key_press":76,"name":"choice","trial_type":"html-keyboard-response","trial_index":175,"time_elapsed":406468,"internal_node_id":"0.0-175.0","subject":"S1C1208","sona":"41404","block":5,"time":"2021-09-07T04:24:49.412Z","response":"2nd","certainty":"high","char":"L","transposition":1,"order":["swapped","shifted"],"probe_pitches":[5,8,10,8,1,10,3,5,1,3,10,8],"shifted_pitches":[5,8,10,8,1,10,2,5,1,3,10,8],"swapped_pitches":[5,8,10,8,1,3,10,5,1,3,10,8],"shift_direction":-1,"question_num":151,"has_decoy":false},{"rt":5079.799999952316,"stimulus":"[A] option 1, [L] option 2, [G] neither","key_press":76,"name":"choice","trial_type":"html-keyboard-response","trial_index":186,"time_elapsed":436002,"internal_node_id":"0.0-186.0","subject":"S1C1208","sona":"41404","block":5,"time":"2021-09-07T04:24:49.412Z","response":"2nd","certainty":"high","char":"L","transposition":-3,"order":["shifted","swapped"],"probe_pitches":[9,5,9,2,-2,0,7,2,-1,7,-2,4],"shifted_pitches":[9,5,9,2,-2,0,6,2,-1,7,-2,4],"swapped_pitches":[9,5,9,2,-2,7,0,2,-1,7,-2,4],"shift_direction":-1,"question_num":161,"has_decoy":false},{"rt":1348,"stimulus":"[A] option 1, [L] option 2, [G] neither","key_press":65,"name":"choice","trial_type":"html-keyboard-response","trial_index":197,"time_elapsed":458174,"internal_node_id":"0.0-197.0","subject":"S1C1208","sona":"41404","block":5,"time":"2021-09-07T04:24:49.412Z","response":"1st","certainty":"high","char":"A","transposition":1,"order":["shifted","swapped"],"probe_pitches":[9,8,7,1,0,6,4,-3,6,8,6,0],"shifted_pitches":[9,8,7,1,0,5,4,-3,6,8,6,0],"swapped_pitches":[9,8,7,1,0,4,6,-3,6,8,6,0],"shift_direction":-1,"question_num":171,"has_decoy":false},{"rt":3100.199999988079,"stimulus":"[A] option 1, [L] option 2, [G] neither","key_press":65,"name":"choice","trial_type":"html-keyboard-response","trial_index":208,"time_elapsed":482715,"internal_node_id":"0.0-208.0","subject":"S1C1208","sona":"41404","block":5,"time":"2021-09-07T04:24:49.412Z","response":"1st","certainty":"high","char":"A","transposition":-2,"order":["swapped","shifted"],"probe_pitches":[5,3,1,8,1,8,5,10,1,3,1,10],"shifted_pitches":[5,3,1,8,1,8,4,10,1,3,1,10],"swapped_pitches":[5,3,1,8,1,5,8,10,1,3,1,10],"shift_direction":-1,"question_num":181,"has_decoy":false},{"rt":5476.099999964237,"stimulus":"[A] option 1, [L] option 2, [G] neither","key_press":76,"name":"choice","trial_type":"html-keyboard-response","trial_index":219,"time_elapsed":509325,"internal_node_id":"0.0-219.0","subject":"S1C1208","sona":"41404","block":5,"time":"2021-09-07T04:24:49.412Z","response":"2nd","certainty":"high","char":"L","transposition":-3,"order":["swapped","shifted"],"probe_pitches":[-2,2,7,8,5,1,-2,9,3,2,-2,-3],"shifted_pitches":[-2,2,7,8,5,1,-1,9,3,2,-2,-3],"swapped_pitches":[-2,2,7,8,5,-2,1,9,3,2,-2,-3],"shift_direction":1,"question_num":191,"has_decoy":false}]