[{"rt":1745.5,"stimulus":"[A] option 1, [L] option 2, [G] neither","key_press":65,"name":"choice","trial_type":"html-keyboard-response","trial_index":10,"time_elapsed":26275,"internal_node_id":"0.0-10.0","subject":"S1C1208","sona":"41404","block":3,"time":"2021-09-07T03:37:24.536Z","response":"1st","certainty":"high","char":"A","transposition":1,"order":["shifted","swapped"],"probe_pitches":[5,9,7,2,5,1,9,6,8,4,5,6],"shifted_pitches":[5,9,7,2,5,0,9,6,8,4,5,6],"swapped_pitches":[5,9,7,2,5,9,1,6,8,4,5,6],"shift_direction":-1,"question_num":1,"has_decoy":false},{"rt":2212.199999988079,"stimulus":"[A] option 1, [L] option 2, [G] neither","key_press":65,"name":"choice","trial_type":"html-keyboard-response","trial_index":21,"time_elapsed":49376,"internal_node_id":"0.0-21.0","subject":"S1C1208","sona":"41404","block":3,"time":"2021-09-07T03:37:24.536Z","response":"1st","certainty":"high","char":"A","transposition":0,"order":["shifted","swapped"],"probe_pitches":[3,8,5,10,8,3,0,-2,8,0,3,-2],"shifted_pitches":[3,8,5,10,8,4,0,-2,8,0,3,-2],"swapped_pitches":[3,8,5,10,8,0,3,-2,8,0,3,-2],"shift_direction":1,"question_num":11,"has_decoy":false},{"rt":2855.5,"stimulus":"[A] option 1, [L] option 2, [G] neither","key_press":76,"name":"choice","trial_type":"html-keyboard-response","trial_index":32,"time_elapsed":71448,"internal_node_id":"0.0-32.0","subject":"S1C1208","sona":"41404","block":3,"time":"2021-09-07T03:37:24.536Z","response":"2nd","certainty":"high","char":"L","transposition":-2,"order":["swapped","shifted"],"probe_pitches":[3,4,9,6,5,3,8,6,4,8,-1,5],"shifted_pitches":[3,4,9,6,5,2,8,6,4,8,-1,5],"swapped_pitches":[3,4,9,6,5,8,3,6,4,8,-1,5],"shift_direction":-1,"question_num":21,"has_decoy":false},{"rt":1869.199999988079,"stimulus":"[A] option 1, [L] option 2, [G] neither","key_press":76,"name":"choice","trial_type":"html-keyboard-response","trial_index":43,"time_elapsed":93102,"internal_node_id":"0.0-43.0","subject":"S1C1208","sona":"41404","block":3,"time":"2021-09-07T03:37:24.536Z","response":"2nd","certainty":"high","char":"L","transposition":-2,"order":["shifted","swapped"],"probe_pitches":[8,3,10,3,10,6,1,10,1,10,-2,6],"shifted_pitches":[8,3,10,3,10,6,2,10,1,10,-2,6],"swapped_pitches":[8,3,10,3,10,1,6,10,1,10,-2,6],"shift_direction":1,"question_num":31,"has_decoy":false},{"rt":1457.1000000238419,"stimulus":"[A] option 1, [L] option 2, [G] neither","key_press":76,"name":"choice","trial_type":"html-keyboard-response","trial_index":54,"time_elapsed":114087,"internal_node_id":"0.0-54.0","subject":"S1C1208","sona":"41404","block":3,"time":"2021-09-07T03:37:24.536Z","response":"2nd","certainty":"high","char":"L","transposition":-1,"order":["swapped","shifted"],"probe_pitches":[6,8,5,7,0,2,3,9,8,7,3,2],"shifted_pitches":[6,8,5,7,0,2,4,9,8,7,3,2],"swapped_pitches":[6,8,5,7,0,3,2,9,8,7,3,2],"shift_direction":1,"question_num":41,"has_decoy":false},{"rt":2353.7999999523163,"stimulus":"[A] option 1, [L] option 2, [G] neither","key_press":65,"name":"choice","trial_type":"html-keyboard-response","trial_index":65,"time_elapsed":136461,"internal_node_id":"0.0-65.0","subject":"S1C1208","sona":"41404","block":3,"time":"2021-09-07T03:37:24.536Z","response":"1st","certainty":"high","char":"A","transposition":-1,"order":["shifted","swapped"],"probe_pitches":[5,6,0,-1,3,7,4,-3,6,9,-1,5],"shifted_pitches":[5,6,0,-1,3,8,4,-3,6,9,-1,5],"swapped_pitches":[5,6,0,-1,3,4,7,-3,6,9,-1,5],"shift_direction":1,"question_num":51,"has_decoy":false},{"rt":2313.699999988079,"stimulus":"[A] option 1, [L] option 2, [G] neither","key_press":76,"name":"choice","trial_type":"html-keyboard-response","trial_index":76,"time_elapsed":163509,"internal_node_id":"0.0-76.0","subject":"S1C1208","sona":"41404","block":3,"time":"2021-09-07T03:37:24.536Z","response":"2nd","certainty":"high","char":"L","transposition":-2,"order":["swapped","shifted"],"probe_pitches":[10,5,10,5,0,7,3,10,5,-2,3,0],"shifted_pitches":[10,5,10,5,0,7,2,10,5,-2,3,0],"swapped_pitches":[10,5,10,5,0,3,7,10,5,-2,3,0],"shift_direction":-1,"question_num":61,"has_decoy":false},{"rt":2293.199999988079,"stimulus":"[A] option 1, [L] option 2, [G] neither","key_press":65,"name":"choice","trial_type":"html-keyboard-response","trial_index":87,"time_elapsed":184971,"internal_node_id":"0.0-87.0","subject":"S1C1208","sona":"41404","block":3,"time":"2021-09-07T03:37:24.536Z","response":"1st","certainty":"high","char":"A","transposition":-3,"order":["swapped","shifted"],"probe_pitches":[10,5,1,5,10,3,1,10,-2,8,3,8],"shifted_pitches":[10,5,1,5,10,2,1,10,-2,8,3,8],"swapped_pitches":[10,5,1,5,10,1,3,10,-2,8,3,8],"shift_direction":-1,"question_num":71,"has_decoy":false},{"rt":2469.399999976158,"stimulus":"[A] option 1, [L] option 2, [G] neither","key_press":65,"name":"choice","trial_type":"html-keyboard-response","trial_index":98,"time_elapsed":207003,"internal_node_id":"0.0-98.0","subject":"S1C1208","sona":"41404","block":3,"time":"2021-09-07T03:37:24.536Z","response":"1st","certainty":"high","char":"A","transposition":-1,"order":["shifted","swapped"],"probe_pitches":[10,5,7,10,3,-2,5,7,3,0,3,7],"shifted_pitches":[10,5,7,10,3,-2,4,7,3,0,3,7],"swapped_pitches":[10,5,7,10,3,5,-2,7,3,0,3,7],"shift_direction":-1,"question_num":81,"has_decoy":false},{"rt":2744.599999964237,"stimulus":"[A] option 1, [L] option 2, [G] neither","key_press":76,"name":"choice","trial_type":"html-keyboard-response","trial_index":109,"time_elapsed":229736,"internal_node_id":"0.0-109.0","subject":"S1C1208","sona":"41404","block":3,"time":"2021-09-07T03:37:24.536Z","response":"2nd","certainty":"high","char":"L","transposition":2,"order":["swapped","shifted"],"probe_pitches":[3,7,2,-2,2,7,5,8,0,2,-1,2],"shifted_pitches":[3,7,2,-2,2,7,6,8,0,2,-1,2],"swapped_pitches":[3,7,2,-2,2,5,7,8,0,2,-1,2],"shift_direction":1,"question_num":91,"has_decoy":false},{"rt":1482.9000000357628,"stimulus":"[A] option 1, [L] option 2, [G] neither","key_press":65,"name":"choice","trial_type":"html-keyboard-response","trial_index":120,"time_elapsed":250512,"internal_node_id":"0.0-120.0","subject":"S1C1208","sona":"41404","block":3,"time":"2021-09-07T03:37:24.536Z","response":"1st","certainty":"high","char":"A","transposition":-3,"order":["shifted","swapped"],"probe_pitches":[9,3,6,1,7,6,4,1,-1,-2,-3,9],"shifted_pitches":[9,3,6,1,7,5,4,1,-1,-2,-3,9],"swapped_pitches":[9,3,6,1,7,4,6,1,-1,-2,-3,9],"shift_direction":-1,"question_num":101,"has_decoy":false},{"rt":5966.200000047684,"stimulus":"[A] option 1, [L] option 2, [G] neither","key_press":65,"name":"choice","trial_type":"html-keyboard-response","trial_index":131,"time_elapsed":277230,"internal_node_id":"0.0-131.0","subject":"S1C1208","sona":"41404","block":3,"time":"2021-09-07T03:37:24.536Z","response":"1st","certainty":"high","char":"A","transposition":3,"order":["shifted","swapped"],"probe_pitches":[1,0,4,9,6,8,-2,6,5,-2,-3,8],"shifted_pitches":[1,0,4,9,6,8,-1,6,5,-2,-3,8],"swapped_pitches":[1,0,4,9,6,-2,8,6,5,-2,-3,8],"shift_direction":1,"question_num":111,"has_decoy":false},{"rt":5800.699999988079,"stimulus":"[A] option 1, [L] option 2, [G] neither","key_press":65,"name":"choice","trial_type":"html-keyboard-response","trial_index":142,"time_elapsed":306194,"internal_node_id":"0.0-142.0","subject":"S1C1208","sona":"41404","block":3,"time":"2021-09-07T03:37:24.536Z","response":"1st","certainty":"high","char":"A","transposition":-3,"order":["shifted","swapped"],"probe_pitches":[1,0,-2,6,9,8,5,-1,-2,5,-3,8],"shifted_pitches":[1,0,-2,6,9,7,5,-1,-2,5,-3,8],"swapped_pitches":[1,0,-2,6,9,5,8,-1,-2,5,-3,8],"shift_direction":-1,"question_num":121,"has_decoy":false},{"rt":6367.600000023842,"stimulus":"[A] option 1, [L] option 2, [G] neither","key_press":76,"name":"choice","trial_type":"html-keyboard-response","trial_index":153,"time_elapsed":332004,"internal_node_id":"0.0-153.0","subject":"S1C1208","sona":"41404","block":3,"time":"2021-09-07T03:37:24.536Z","response":"2nd","certainty":"high","char":"L","transposition":-1,"order":["swapped","shifted"],"probe_pitches":[1,3,1,5,8,1,10,-2,10,5,1,5],"shifted_pitches":[1,3,1,5,8,0,10,-2,10,5,1,5],"swapped_pitches":[1,3,1,5,8,10,1,-2,10,5,1,5],"shift_direction":-1,"question_num":131,"has_decoy":false},{"rt":1334.6000000238419,"stimulus":"[A] option 1, [L] option 2, [G] neither","key_press":76,"name":"choice","trial_type":"html-keyboard-response","trial_index":164,"time_elapsed":352400,"internal_node_id":"0.0-164.0","subject":"S1C1208","sona":"41404","block":3,"time":"2021-09-07T03:37:24.536Z","response":"2nd","certainty":"high","char":"L","transposition":3,"order":["swapped","shifted"],"probe_pitches":[3,5,3,0,8,-2,3,0,3,8,-2,10],"shifted_pitches":[3,5,3,0,8,-1,3,0,3,8,-2,10],"swapped_pitches":[3,5,3,0,8,3,-2,0,3,8,-2,10],"shift_direction":1,"question_num":141,"has_decoy":false},{"rt":2182.5,"stimulus":"[A] option 1, [L] option 2, [G] neither","key_press":65,"name":"choice","trial_type":"html-keyboard-response","trial_index":175,"time_elapsed":375568,"internal_node_id":"0.0-175.0","subject":"S1C1208","sona":"41404","block":3,"time":"2021-09-07T03:37:24.536Z","response":"1st","certainty":"high","char":"A","transposition":2,"order":["swapped","shifted"],"probe_pitches":[5,0,5,7,-2,2,7,-2,0,2,10,5],"shifted_pitches":[5,0,5,7,-2,2,8,-2,0,2,10,5],"swapped_pitches":[5,0,5,7,-2,7,2,-2,0,2,10,5],"shift_direction":1,"question_num":151,"has_decoy":false},{"rt":932,"stimulus":"[A] option 1, [L] option 2, [G] neither","key_press":65,"name":"choice","trial_type":"html-keyboard-response","trial_index":186,"time_elapsed":395335,"internal_node_id":"0.0-186.0","subject":"S1C1208","sona":"41404","block":3,"time":"2021-09-07T03:37:24.536Z","response":"1st","certainty":"high","char":"A","transposition":-3,"order":["shifted","swapped"],"probe_pitches":[2,0,5,7,-2,7,0,2,-2,7,0,2],"shifted_pitches":[2,0,5,7,-2,8,0,2,-2,7,0,2],"swapped_pitches":[2,0,5,7,-2,0,7,2,-2,7,0,2],"shift_direction":1,"question_num":161,"has_decoy":false},{"rt":1532.5999999642372,"stimulus":"[A] option 1, [L] option 2, [G] neither","key_press":76,"name":"choice","trial_type":"html-keyboard-response","trial_index":197,"time_elapsed":415366,"internal_node_id":"0.0-197.0","subject":"S1C1208","sona":"41404","block":3,"time":"2021-09-07T03:37:24.536Z","response":"2nd","certainty":"high","char":"L","transposition":-2,"order":["swapped","shifted"],"probe_pitches":[4,-2,4,2,5,0,4,7,4,8,2,-2],"shifted_pitches":[4,-2,4,2,5,0,3,7,4,8,2,-2],"swapped_pitches":[4,-2,4,2,5,4,0,7,4,8,2,-2],"shift_direction":-1,"question_num":171,"has_decoy":false},{"rt":1765.4000000357628,"stimulus":"[A] option 1, [L] option 2, [G] neither","key_press":65,"name":"choice","trial_type":"html-keyboard-response","trial_index":208,"time_elapsed":437374,"internal_node_id":"0.0-208.0","subject":"S1C1208","sona":"41404","block":3,"time":"2021-09-07T03:37:24.536Z","response":"1st","certainty":"high","char":"A","transposition":1,"order":["shifted","swapped"],"probe_pitches":[8,3,-2,6,1,6,3,1,6,8,6,3],"shifted_pitches":[8,3,-2,6,1,6,2,1,6,8,6,3],"swapped_pitches":[8,3,-2,6,1,3,6,1,6,8,6,3],"shift_direction":-1,"question_num":181,"has_decoy":false},{"rt":1212.5,"stimulus":"[A] option 1, [L] option 2, [G] neither","key_press":76,"name":"choice","trial_type":"html-keyboard-response","trial_index":219,"time_elapsed":457355,"internal_node_id":"0.0-219.0","subject":"S1C1208","sona":"41404","block":3,"time":"2021-09-07T03:37:24.536Z","response":"2nd","certainty":"high","char":"L","transposition":0,"order":["swapped","shifted"],"probe_pitches":[7,4,9,3,8,-1,0,3,8,0,-1,-2],"shifted_pitches":[7,4,9,3,8,-1,1,3,8,0,-1,-2],"swapped_pitches":[7,4,9,3,8,0,-1,3,8,0,-1,-2],"shift_direction":1,"question_num":191,"has_decoy":false}]