[{"rt":6358.800000011921,"stimulus":"[A] option 1, [L] option 2, [G] neither","key_press":76,"name":"choice","trial_type":"html-keyboard-response","trial_index":15,"time_elapsed":92109,"internal_node_id":"0.0-15.0","response":"2nd","certainty":"high","char":"L","transposition":-3,"order":["shifted","swapped"],"probe_pitches":[4,10,4,11,4,0,5,9,3,7,4,0],"shifted_pitches":[4,10,4,11,4,0,6,9,3,7,4,0],"swapped_pitches":[4,10,4,11,4,5,0,9,3,7,4,0],"shift_direction":1,"question_num":1,"has_decoy":false,"subject":"S1C1208","sona":"41404","block":1,"time":"2021-09-07T03:20:09.899Z"},{"rt":2702.199999988079,"stimulus":"[A] option 1, [L] option 2, [G] neither","key_press":65,"name":"choice","trial_type":"html-keyboard-response","trial_index":26,"time_elapsed":118582,"internal_node_id":"0.0-26.0","response":"1st","certainty":"high","char":"A","transposition":-1,"order":["swapped","shifted"],"probe_pitches":[0,5,7,-1,3,1,0,9,6,4,3,6],"shifted_pitches":[0,5,7,-1,3,2,0,9,6,4,3,6],"swapped_pitches":[0,5,7,-1,3,0,1,9,6,4,3,6],"shift_direction":1,"question_num":11,"has_decoy":false,"subject":"S1C1208","sona":"41404","block":1,"time":"2021-09-07T03:20:09.899Z"},{"rt":2734.199999988079,"stimulus":"[A] option 1, [L] option 2, [G] neither","key_press":76,"name":"choice","trial_type":"html-keyboard-response","trial_index":37,"time_elapsed":142027,"internal_node_id":"0.0-37.0","response":"2nd","certainty":"high","char":"L","transposition":-2,"order":["swapped","shifted"],"probe_pitches":[2,6,4,2,-1,2,-3,6,2,-1,2,-3],"shifted_pitches":[2,6,4,2,-1,2,-2,6,2,-1,2,-3],"swapped_pitches":[2,6,4,2,-1,-3,2,6,2,-1,2,-3],"shift_direction":1,"question_num":21,"has_decoy":false,"subject":"S1C1208","sona":"41404","block":1,"time":"2021-09-07T03:20:09.899Z"},{"rt":1033.1000000238419,"stimulus":"[A] option 1, [L] option 2, [G] neither","key_press":65,"name":"choice","trial_type":"html-keyboard-response","trial_index":48,"time_elapsed":162843,"internal_node_id":"0.0-48.0","response":"1st","certainty":"high","char":"A","transposition":-1,"order":["shifted","swapped"],"probe_pitches":[9,7,0,2,4,-3,0,4,9,-3,2,-3],"shifted_pitches":[9,7,0,2,4,-4,0,4,9,-3,2,-3],"swapped_pitches":[9,7,0,2,4,0,-3,4,9,-3,2,-3],"shift_direction":-1,"question_num":31,"has_decoy":false,"subject":"S1C1208","sona":"41404","block":1,"time":"2021-09-07T03:20:09.899Z"},{"rt":911.1999999880791,"stimulus":"[A] option 1, [L] option 2, [G] neither","key_press":76,"name":"choice","trial_type":"html-keyboard-response","trial_index":59,"time_elapsed":185497,"internal_node_id":"0.0-59.0","response":"2nd","certainty":"high","char":"L","transposition":0,"order":["swapped","shifted"],"probe_pitches":[7,2,7,4,-3,-1,2,-3,7,9,4,-1],"shifted_pitches":[7,2,7,4,-3,0,2,-3,7,9,4,-1],"swapped_pitches":[7,2,7,4,-3,2,-1,-3,7,9,4,-1],"shift_direction":1,"question_num":41,"has_decoy":false,"subject":"S1C1208","sona":"41404","block":1,"time":"2021-09-07T03:20:09.899Z"},{"rt":1924.4000000357628,"stimulus":"[A] option 1, [L] option 2, [G] neither","key_press":65,"name":"choice","trial_type":"html-keyboard-response","trial_index":70,"time_elapsed":207064,"internal_node_id":"0.0-70.0","response":"1st","certainty":"high","char":"A","transposition":-3,"order":["swapped","shifted"],"probe_pitches":[7,9,2,5,9,2,0,5,7,9,5,2],"shifted_pitches":[7,9,2,5,9,2,-1,5,7,9,5,2],"swapped_pitches":[7,9,2,5,9,0,2,5,7,9,5,2],"shift_direction":-1,"question_num":51,"has_decoy":false,"subject":"S1C1208","sona":"41404","block":1,"time":"2021-09-07T03:20:09.899Z"},{"rt":516.4000000357628,"stimulus":"[A] option 1, [L] option 2, [G] neither","key_press":76,"name":"choice","trial_type":"html-keyboard-response","trial_index":81,"time_elapsed":227529,"internal_node_id":"0.0-81.0","response":"2nd","certainty":"high","char":"L","transposition":2,"order":["shifted","swapped"],"probe_pitches":[6,10,6,5,9,6,8,5,4,2,11,0],"shifted_pitches":[6,10,6,5,9,6,7,5,4,2,11,0],"swapped_pitches":[6,10,6,5,9,8,6,5,4,2,11,0],"shift_direction":-1,"question_num":61,"has_decoy":false,"subject":"S1C1208","sona":"41404","block":1,"time":"2021-09-07T03:20:09.899Z"},{"rt":942.1999999880791,"stimulus":"[A] option 1, [L] option 2, [G] neither","key_press":65,"name":"choice","trial_type":"html-keyboard-response","trial_index":92,"time_elapsed":248151,"internal_node_id":"0.0-92.0","response":"1st","certainty":"high","char":"A","transposition":-2,"order":["swapped","shifted"],"probe_pitches":[8,4,10,4,7,8,2,11,-1,10,8,6],"shifted_pitches":[8,4,10,4,7,8,1,11,-1,10,8,6],"swapped_pitches":[8,4,10,4,7,2,8,11,-1,10,8,6],"shift_direction":-1,"question_num":71,"has_decoy":false,"subject":"S1C1208","sona":"41404","block":1,"time":"2021-09-07T03:20:09.899Z"},{"rt":2221.699999988079,"stimulus":"[A] option 1, [L] option 2, [G] neither","key_press":65,"name":"choice","trial_type":"html-keyboard-response","trial_index":103,"time_elapsed":269819,"internal_node_id":"0.0-103.0","response":"1st","certainty":"high","char":"A","transposition":-2,"order":["shifted","swapped"],"probe_pitches":[0,1,7,1,9,8,5,6,5,9,-1,9],"shifted_pitches":[0,1,7,1,9,8,4,6,5,9,-1,9],"swapped_pitches":[0,1,7,1,9,5,8,6,5,9,-1,9],"shift_direction":-1,"question_num":81,"has_decoy":false,"subject":"S1C1208","sona":"41404","block":1,"time":"2021-09-07T03:20:09.899Z"},{"rt":355.5,"stimulus":"[A] option 1, [L] option 2, [G] neither","key_press":76,"name":"choice","trial_type":"html-keyboard-response","trial_index":114,"time_elapsed":289393,"internal_node_id":"0.0-114.0","response":"2nd","certainty":"high","char":"L","transposition":1,"order":["swapped","shifted"],"probe_pitches":[3,8,9,1,2,9,5,2,7,9,0,8],"shifted_pitches":[3,8,9,1,2,10,5,2,7,9,0,8],"swapped_pitches":[3,8,9,1,2,5,9,2,7,9,0,8],"shift_direction":1,"question_num":91,"has_decoy":false,"subject":"S1C1208","sona":"41404","block":1,"time":"2021-09-07T03:20:09.899Z"},{"rt":1393.1000000238419,"stimulus":"[A] option 1, [L] option 2, [G] neither","key_press":76,"name":"choice","trial_type":"html-keyboard-response","trial_index":125,"time_elapsed":309882,"internal_node_id":"0.0-125.0","response":"2nd","certainty":"high","char":"L","transposition":3,"order":["shifted","swapped"],"probe_pitches":[0,6,7,2,3,4,-1,11,7,-1,7,11],"shifted_pitches":[0,6,7,2,3,5,-1,11,7,-1,7,11],"swapped_pitches":[0,6,7,2,3,-1,4,11,7,-1,7,11],"shift_direction":1,"question_num":101,"has_decoy":false,"subject":"S1C1208","sona":"41404","block":1,"time":"2021-09-07T03:20:09.899Z"},{"rt":4780.100000023842,"stimulus":"[A] option 1, [L] option 2, [G] neither","key_press":76,"name":"choice","trial_type":"html-keyboard-response","trial_index":136,"time_elapsed":334922,"internal_node_id":"0.0-136.0","response":"2nd","certainty":"high","char":"L","transposition":-1,"order":["swapped","shifted"],"probe_pitches":[9,4,2,-3,4,2,-3,9,-1,7,2,-1],"shifted_pitches":[9,4,2,-3,4,2,-4,9,-1,7,2,-1],"swapped_pitches":[9,4,2,-3,4,-3,2,9,-1,7,2,-1],"shift_direction":-1,"question_num":111,"has_decoy":false,"subject":"S1C1208","sona":"41404","block":1,"time":"2021-09-07T03:20:09.899Z"},{"rt":391.10000002384186,"stimulus":"[A] option 1, [L] option 2, [G] neither","key_press":65,"name":"choice","trial_type":"html-keyboard-response","trial_index":147,"time_elapsed":355076,"internal_node_id":"0.0-147.0","response":"1st","certainty":"high","char":"A","transposition":2,"order":["shifted","swapped"],"probe_pitches":[9,4,-1,1,6,-3,1,4,6,-3,4,-1],"shifted_pitches":[9,4,-1,1,6,-4,1,4,6,-3,4,-1],"swapped_pitches":[9,4,-1,1,6,1,-3,4,6,-3,4,-1],"shift_direction":-1,"question_num":121,"has_decoy":false,"subject":"S1C1208","sona":"41404","block":1,"time":"2021-09-07T03:20:09.899Z"},{"rt":1785,"stimulus":"[A] option 1, [L] option 2, [G] neither","key_press":65,"name":"choice","trial_type":"html-keyboard-response","trial_index":158,"time_elapsed":375819,"internal_node_id":"0.0-158.0","response":"1st","certainty":"high","char":"A","transposition":-2,"order":["swapped","shifted"],"probe_pitches":[9,7,4,0,2,7,4,-3,0,2,-3,7],"shifted_pitches":[9,7,4,0,2,8,4,-3,0,2,-3,7],"swapped_pitches":[9,7,4,0,2,4,7,-3,0,2,-3,7],"shift_direction":1,"question_num":131,"has_decoy":false,"subject":"S1C1208","sona":"41404","block":1,"time":"2021-09-07T03:20:09.899Z"},{"rt":319,"stimulus":"[A] option 1, [L] option 2, [G] neither","key_press":65,"name":"choice","trial_type":"html-keyboard-response","trial_index":169,"time_elapsed":395153,"internal_node_id":"0.0-169.0","response":"1st","certainty":"high","char":"A","transposition":0,"order":["shifted","swapped"],"probe_pitches":[1,-1,6,5,-1,2,1,6,-1,9,11,7],"shifted_pitches":[1,-1,6,5,-1,3,1,6,-1,9,11,7],"swapped_pitches":[1,-1,6,5,-1,1,2,6,-1,9,11,7],"shift_direction":1,"question_num":141,"has_decoy":false,"subject":"S1C1208","sona":"41404","block":1,"time":"2021-09-07T03:20:09.899Z"},{"rt":652.1000000238419,"stimulus":"[A] option 1, [L] option 2, [G] neither","key_press":76,"name":"choice","trial_type":"html-keyboard-response","trial_index":180,"time_elapsed":415220,"internal_node_id":"0.0-180.0","response":"2nd","certainty":"high","char":"L","transposition":1,"order":["shifted","swapped"],"probe_pitches":[5,2,5,0,2,0,9,2,0,2,5,7],"shifted_pitches":[5,2,5,0,2,1,9,2,0,2,5,7],"swapped_pitches":[5,2,5,0,2,9,0,2,0,2,5,7],"shift_direction":1,"question_num":151,"has_decoy":false,"subject":"S1C1208","sona":"41404","block":1,"time":"2021-09-07T03:20:09.899Z"},{"rt":3568.300000011921,"stimulus":"[A] option 1, [L] option 2, [G] neither","key_press":76,"name":"choice","trial_type":"html-keyboard-response","trial_index":191,"time_elapsed":438301,"internal_node_id":"0.0-191.0","response":"2nd","certainty":"high","char":"L","transposition":-1,"order":["swapped","shifted"],"probe_pitches":[2,0,7,11,7,9,5,2,5,1,2,3],"shifted_pitches":[2,0,7,11,7,8,5,2,5,1,2,3],"swapped_pitches":[2,0,7,11,7,5,9,2,5,1,2,3],"shift_direction":-1,"question_num":161,"has_decoy":false,"subject":"S1C1208","sona":"41404","block":1,"time":"2021-09-07T03:20:09.899Z"},{"rt":261.10000002384186,"stimulus":"[A] option 1, [L] option 2, [G] neither","key_press":76,"name":"choice","trial_type":"html-keyboard-response","trial_index":202,"time_elapsed":457948,"internal_node_id":"0.0-202.0","response":"2nd","certainty":"high","char":"L","transposition":-3,"order":["swapped","shifted"],"probe_pitches":[11,6,2,10,4,7,10,5,3,-1,5,6],"shifted_pitches":[11,6,2,10,4,7,9,5,3,-1,5,6],"swapped_pitches":[11,6,2,10,4,10,7,5,3,-1,5,6],"shift_direction":-1,"question_num":171,"has_decoy":false,"subject":"S1C1208","sona":"41404","block":1,"time":"2021-09-07T03:20:09.899Z"},{"rt":3842.400000035763,"stimulus":"[A] option 1, [L] option 2, [G] neither","key_press":65,"name":"choice","trial_type":"html-keyboard-response","trial_index":213,"time_elapsed":480738,"internal_node_id":"0.0-213.0","response":"1st","certainty":"high","char":"A","transposition":-3,"order":["shifted","swapped"],"probe_pitches":[-3,-1,1,-1,4,6,9,-3,9,4,1,4],"shifted_pitches":[-3,-1,1,-1,4,6,10,-3,9,4,1,4],"swapped_pitches":[-3,-1,1,-1,4,9,6,-3,9,4,1,4],"shift_direction":1,"question_num":181,"has_decoy":false,"subject":"S1C1208","sona":"41404","block":1,"time":"2021-09-07T03:20:09.899Z"},{"rt":720.5999999642372,"stimulus":"[A] option 1, [L] option 2, [G] neither","key_press":76,"name":"choice","trial_type":"html-keyboard-response","trial_index":224,"time_elapsed":501160,"internal_node_id":"0.0-224.0","response":"2nd","certainty":"high","char":"L","transposition":3,"order":["shifted","swapped"],"probe_pitches":[-1,-3,4,6,9,4,-1,-3,6,9,2,6],"shifted_pitches":[-1,-3,4,6,9,4,-2,-3,6,9,2,6],"swapped_pitches":[-1,-3,4,6,9,-1,4,-3,6,9,2,6],"shift_direction":-1,"question_num":191,"has_decoy":false,"subject":"S1C1208","sona":"41404","block":1,"time":"2021-09-07T03:20:09.899Z"}]