[{"rt":530.6000000014901,"stimulus":"[A] option 1, [L] option 2, [G] neither","key_press":76,"name":"choice","trial_type":"html-keyboard-response","trial_index":10,"time_elapsed":22178,"internal_node_id":"0.0-10.0","subject":"S1C0805","sona":"40433","block":5,"time":"2021-09-06T00:24:06.806Z","response":"2nd","certainty":"high","char":"L","transposition":-2,"order":["shifted","swapped"],"probe_pitches":[9,15,12,11,6,4,13,5],"shifted_pitches":[9,15,12,10,6,4,13,5],"swapped_pitches":[9,15,12,6,11,4,13,5],"shift_direction":-1,"question_num":1,"has_decoy":false},{"rt":819.6999999955297,"stimulus":"[A] option 1, [L] option 2, [G] neither","key_press":65,"name":"choice","trial_type":"html-keyboard-response","trial_index":21,"time_elapsed":37647,"internal_node_id":"0.0-21.0","subject":"S1C0805","sona":"40433","block":5,"time":"2021-09-06T00:24:06.806Z","response":"1st","certainty":"high","char":"A","transposition":-3,"order":["swapped","shifted"],"probe_pitches":[5,3,9,8,10,5,12,11],"shifted_pitches":[5,3,9,7,10,5,12,11],"swapped_pitches":[5,3,9,10,8,5,12,11],"shift_direction":-1,"question_num":11,"has_decoy":false},{"rt":2914.6999999955297,"stimulus":"[A] option 1, [L] option 2, [G] neither","key_press":76,"name":"choice","trial_type":"html-keyboard-response","trial_index":32,"time_elapsed":55766,"internal_node_id":"0.0-32.0","subject":"S1C0805","sona":"40433","block":5,"time":"2021-09-06T00:24:06.806Z","response":"2nd","certainty":"high","char":"L","transposition":3,"order":["shifted","swapped"],"probe_pitches":[10,4,7,13,10,14,5,13],"shifted_pitches":[10,4,7,13,9,14,5,13],"swapped_pitches":[10,4,7,10,13,14,5,13],"shift_direction":-1,"question_num":21,"has_decoy":false},{"rt":1206.1999999955297,"stimulus":"[A] option 1, [L] option 2, [G] neither","key_press":76,"name":"choice","trial_type":"html-keyboard-response","trial_index":43,"time_elapsed":72216,"internal_node_id":"0.0-43.0","subject":"S1C0805","sona":"40433","block":5,"time":"2021-09-06T00:24:06.806Z","response":"2nd","certainty":"high","char":"L","transposition":-3,"order":["shifted","swapped"],"probe_pitches":[4,3,5,13,11,7,8,9],"shifted_pitches":[4,3,5,13,12,7,8,9],"swapped_pitches":[4,3,5,11,13,7,8,9],"shift_direction":1,"question_num":31,"has_decoy":false},{"rt":7061.39999999851,"stimulus":"[A] option 1, [L] option 2, [G] neither","key_press":65,"name":"choice","trial_type":"html-keyboard-response","trial_index":54,"time_elapsed":97533,"internal_node_id":"0.0-54.0","subject":"S1C0805","sona":"40433","block":5,"time":"2021-09-06T00:24:06.806Z","response":"1st","certainty":"high","char":"A","transposition":-1,"order":["swapped","shifted"],"probe_pitches":[11,7,5,9,12,11,8,11],"shifted_pitches":[11,7,5,9,13,11,8,11],"swapped_pitches":[11,7,5,12,9,11,8,11],"shift_direction":1,"question_num":41,"has_decoy":false},{"rt":3073.2000000029802,"stimulus":"[A] option 1, [L] option 2, [G] neither","key_press":65,"name":"choice","trial_type":"html-keyboard-response","trial_index":65,"time_elapsed":124825,"internal_node_id":"0.0-65.0","subject":"S1C0805","sona":"40433","block":5,"time":"2021-09-06T00:24:06.806Z","response":"1st","certainty":"high","char":"A","transposition":-1,"order":["swapped","shifted"],"probe_pitches":[12,7,4,8,3,6,9,8],"shifted_pitches":[12,7,4,8,2,6,9,8],"swapped_pitches":[12,7,4,3,8,6,9,8],"shift_direction":-1,"question_num":51,"has_decoy":false},{"rt":1638,"stimulus":"[A] option 1, [L] option 2, [G] neither","key_press":76,"name":"choice","trial_type":"html-keyboard-response","trial_index":76,"time_elapsed":149309,"internal_node_id":"0.0-76.0","subject":"S1C0805","sona":"40433","block":5,"time":"2021-09-06T00:24:06.806Z","response":"2nd","certainty":"high","char":"L","transposition":-1,"order":["swapped","shifted"],"probe_pitches":[9,7,2,4,-1,9,-1,2],"shifted_pitches":[9,7,2,3,-1,9,-1,2],"swapped_pitches":[9,7,2,-1,4,9,-1,2],"shift_direction":-1,"question_num":61,"has_decoy":false},{"rt":312.20000000298023,"stimulus":"[A] option 1, [L] option 2, [G] neither","key_press":65,"name":"choice","trial_type":"html-keyboard-response","trial_index":87,"time_elapsed":175525,"internal_node_id":"0.0-87.0","subject":"S1C0805","sona":"40433","block":5,"time":"2021-09-06T00:24:06.806Z","response":"1st","certainty":"high","char":"A","transposition":-2,"order":["swapped","shifted"],"probe_pitches":[2,7,9,5,0,7,5,7],"shifted_pitches":[2,7,9,4,0,7,5,7],"swapped_pitches":[2,7,9,0,5,7,5,7],"shift_direction":-1,"question_num":71,"has_decoy":false},{"rt":11224.10000000149,"stimulus":"[A] option 1, [L] option 2, [G] neither","key_press":76,"name":"choice","trial_type":"html-keyboard-response","trial_index":98,"time_elapsed":201105,"internal_node_id":"0.0-98.0","subject":"S1C0805","sona":"40433","block":5,"time":"2021-09-06T00:24:06.806Z","response":"2nd","certainty":"high","char":"L","transposition":-2,"order":["swapped","shifted"],"probe_pitches":[9,10,3,4,7,10,8,12],"shifted_pitches":[9,10,3,5,7,10,8,12],"swapped_pitches":[9,10,3,7,4,10,8,12],"shift_direction":1,"question_num":81,"has_decoy":false},{"rt":1586.8999999985099,"stimulus":"[A] option 1, [L] option 2, [G] neither","key_press":65,"name":"choice","trial_type":"html-keyboard-response","trial_index":109,"time_elapsed":221389,"internal_node_id":"0.0-109.0","subject":"S1C0805","sona":"40433","block":5,"time":"2021-09-06T00:24:06.806Z","response":"1st","certainty":"high","char":"A","transposition":2,"order":["swapped","shifted"],"probe_pitches":[6,2,9,4,-3,-1,6,-3],"shifted_pitches":[6,2,9,3,-3,-1,6,-3],"swapped_pitches":[6,2,9,-3,4,-1,6,-3],"shift_direction":-1,"question_num":91,"has_decoy":false},{"rt":1541.8999999985099,"stimulus":"[A] option 1, [L] option 2, [G] neither","key_press":76,"name":"choice","trial_type":"html-keyboard-response","trial_index":120,"time_elapsed":237094,"internal_node_id":"0.0-120.0","subject":"S1C0805","sona":"40433","block":5,"time":"2021-09-06T00:24:06.806Z","response":"2nd","certainty":"high","char":"L","transposition":-3,"order":["shifted","swapped"],"probe_pitches":[-1,-3,2,9,7,4,2,-1],"shifted_pitches":[-1,-3,2,9,8,4,2,-1],"swapped_pitches":[-1,-3,2,7,9,4,2,-1],"shift_direction":1,"question_num":101,"has_decoy":false},{"rt":4344.20000000298,"stimulus":"[A] option 1, [L] option 2, [G] neither","key_press":65,"name":"choice","trial_type":"html-keyboard-response","trial_index":131,"time_elapsed":257035,"internal_node_id":"0.0-131.0","subject":"S1C0805","sona":"40433","block":5,"time":"2021-09-06T00:24:06.806Z","response":"1st","certainty":"high","char":"A","transposition":-3,"order":["shifted","swapped"],"probe_pitches":[9,5,0,-3,2,5,2,7],"shifted_pitches":[9,5,0,-3,3,5,2,7],"swapped_pitches":[9,5,0,2,-3,5,2,7],"shift_direction":1,"question_num":111,"has_decoy":false},{"rt":3473.7000000029802,"stimulus":"[A] option 1, [L] option 2, [G] neither","key_press":76,"name":"choice","trial_type":"html-keyboard-response","trial_index":142,"time_elapsed":283434,"internal_node_id":"0.0-142.0","subject":"S1C0805","sona":"40433","block":5,"time":"2021-09-06T00:24:06.806Z","response":"2nd","certainty":"high","char":"L","transposition":-1,"order":["swapped","shifted"],"probe_pitches":[9,4,0,-3,4,2,7,2],"shifted_pitches":[9,4,0,-4,4,2,7,2],"swapped_pitches":[9,4,0,4,-3,2,7,2],"shift_direction":-1,"question_num":121,"has_decoy":false},{"rt":2864.2000000029802,"stimulus":"[A] option 1, [L] option 2, [G] neither","key_press":65,"name":"choice","trial_type":"html-keyboard-response","trial_index":153,"time_elapsed":308446,"internal_node_id":"0.0-153.0","subject":"S1C0805","sona":"40433","block":5,"time":"2021-09-06T00:24:06.806Z","response":"1st","certainty":"high","char":"A","transposition":-2,"order":["shifted","swapped"],"probe_pitches":[-1,1,-3,4,6,9,6,-1],"shifted_pitches":[-1,1,-3,3,6,9,6,-1],"swapped_pitches":[-1,1,-3,6,4,9,6,-1],"shift_direction":-1,"question_num":131,"has_decoy":false},{"rt":7206.10000000149,"stimulus":"[A] option 1, [L] option 2, [G] neither","key_press":76,"name":"choice","trial_type":"html-keyboard-response","trial_index":164,"time_elapsed":336659,"internal_node_id":"0.0-164.0","subject":"S1C0805","sona":"40433","block":5,"time":"2021-09-06T00:24:06.806Z","response":"2nd","certainty":"high","char":"L","transposition":3,"order":["shifted","swapped"],"probe_pitches":[9,7,2,9,4,2,9,0],"shifted_pitches":[9,7,2,9,5,2,9,0],"swapped_pitches":[9,7,2,4,9,2,9,0],"shift_direction":1,"question_num":141,"has_decoy":false},{"rt":2101.4000000059605,"stimulus":"[A] option 1, [L] option 2, [G] neither","key_press":65,"name":"choice","trial_type":"html-keyboard-response","trial_index":175,"time_elapsed":357422,"internal_node_id":"0.0-175.0","subject":"S1C0805","sona":"40433","block":5,"time":"2021-09-06T00:24:06.806Z","response":"1st","certainty":"high","char":"A","transposition":2,"order":["swapped","shifted"],"probe_pitches":[15,10,3,5,7,14,13,11],"shifted_pitches":[15,10,3,5,6,14,13,11],"swapped_pitches":[15,10,3,7,5,14,13,11],"shift_direction":-1,"question_num":151,"has_decoy":false},{"rt":1213.3999999985099,"stimulus":"[A] option 1, [L] option 2, [G] neither","key_press":76,"name":"choice","trial_type":"html-keyboard-response","trial_index":186,"time_elapsed":372846,"internal_node_id":"0.0-186.0","subject":"S1C0805","sona":"40433","block":5,"time":"2021-09-06T00:24:06.806Z","response":"2nd","certainty":"high","char":"L","transposition":1,"order":["shifted","swapped"],"probe_pitches":[11,5,10,7,5,6,10,13],"shifted_pitches":[11,5,10,8,5,6,10,13],"swapped_pitches":[11,5,10,5,7,6,10,13],"shift_direction":1,"question_num":161,"has_decoy":false},{"rt":2727.2999999970198,"stimulus":"[A] option 1, [L] option 2, [G] neither","key_press":65,"name":"choice","trial_type":"html-keyboard-response","trial_index":197,"time_elapsed":398189,"internal_node_id":"0.0-197.0","subject":"S1C0805","sona":"40433","block":5,"time":"2021-09-06T00:24:06.806Z","response":"1st","certainty":"high","char":"A","transposition":1,"order":["shifted","swapped"],"probe_pitches":[-1,-3,4,-3,-1,2,6,9],"shifted_pitches":[-1,-3,4,-3,0,2,6,9],"swapped_pitches":[-1,-3,4,-1,-3,2,6,9],"shift_direction":1,"question_num":171,"has_decoy":false},{"rt":3859,"stimulus":"[A] option 1, [L] option 2, [G] neither","key_press":65,"name":"choice","trial_type":"html-keyboard-response","trial_index":208,"time_elapsed":431000,"internal_node_id":"0.0-208.0","subject":"S1C0805","sona":"40433","block":5,"time":"2021-09-06T00:24:06.806Z","response":"1st","certainty":"high","char":"A","transposition":0,"order":["swapped","shifted"],"probe_pitches":[-1,4,1,4,6,1,-3,4],"shifted_pitches":[-1,4,1,4,7,1,-3,4],"swapped_pitches":[-1,4,1,6,4,1,-3,4],"shift_direction":1,"question_num":181,"has_decoy":false},{"rt":3071.1999999955297,"stimulus":"[A] option 1, [L] option 2, [G] neither","key_press":76,"name":"choice","trial_type":"html-keyboard-response","trial_index":219,"time_elapsed":448283,"internal_node_id":"0.0-219.0","subject":"S1C0805","sona":"40433","block":5,"time":"2021-09-06T00:24:06.806Z","response":"2nd","certainty":"high","char":"L","transposition":0,"order":["shifted","swapped"],"probe_pitches":[3,8,12,10,5,7,13,6],"shifted_pitches":[3,8,12,11,5,7,13,6],"swapped_pitches":[3,8,12,5,10,7,13,6],"shift_direction":1,"question_num":191,"has_decoy":false}]