[{"rt":9251.30000000447,"stimulus":"[A] option 1, [L] option 2, [G] neither","key_press":76,"name":"choice","trial_type":"html-keyboard-response","trial_index":15,"time_elapsed":55569,"internal_node_id":"0.0-15.0","response":"2nd","certainty":"high","char":"L","transposition":1,"order":["shifted","swapped"],"probe_pitches":[3,0,-1,1,8,-1,-2,2],"shifted_pitches":[3,0,-1,1,9,-1,-2,2],"swapped_pitches":[3,0,-1,8,1,-1,-2,2],"shift_direction":1,"question_num":1,"has_decoy":false,"subject":"S1C0805","sona":"40433","block":1,"time":"2021-09-05T23:56:39.966Z"},{"rt":1566.3999999985099,"stimulus":"[A] option 1, [L] option 2, [G] neither","key_press":65,"name":"choice","trial_type":"html-keyboard-response","trial_index":26,"time_elapsed":72473,"internal_node_id":"0.0-26.0","response":"1st","certainty":"high","char":"A","transposition":2,"order":["swapped","shifted"],"probe_pitches":[0,4,7,6,1,4,8,1],"shifted_pitches":[0,4,7,6,2,4,8,1],"swapped_pitches":[0,4,7,1,6,4,8,1],"shift_direction":1,"question_num":11,"has_decoy":false,"subject":"S1C0805","sona":"40433","block":1,"time":"2021-09-05T23:56:39.966Z"},{"rt":805,"stimulus":"[A] option 1, [L] option 2, [G] neither","key_press":76,"name":"choice","trial_type":"html-keyboard-response","trial_index":37,"time_elapsed":88262,"internal_node_id":"0.0-37.0","response":"2nd","certainty":"high","char":"L","transposition":-1,"order":["shifted","swapped"],"probe_pitches":[9,10,9,3,6,-1,6,5],"shifted_pitches":[9,10,9,4,6,-1,6,5],"swapped_pitches":[9,10,9,6,3,-1,6,5],"shift_direction":1,"question_num":21,"has_decoy":false,"subject":"S1C0805","sona":"40433","block":1,"time":"2021-09-05T23:56:39.966Z"},{"rt":732.1999999955297,"stimulus":"[A] option 1, [L] option 2, [G] neither","key_press":76,"name":"choice","trial_type":"html-keyboard-response","trial_index":48,"time_elapsed":104969,"internal_node_id":"0.0-48.0","response":"2nd","certainty":"high","char":"L","transposition":0,"order":["swapped","shifted"],"probe_pitches":[7,3,-2,5,0,-2,5,10],"shifted_pitches":[7,3,-2,5,-1,-2,5,10],"swapped_pitches":[7,3,-2,0,5,-2,5,10],"shift_direction":-1,"question_num":31,"has_decoy":false,"subject":"S1C0805","sona":"40433","block":1,"time":"2021-09-05T23:56:39.966Z"},{"rt":5044.5999999940395,"stimulus":"[A] option 1, [L] option 2, [G] neither","key_press":76,"name":"choice","trial_type":"html-keyboard-response","trial_index":59,"time_elapsed":124993,"internal_node_id":"0.0-59.0","response":"2nd","certainty":"high","char":"L","transposition":3,"order":["shifted","swapped"],"probe_pitches":[5,0,-2,3,10,5,10,8],"shifted_pitches":[5,0,-2,3,9,5,10,8],"swapped_pitches":[5,0,-2,10,3,5,10,8],"shift_direction":-1,"question_num":41,"has_decoy":false,"subject":"S1C0805","sona":"40433","block":1,"time":"2021-09-05T23:56:39.966Z"},{"rt":898.1999999955297,"stimulus":"[A] option 1, [L] option 2, [G] neither","key_press":76,"name":"choice","trial_type":"html-keyboard-response","trial_index":70,"time_elapsed":140409,"internal_node_id":"0.0-70.0","response":"2nd","certainty":"high","char":"L","transposition":-3,"order":["shifted","swapped"],"probe_pitches":[6,0,5,9,4,0,5,-1],"shifted_pitches":[6,0,5,9,3,0,5,-1],"swapped_pitches":[6,0,5,4,9,0,5,-1],"shift_direction":-1,"question_num":51,"has_decoy":false,"subject":"S1C0805","sona":"40433","block":1,"time":"2021-09-05T23:56:39.966Z"},{"rt":779.5999999940395,"stimulus":"[A] option 1, [L] option 2, [G] neither","key_press":65,"name":"choice","trial_type":"html-keyboard-response","trial_index":81,"time_elapsed":155498,"internal_node_id":"0.0-81.0","response":"1st","certainty":"high","char":"A","transposition":2,"order":["shifted","swapped"],"probe_pitches":[10,8,10,3,1,10,5,10],"shifted_pitches":[10,8,10,3,2,10,5,10],"swapped_pitches":[10,8,10,1,3,10,5,10],"shift_direction":1,"question_num":61,"has_decoy":false,"subject":"S1C0805","sona":"40433","block":1,"time":"2021-09-05T23:56:39.966Z"},{"rt":748.8999999985099,"stimulus":"[A] option 1, [L] option 2, [G] neither","key_press":76,"name":"choice","trial_type":"html-keyboard-response","trial_index":92,"time_elapsed":170627,"internal_node_id":"0.0-92.0","response":"2nd","certainty":"high","char":"L","transposition":-3,"order":["swapped","shifted"],"probe_pitches":[-1,3,2,3,8,4,3,-2],"shifted_pitches":[-1,3,2,3,7,4,3,-2],"swapped_pitches":[-1,3,2,8,3,4,3,-2],"shift_direction":-1,"question_num":71,"has_decoy":false,"subject":"S1C0805","sona":"40433","block":1,"time":"2021-09-05T23:56:39.966Z"},{"rt":2109.7999999970198,"stimulus":"[A] option 1, [L] option 2, [G] neither","key_press":65,"name":"choice","trial_type":"html-keyboard-response","trial_index":103,"time_elapsed":187127,"internal_node_id":"0.0-103.0","response":"1st","certainty":"high","char":"A","transposition":-1,"order":["swapped","shifted"],"probe_pitches":[10,8,3,5,10,8,0,3],"shifted_pitches":[10,8,3,6,10,8,0,3],"swapped_pitches":[10,8,3,10,5,8,0,3],"shift_direction":1,"question_num":81,"has_decoy":false,"subject":"S1C0805","sona":"40433","block":1,"time":"2021-09-05T23:56:39.966Z"},{"rt":1275.3000000044703,"stimulus":"[A] option 1, [L] option 2, [G] neither","key_press":76,"name":"choice","trial_type":"html-keyboard-response","trial_index":114,"time_elapsed":202803,"internal_node_id":"0.0-114.0","response":"2nd","certainty":"high","char":"L","transposition":-1,"order":["shifted","swapped"],"probe_pitches":[0,5,7,2,10,7,-2,7],"shifted_pitches":[0,5,7,2,9,7,-2,7],"swapped_pitches":[0,5,7,10,2,7,-2,7],"shift_direction":-1,"question_num":91,"has_decoy":false,"subject":"S1C0805","sona":"40433","block":1,"time":"2021-09-05T23:56:39.966Z"},{"rt":900.5,"stimulus":"[A] option 1, [L] option 2, [G] neither","key_press":76,"name":"choice","trial_type":"html-keyboard-response","trial_index":125,"time_elapsed":218058,"internal_node_id":"0.0-125.0","response":"2nd","certainty":"high","char":"L","transposition":-2,"order":["swapped","shifted"],"probe_pitches":[10,6,1,-2,6,1,8,3],"shifted_pitches":[10,6,1,-3,6,1,8,3],"swapped_pitches":[10,6,1,6,-2,1,8,3],"shift_direction":-1,"question_num":101,"has_decoy":false,"subject":"S1C0805","sona":"40433","block":1,"time":"2021-09-05T23:56:39.966Z"},{"rt":1592.2999999970198,"stimulus":"[A] option 1, [L] option 2, [G] neither","key_press":65,"name":"choice","trial_type":"html-keyboard-response","trial_index":136,"time_elapsed":234019,"internal_node_id":"0.0-136.0","response":"1st","certainty":"high","char":"A","transposition":-3,"order":["swapped","shifted"],"probe_pitches":[2,-2,0,-2,2,10,7,5],"shifted_pitches":[2,-2,0,-1,2,10,7,5],"swapped_pitches":[2,-2,0,2,-2,10,7,5],"shift_direction":1,"question_num":111,"has_decoy":false,"subject":"S1C0805","sona":"40433","block":1,"time":"2021-09-05T23:56:39.966Z"},{"rt":1722.5,"stimulus":"[A] option 1, [L] option 2, [G] neither","key_press":65,"name":"choice","trial_type":"html-keyboard-response","trial_index":147,"time_elapsed":251420,"internal_node_id":"0.0-147.0","response":"1st","certainty":"high","char":"A","transposition":-2,"order":["swapped","shifted"],"probe_pitches":[5,3,-2,5,3,7,0,-2],"shifted_pitches":[5,3,-2,6,3,7,0,-2],"swapped_pitches":[5,3,-2,3,5,7,0,-2],"shift_direction":1,"question_num":121,"has_decoy":false,"subject":"S1C0805","sona":"40433","block":1,"time":"2021-09-05T23:56:39.966Z"},{"rt":1392.1000000014901,"stimulus":"[A] option 1, [L] option 2, [G] neither","key_press":65,"name":"choice","trial_type":"html-keyboard-response","trial_index":158,"time_elapsed":267140,"internal_node_id":"0.0-158.0","response":"1st","certainty":"high","char":"A","transposition":1,"order":["shifted","swapped"],"probe_pitches":[5,8,3,5,1,3,5,10],"shifted_pitches":[5,8,3,6,1,3,5,10],"swapped_pitches":[5,8,3,1,5,3,5,10],"shift_direction":1,"question_num":131,"has_decoy":false,"subject":"S1C0805","sona":"40433","block":1,"time":"2021-09-05T23:56:39.966Z"},{"rt":1800.8000000044703,"stimulus":"[A] option 1, [L] option 2, [G] neither","key_press":76,"name":"choice","trial_type":"html-keyboard-response","trial_index":169,"time_elapsed":283289,"internal_node_id":"0.0-169.0","response":"2nd","certainty":"high","char":"L","transposition":3,"order":["shifted","swapped"],"probe_pitches":[5,6,10,7,9,-1,7,5],"shifted_pitches":[5,6,10,7,8,-1,7,5],"swapped_pitches":[5,6,10,9,7,-1,7,5],"shift_direction":-1,"question_num":141,"has_decoy":false,"subject":"S1C0805","sona":"40433","block":1,"time":"2021-09-05T23:56:39.966Z"},{"rt":2197.39999999851,"stimulus":"[A] option 1, [L] option 2, [G] neither","key_press":65,"name":"choice","trial_type":"html-keyboard-response","trial_index":180,"time_elapsed":299965,"internal_node_id":"0.0-180.0","response":"1st","certainty":"high","char":"A","transposition":-2,"order":["swapped","shifted"],"probe_pitches":[4,0,6,0,9,2,6,7],"shifted_pitches":[4,0,6,1,9,2,6,7],"swapped_pitches":[4,0,6,9,0,2,6,7],"shift_direction":1,"question_num":151,"has_decoy":false,"subject":"S1C0805","sona":"40433","block":1,"time":"2021-09-05T23:56:39.966Z"},{"rt":375.59999999403954,"stimulus":"[A] option 1, [L] option 2, [G] neither","key_press":76,"name":"choice","trial_type":"html-keyboard-response","trial_index":191,"time_elapsed":315043,"internal_node_id":"0.0-191.0","response":"2nd","certainty":"high","char":"L","transposition":-2,"order":["swapped","shifted"],"probe_pitches":[3,9,8,5,-2,7,-1,-2],"shifted_pitches":[3,9,8,6,-2,7,-1,-2],"swapped_pitches":[3,9,8,-2,5,7,-1,-2],"shift_direction":1,"question_num":161,"has_decoy":false,"subject":"S1C0805","sona":"40433","block":1,"time":"2021-09-05T23:56:39.966Z"},{"rt":1583,"stimulus":"[A] option 1, [L] option 2, [G] neither","key_press":76,"name":"choice","trial_type":"html-keyboard-response","trial_index":202,"time_elapsed":330971,"internal_node_id":"0.0-202.0","response":"2nd","certainty":"high","char":"L","transposition":-3,"order":["shifted","swapped"],"probe_pitches":[1,-2,3,8,6,-2,1,8],"shifted_pitches":[1,-2,3,8,5,-2,1,8],"swapped_pitches":[1,-2,3,6,8,-2,1,8],"shift_direction":-1,"question_num":171,"has_decoy":false,"subject":"S1C0805","sona":"40433","block":1,"time":"2021-09-05T23:56:39.966Z"},{"rt":1195.6999999955297,"stimulus":"[A] option 1, [L] option 2, [G] neither","key_press":76,"name":"choice","trial_type":"html-keyboard-response","trial_index":213,"time_elapsed":346712,"internal_node_id":"0.0-213.0","response":"2nd","certainty":"high","char":"L","transposition":0,"order":["swapped","shifted"],"probe_pitches":[6,10,7,6,-2,2,4,0],"shifted_pitches":[6,10,7,5,-2,2,4,0],"swapped_pitches":[6,10,7,-2,6,2,4,0],"shift_direction":-1,"question_num":181,"has_decoy":false,"subject":"S1C0805","sona":"40433","block":1,"time":"2021-09-05T23:56:39.966Z"},{"rt":409.19999999552965,"stimulus":"[A] option 1, [L] option 2, [G] neither","key_press":76,"name":"choice","trial_type":"html-keyboard-response","trial_index":224,"time_elapsed":361747,"internal_node_id":"0.0-224.0","response":"2nd","certainty":"high","char":"L","transposition":-1,"order":["shifted","swapped"],"probe_pitches":[4,9,8,1,2,-1,7,5],"shifted_pitches":[4,9,8,0,2,-1,7,5],"swapped_pitches":[4,9,8,2,1,-1,7,5],"shift_direction":-1,"question_num":191,"has_decoy":false,"subject":"S1C0805","sona":"40433","block":1,"time":"2021-09-05T23:56:39.966Z"}]