[{"rt":3948.3000000044703,"stimulus":"[A] option 1, [L] option 2, [G] neither","key_press":76,"name":"choice","trial_type":"html-keyboard-response","trial_index":10,"time_elapsed":27475,"internal_node_id":"0.0-10.0","subject":"S1C0805","sona":"40433","block":4,"time":"2021-09-06T00:16:35.890Z","response":"2nd","certainty":"high","char":"L","transposition":-3,"order":["swapped","shifted"],"probe_pitches":[3,0,-2,0,5,10,8,5],"shifted_pitches":[3,0,-2,0,6,10,8,5],"swapped_pitches":[3,0,-2,5,0,10,8,5],"shift_direction":1,"question_num":1,"has_decoy":false},{"rt":1685.2999999970198,"stimulus":"[A] option 1, [L] option 2, [G] neither","key_press":76,"name":"choice","trial_type":"html-keyboard-response","trial_index":21,"time_elapsed":55261,"internal_node_id":"0.0-21.0","subject":"S1C0805","sona":"40433","block":4,"time":"2021-09-06T00:16:35.890Z","response":"2nd","certainty":"high","char":"L","transposition":-2,"order":["shifted","swapped"],"probe_pitches":[3,-2,0,3,8,5,8,-2],"shifted_pitches":[3,-2,0,3,7,5,8,-2],"swapped_pitches":[3,-2,0,8,3,5,8,-2],"shift_direction":-1,"question_num":11,"has_decoy":false},{"rt":9988.79999999702,"stimulus":"[A] option 1, [L] option 2, [G] neither","key_press":76,"name":"choice","trial_type":"html-keyboard-response","trial_index":32,"time_elapsed":85734,"internal_node_id":"0.0-32.0","subject":"S1C0805","sona":"40433","block":4,"time":"2021-09-06T00:16:35.890Z","response":"2nd","certainty":"high","char":"L","transposition":0,"order":["shifted","swapped"],"probe_pitches":[3,-2,1,6,-2,8,10,3],"shifted_pitches":[3,-2,1,5,-2,8,10,3],"swapped_pitches":[3,-2,1,-2,6,8,10,3],"shift_direction":-1,"question_num":21,"has_decoy":false},{"rt":2613.7000000029802,"stimulus":"[A] option 1, [L] option 2, [G] neither","key_press":76,"name":"choice","trial_type":"html-keyboard-response","trial_index":43,"time_elapsed":102578,"internal_node_id":"0.0-43.0","subject":"S1C0805","sona":"40433","block":4,"time":"2021-09-06T00:16:35.890Z","response":"2nd","certainty":"high","char":"L","transposition":-2,"order":["shifted","swapped"],"probe_pitches":[2,4,9,4,8,11,2,4],"shifted_pitches":[2,4,9,4,7,11,2,4],"swapped_pitches":[2,4,9,8,4,11,2,4],"shift_direction":-1,"question_num":31,"has_decoy":false},{"rt":11963.5,"stimulus":"[A] option 1, [L] option 2, [G] neither","key_press":76,"name":"choice","trial_type":"html-keyboard-response","trial_index":54,"time_elapsed":129530,"internal_node_id":"0.0-54.0","subject":"S1C0805","sona":"40433","block":4,"time":"2021-09-06T00:16:35.890Z","response":"2nd","certainty":"high","char":"L","transposition":2,"order":["swapped","shifted"],"probe_pitches":[12,7,4,9,3,13,14,2],"shifted_pitches":[12,7,4,10,3,13,14,2],"swapped_pitches":[12,7,4,3,9,13,14,2],"shift_direction":1,"question_num":41,"has_decoy":false},{"rt":14435.79999999702,"stimulus":"[A] option 1, [L] option 2, [G] neither","key_press":76,"name":"choice","trial_type":"html-keyboard-response","trial_index":65,"time_elapsed":158173,"internal_node_id":"0.0-65.0","subject":"S1C0805","sona":"40433","block":4,"time":"2021-09-06T00:16:35.890Z","response":"2nd","certainty":"high","char":"L","transposition":-1,"order":["shifted","swapped"],"probe_pitches":[14,8,4,12,6,3,7,13],"shifted_pitches":[14,8,4,11,6,3,7,13],"swapped_pitches":[14,8,4,6,12,3,7,13],"shift_direction":-1,"question_num":51,"has_decoy":false},{"rt":1037.7000000029802,"stimulus":"[A] option 1, [L] option 2, [G] neither","key_press":65,"name":"choice","trial_type":"html-keyboard-response","trial_index":76,"time_elapsed":177242,"internal_node_id":"0.0-76.0","subject":"S1C0805","sona":"40433","block":4,"time":"2021-09-06T00:16:35.890Z","response":"1st","certainty":"high","char":"A","transposition":0,"order":["shifted","swapped"],"probe_pitches":[11,8,2,8,5,13,8,3],"shifted_pitches":[11,8,2,8,6,13,8,3],"swapped_pitches":[11,8,2,5,8,13,8,3],"shift_direction":1,"question_num":61,"has_decoy":false},{"rt":3812.5999999940395,"stimulus":"[A] option 1, [L] option 2, [G] neither","key_press":65,"name":"choice","trial_type":"html-keyboard-response","trial_index":87,"time_elapsed":195379,"internal_node_id":"0.0-87.0","subject":"S1C0805","sona":"40433","block":4,"time":"2021-09-06T00:16:35.890Z","response":"1st","certainty":"high","char":"A","transposition":-1,"order":["shifted","swapped"],"probe_pitches":[7,10,8,10,6,4,7,14],"shifted_pitches":[7,10,8,10,5,4,7,14],"swapped_pitches":[7,10,8,6,10,4,7,14],"shift_direction":-1,"question_num":71,"has_decoy":false},{"rt":3157.5,"stimulus":"[A] option 1, [L] option 2, [G] neither","key_press":76,"name":"choice","trial_type":"html-keyboard-response","trial_index":98,"time_elapsed":217044,"internal_node_id":"0.0-98.0","subject":"S1C0805","sona":"40433","block":4,"time":"2021-09-06T00:16:35.890Z","response":"2nd","certainty":"high","char":"L","transposition":-3,"order":["swapped","shifted"],"probe_pitches":[8,7,8,13,4,9,8,4],"shifted_pitches":[8,7,8,12,4,9,8,4],"swapped_pitches":[8,7,8,4,13,9,8,4],"shift_direction":-1,"question_num":81,"has_decoy":false},{"rt":3632.39999999851,"stimulus":"[A] option 1, [L] option 2, [G] neither","key_press":76,"name":"choice","trial_type":"html-keyboard-response","trial_index":109,"time_elapsed":235315,"internal_node_id":"0.0-109.0","subject":"S1C0805","sona":"40433","block":4,"time":"2021-09-06T00:16:35.890Z","response":"2nd","certainty":"high","char":"L","transposition":-3,"order":["swapped","shifted"],"probe_pitches":[14,8,2,10,8,14,12,10],"shifted_pitches":[14,8,2,10,9,14,12,10],"swapped_pitches":[14,8,2,8,10,14,12,10],"shift_direction":1,"question_num":91,"has_decoy":false},{"rt":1274.3999999985099,"stimulus":"[A] option 1, [L] option 2, [G] neither","key_press":65,"name":"choice","trial_type":"html-keyboard-response","trial_index":120,"time_elapsed":251127,"internal_node_id":"0.0-120.0","subject":"S1C0805","sona":"40433","block":4,"time":"2021-09-06T00:16:35.890Z","response":"1st","certainty":"high","char":"A","transposition":3,"order":["swapped","shifted"],"probe_pitches":[5,4,11,12,14,7,6,12],"shifted_pitches":[5,4,11,13,14,7,6,12],"swapped_pitches":[5,4,11,14,12,7,6,12],"shift_direction":1,"question_num":101,"has_decoy":false},{"rt":3987.7000000029802,"stimulus":"[A] option 1, [L] option 2, [G] neither","key_press":76,"name":"choice","trial_type":"html-keyboard-response","trial_index":131,"time_elapsed":280209,"internal_node_id":"0.0-131.0","subject":"S1C0805","sona":"40433","block":4,"time":"2021-09-06T00:16:35.890Z","response":"2nd","certainty":"high","char":"L","transposition":2,"order":["shifted","swapped"],"probe_pitches":[10,5,10,7,2,5,10,0],"shifted_pitches":[10,5,10,6,2,5,10,0],"swapped_pitches":[10,5,10,2,7,5,10,0],"shift_direction":-1,"question_num":111,"has_decoy":false},{"rt":1561.4000000059605,"stimulus":"[A] option 1, [L] option 2, [G] neither","key_press":65,"name":"choice","trial_type":"html-keyboard-response","trial_index":142,"time_elapsed":296014,"internal_node_id":"0.0-142.0","subject":"S1C0805","sona":"40433","block":4,"time":"2021-09-06T00:16:35.890Z","response":"1st","certainty":"high","char":"A","transposition":-3,"order":["shifted","swapped"],"probe_pitches":[5,0,5,0,7,3,-2,5],"shifted_pitches":[5,0,5,1,7,3,-2,5],"swapped_pitches":[5,0,5,7,0,3,-2,5],"shift_direction":1,"question_num":121,"has_decoy":false},{"rt":322.20000000298023,"stimulus":"[A] option 1, [L] option 2, [G] neither","key_press":76,"name":"choice","trial_type":"html-keyboard-response","trial_index":153,"time_elapsed":310706,"internal_node_id":"0.0-153.0","subject":"S1C0805","sona":"40433","block":4,"time":"2021-09-06T00:16:35.890Z","response":"2nd","certainty":"high","char":"L","transposition":-1,"order":["swapped","shifted"],"probe_pitches":[8,10,3,10,1,-2,8,5],"shifted_pitches":[8,10,3,9,1,-2,8,5],"swapped_pitches":[8,10,3,1,10,-2,8,5],"shift_direction":-1,"question_num":131,"has_decoy":false},{"rt":6090.79999999702,"stimulus":"[A] option 1, [L] option 2, [G] neither","key_press":76,"name":"choice","trial_type":"html-keyboard-response","trial_index":164,"time_elapsed":331655,"internal_node_id":"0.0-164.0","subject":"S1C0805","sona":"40433","block":4,"time":"2021-09-06T00:16:35.890Z","response":"2nd","certainty":"high","char":"L","transposition":1,"order":["shifted","swapped"],"probe_pitches":[6,4,2,6,9,2,7,9],"shifted_pitches":[6,4,2,6,8,2,7,9],"swapped_pitches":[6,4,2,9,6,2,7,9],"shift_direction":-1,"question_num":141,"has_decoy":false},{"rt":3048.2000000029802,"stimulus":"[A] option 1, [L] option 2, [G] neither","key_press":76,"name":"choice","trial_type":"html-keyboard-response","trial_index":175,"time_elapsed":349022,"internal_node_id":"0.0-175.0","subject":"S1C0805","sona":"40433","block":4,"time":"2021-09-06T00:16:35.890Z","response":"2nd","certainty":"high","char":"L","transposition":1,"order":["shifted","swapped"],"probe_pitches":[10,5,1,3,8,1,-2,3],"shifted_pitches":[10,5,1,4,8,1,-2,3],"swapped_pitches":[10,5,1,8,3,1,-2,3],"shift_direction":1,"question_num":151,"has_decoy":false},{"rt":9680.70000000298,"stimulus":"[A] option 1, [L] option 2, [G] neither","key_press":76,"name":"choice","trial_type":"html-keyboard-response","trial_index":186,"time_elapsed":372928,"internal_node_id":"0.0-186.0","subject":"S1C0805","sona":"40433","block":4,"time":"2021-09-06T00:16:35.890Z","response":"2nd","certainty":"high","char":"L","transposition":-2,"order":["swapped","shifted"],"probe_pitches":[3,5,7,3,9,5,10,7],"shifted_pitches":[3,5,7,4,9,5,10,7],"swapped_pitches":[3,5,7,9,3,5,10,7],"shift_direction":1,"question_num":161,"has_decoy":false},{"rt":4037,"stimulus":"[A] option 1, [L] option 2, [G] neither","key_press":76,"name":"choice","trial_type":"html-keyboard-response","trial_index":197,"time_elapsed":391285,"internal_node_id":"0.0-197.0","subject":"S1C0805","sona":"40433","block":4,"time":"2021-09-06T00:16:35.890Z","response":"2nd","certainty":"high","char":"L","transposition":-2,"order":["swapped","shifted"],"probe_pitches":[3,6,10,6,-2,8,1,-2],"shifted_pitches":[3,6,10,6,-3,8,1,-2],"swapped_pitches":[3,6,10,-2,6,8,1,-2],"shift_direction":-1,"question_num":171,"has_decoy":false},{"rt":4376.5,"stimulus":"[A] option 1, [L] option 2, [G] neither","key_press":76,"name":"choice","trial_type":"html-keyboard-response","trial_index":208,"time_elapsed":410253,"internal_node_id":"0.0-208.0","subject":"S1C0805","sona":"40433","block":4,"time":"2021-09-06T00:16:35.890Z","response":"2nd","certainty":"high","char":"L","transposition":-1,"order":["swapped","shifted"],"probe_pitches":[2,7,5,0,-2,2,-2,0],"shifted_pitches":[2,7,5,0,-1,2,-2,0],"swapped_pitches":[2,7,5,-2,0,2,-2,0],"shift_direction":1,"question_num":181,"has_decoy":false},{"rt":1526.5,"stimulus":"[A] option 1, [L] option 2, [G] neither","key_press":76,"name":"choice","trial_type":"html-keyboard-response","trial_index":219,"time_elapsed":436160,"internal_node_id":"0.0-219.0","subject":"S1C0805","sona":"40433","block":4,"time":"2021-09-06T00:16:35.890Z","response":"2nd","certainty":"high","char":"L","transposition":3,"order":["swapped","shifted"],"probe_pitches":[5,0,3,10,7,5,10,7],"shifted_pitches":[5,0,3,10,8,5,10,7],"swapped_pitches":[5,0,3,7,10,5,10,7],"shift_direction":1,"question_num":191,"has_decoy":false}]