[{"rt":1890.7999999970198,"stimulus":"[A] option 1, [L] option 2, [G] neither","key_press":65,"name":"choice","trial_type":"html-keyboard-response","trial_index":10,"time_elapsed":18309,"internal_node_id":"0.0-10.0","subject":"S1C0805","sona":"40433","block":3,"time":"2021-09-06T00:09:16.923Z","response":"1st","certainty":"high","char":"A","transposition":-1,"order":["shifted","swapped"],"probe_pitches":[0,-2,-1,3,1,6,1,6],"shifted_pitches":[0,-2,-1,3,2,6,1,6],"swapped_pitches":[0,-2,-1,1,3,6,1,6],"shift_direction":1,"question_num":1,"has_decoy":false},{"rt":539.6000000014901,"stimulus":"[A] option 1, [L] option 2, [G] neither","key_press":76,"name":"choice","trial_type":"html-keyboard-response","trial_index":21,"time_elapsed":34271,"internal_node_id":"0.0-21.0","subject":"S1C0805","sona":"40433","block":3,"time":"2021-09-06T00:09:16.923Z","response":"2nd","certainty":"high","char":"L","transposition":-3,"order":["swapped","shifted"],"probe_pitches":[14,9,11,14,6,11,2,4],"shifted_pitches":[14,9,11,15,6,11,2,4],"swapped_pitches":[14,9,11,6,14,11,2,4],"shift_direction":1,"question_num":11,"has_decoy":false},{"rt":1759.6000000014901,"stimulus":"[A] option 1, [L] option 2, [G] neither","key_press":65,"name":"choice","trial_type":"html-keyboard-response","trial_index":32,"time_elapsed":50282,"internal_node_id":"0.0-32.0","subject":"S1C0805","sona":"40433","block":3,"time":"2021-09-06T00:09:16.923Z","response":"1st","certainty":"high","char":"A","transposition":0,"order":["swapped","shifted"],"probe_pitches":[-1,1,6,9,2,1,5,-2],"shifted_pitches":[-1,1,6,9,3,1,5,-2],"swapped_pitches":[-1,1,6,2,9,1,5,-2],"shift_direction":1,"question_num":21,"has_decoy":false},{"rt":736,"stimulus":"[A] option 1, [L] option 2, [G] neither","key_press":76,"name":"choice","trial_type":"html-keyboard-response","trial_index":43,"time_elapsed":66677,"internal_node_id":"0.0-43.0","subject":"S1C0805","sona":"40433","block":3,"time":"2021-09-06T00:09:16.923Z","response":"2nd","certainty":"high","char":"L","transposition":2,"order":["shifted","swapped"],"probe_pitches":[2,5,2,7,-1,3,9,1],"shifted_pitches":[2,5,2,8,-1,3,9,1],"swapped_pitches":[2,5,2,-1,7,3,9,1],"shift_direction":1,"question_num":31,"has_decoy":false},{"rt":2874.10000000149,"stimulus":"[A] option 1, [L] option 2, [G] neither","key_press":76,"name":"choice","trial_type":"html-keyboard-response","trial_index":54,"time_elapsed":84956,"internal_node_id":"0.0-54.0","subject":"S1C0805","sona":"40433","block":3,"time":"2021-09-06T00:09:16.923Z","response":"2nd","certainty":"high","char":"L","transposition":-3,"order":["swapped","shifted"],"probe_pitches":[4,-1,-2,4,0,9,6,1],"shifted_pitches":[4,-1,-2,5,0,9,6,1],"swapped_pitches":[4,-1,-2,0,4,9,6,1],"shift_direction":1,"question_num":41,"has_decoy":false},{"rt":1476,"stimulus":"[A] option 1, [L] option 2, [G] neither","key_press":76,"name":"choice","trial_type":"html-keyboard-response","trial_index":65,"time_elapsed":101178,"internal_node_id":"0.0-65.0","subject":"S1C0805","sona":"40433","block":3,"time":"2021-09-06T00:09:16.923Z","response":"2nd","certainty":"high","char":"L","transposition":-1,"order":["swapped","shifted"],"probe_pitches":[14,9,2,5,12,7,14,7],"shifted_pitches":[14,9,2,5,13,7,14,7],"swapped_pitches":[14,9,2,12,5,7,14,7],"shift_direction":1,"question_num":51,"has_decoy":false},{"rt":3232.2999999970198,"stimulus":"[A] option 1, [L] option 2, [G] neither","key_press":76,"name":"choice","trial_type":"html-keyboard-response","trial_index":76,"time_elapsed":118893,"internal_node_id":"0.0-76.0","subject":"S1C0805","sona":"40433","block":3,"time":"2021-09-06T00:09:16.923Z","response":"2nd","certainty":"high","char":"L","transposition":1,"order":["swapped","shifted"],"probe_pitches":[9,4,8,5,9,10,3,5],"shifted_pitches":[9,4,8,6,9,10,3,5],"swapped_pitches":[9,4,8,9,5,10,3,5],"shift_direction":1,"question_num":61,"has_decoy":false},{"rt":792.5,"stimulus":"[A] option 1, [L] option 2, [G] neither","key_press":76,"name":"choice","trial_type":"html-keyboard-response","trial_index":87,"time_elapsed":134685,"internal_node_id":"0.0-87.0","subject":"S1C0805","sona":"40433","block":3,"time":"2021-09-06T00:09:16.923Z","response":"2nd","certainty":"high","char":"L","transposition":3,"order":["swapped","shifted"],"probe_pitches":[12,14,7,2,5,10,7,12],"shifted_pitches":[12,14,7,2,4,10,7,12],"swapped_pitches":[12,14,7,5,2,10,7,12],"shift_direction":-1,"question_num":71,"has_decoy":false},{"rt":1206,"stimulus":"[A] option 1, [L] option 2, [G] neither","key_press":76,"name":"choice","trial_type":"html-keyboard-response","trial_index":98,"time_elapsed":150318,"internal_node_id":"0.0-98.0","subject":"S1C0805","sona":"40433","block":3,"time":"2021-09-06T00:09:16.923Z","response":"2nd","certainty":"high","char":"L","transposition":-1,"order":["shifted","swapped"],"probe_pitches":[4,7,14,11,9,4,7,11],"shifted_pitches":[4,7,14,10,9,4,7,11],"swapped_pitches":[4,7,14,9,11,4,7,11],"shift_direction":-1,"question_num":81,"has_decoy":false},{"rt":28361.39999999851,"stimulus":"[A] option 1, [L] option 2, [G] neither","key_press":76,"name":"choice","trial_type":"html-keyboard-response","trial_index":109,"time_elapsed":199362,"internal_node_id":"0.0-109.0","subject":"S1C0805","sona":"40433","block":3,"time":"2021-09-06T00:09:16.923Z","response":"2nd","certainty":"high","char":"L","transposition":-3,"order":["shifted","swapped"],"probe_pitches":[2,4,7,14,9,7,9,12],"shifted_pitches":[2,4,7,14,10,7,9,12],"swapped_pitches":[2,4,7,9,14,7,9,12],"shift_direction":1,"question_num":91,"has_decoy":false},{"rt":2087.3000000044703,"stimulus":"[A] option 1, [L] option 2, [G] neither","key_press":76,"name":"choice","trial_type":"html-keyboard-response","trial_index":120,"time_elapsed":215980,"internal_node_id":"0.0-120.0","subject":"S1C0805","sona":"40433","block":3,"time":"2021-09-06T00:09:16.923Z","response":"2nd","certainty":"high","char":"L","transposition":-2,"order":["shifted","swapped"],"probe_pitches":[6,9,3,1,4,7,4,3],"shifted_pitches":[6,9,3,0,4,7,4,3],"swapped_pitches":[6,9,3,4,1,7,4,3],"shift_direction":-1,"question_num":101,"has_decoy":false},{"rt":1734.8000000044703,"stimulus":"[A] option 1, [L] option 2, [G] neither","key_press":65,"name":"choice","trial_type":"html-keyboard-response","trial_index":131,"time_elapsed":231929,"internal_node_id":"0.0-131.0","subject":"S1C0805","sona":"40433","block":3,"time":"2021-09-06T00:09:16.923Z","response":"1st","certainty":"high","char":"A","transposition":-2,"order":["shifted","swapped"],"probe_pitches":[6,9,4,9,2,6,-1,3],"shifted_pitches":[6,9,4,9,1,6,-1,3],"swapped_pitches":[6,9,4,2,9,6,-1,3],"shift_direction":-1,"question_num":111,"has_decoy":false},{"rt":2218.3000000044703,"stimulus":"[A] option 1, [L] option 2, [G] neither","key_press":76,"name":"choice","trial_type":"html-keyboard-response","trial_index":142,"time_elapsed":248283,"internal_node_id":"0.0-142.0","subject":"S1C0805","sona":"40433","block":3,"time":"2021-09-06T00:09:16.923Z","response":"2nd","certainty":"high","char":"L","transposition":0,"order":["swapped","shifted"],"probe_pitches":[2,6,9,2,11,4,2,4],"shifted_pitches":[2,6,9,2,10,4,2,4],"swapped_pitches":[2,6,9,11,2,4,2,4],"shift_direction":-1,"question_num":121,"has_decoy":false},{"rt":5573.30000000447,"stimulus":"[A] option 1, [L] option 2, [G] neither","key_press":76,"name":"choice","trial_type":"html-keyboard-response","trial_index":153,"time_elapsed":271497,"internal_node_id":"0.0-153.0","subject":"S1C0805","sona":"40433","block":3,"time":"2021-09-06T00:09:16.923Z","response":"2nd","certainty":"high","char":"L","transposition":2,"order":["swapped","shifted"],"probe_pitches":[5,2,7,2,10,14,12,14],"shifted_pitches":[5,2,7,2,9,14,12,14],"swapped_pitches":[5,2,7,10,2,14,12,14],"shift_direction":-1,"question_num":131,"has_decoy":false},{"rt":1021.1999999955297,"stimulus":"[A] option 1, [L] option 2, [G] neither","key_press":65,"name":"choice","trial_type":"html-keyboard-response","trial_index":164,"time_elapsed":286655,"internal_node_id":"0.0-164.0","subject":"S1C0805","sona":"40433","block":3,"time":"2021-09-06T00:09:16.923Z","response":"1st","certainty":"high","char":"A","transposition":3,"order":["swapped","shifted"],"probe_pitches":[5,3,5,2,8,9,-1,3],"shifted_pitches":[5,3,5,2,7,9,-1,3],"swapped_pitches":[5,3,5,8,2,9,-1,3],"shift_direction":-1,"question_num":141,"has_decoy":false},{"rt":873.2000000029802,"stimulus":"[A] option 1, [L] option 2, [G] neither","key_press":76,"name":"choice","trial_type":"html-keyboard-response","trial_index":175,"time_elapsed":304927,"internal_node_id":"0.0-175.0","subject":"S1C0805","sona":"40433","block":3,"time":"2021-09-06T00:09:16.923Z","response":"2nd","certainty":"high","char":"L","transposition":-2,"order":["shifted","swapped"],"probe_pitches":[14,9,11,9,7,4,11,4],"shifted_pitches":[14,9,11,10,7,4,11,4],"swapped_pitches":[14,9,11,7,9,4,11,4],"shift_direction":1,"question_num":151,"has_decoy":false},{"rt":6389.79999999702,"stimulus":"[A] option 1, [L] option 2, [G] neither","key_press":76,"name":"choice","trial_type":"html-keyboard-response","trial_index":186,"time_elapsed":326261,"internal_node_id":"0.0-186.0","subject":"S1C0805","sona":"40433","block":3,"time":"2021-09-06T00:09:16.923Z","response":"2nd","certainty":"high","char":"L","transposition":-2,"order":["shifted","swapped"],"probe_pitches":[12,14,12,7,14,5,14,9],"shifted_pitches":[12,14,12,6,14,5,14,9],"swapped_pitches":[12,14,12,14,7,5,14,9],"shift_direction":-1,"question_num":161,"has_decoy":false},{"rt":2050,"stimulus":"[A] option 1, [L] option 2, [G] neither","key_press":65,"name":"choice","trial_type":"html-keyboard-response","trial_index":197,"time_elapsed":353752,"internal_node_id":"0.0-197.0","subject":"S1C0805","sona":"40433","block":3,"time":"2021-09-06T00:09:16.923Z","response":"1st","certainty":"high","char":"A","transposition":1,"order":["shifted","swapped"],"probe_pitches":[7,12,14,12,9,14,4,7],"shifted_pitches":[7,12,14,13,9,14,4,7],"swapped_pitches":[7,12,14,9,12,14,4,7],"shift_direction":1,"question_num":171,"has_decoy":false},{"rt":5952.80000000447,"stimulus":"[A] option 1, [L] option 2, [G] neither","key_press":65,"name":"choice","trial_type":"html-keyboard-response","trial_index":208,"time_elapsed":378125,"internal_node_id":"0.0-208.0","subject":"S1C0805","sona":"40433","block":3,"time":"2021-09-06T00:09:16.923Z","response":"1st","certainty":"high","char":"A","transposition":-1,"order":["shifted","swapped"],"probe_pitches":[-2,1,7,5,2,8,5,-1],"shifted_pitches":[-2,1,7,4,2,8,5,-1],"swapped_pitches":[-2,1,7,2,5,8,5,-1],"shift_direction":-1,"question_num":181,"has_decoy":false},{"rt":4924.69999999553,"stimulus":"[A] option 1, [L] option 2, [G] neither","key_press":76,"name":"choice","trial_type":"html-keyboard-response","trial_index":219,"time_elapsed":397467,"internal_node_id":"0.0-219.0","subject":"S1C0805","sona":"40433","block":3,"time":"2021-09-06T00:09:16.923Z","response":"2nd","certainty":"high","char":"L","transposition":-3,"order":["swapped","shifted"],"probe_pitches":[6,8,3,1,10,8,-1,0],"shifted_pitches":[6,8,3,1,9,8,-1,0],"swapped_pitches":[6,8,3,10,1,8,-1,0],"shift_direction":-1,"question_num":191,"has_decoy":false}]