[{"rt":4864.79999999702,"stimulus":"[A] option 1, [L] option 2, [G] neither","key_press":76,"name":"choice","trial_type":"html-keyboard-response","trial_index":10,"time_elapsed":42575,"internal_node_id":"0.0-10.0","subject":"S1C0805","sona":"40433","block":6,"time":"2021-09-06T00:32:24.642Z","response":"2nd","certainty":"high","char":"L","transposition":3,"order":["shifted","swapped"],"probe_pitches":[13,15,8,13,6,11,6,11],"shifted_pitches":[13,15,8,13,5,11,6,11],"swapped_pitches":[13,15,8,6,13,11,6,11],"shift_direction":-1,"question_num":1,"has_decoy":false},{"rt":1496.2999999970198,"stimulus":"[A] option 1, [L] option 2, [G] neither","key_press":65,"name":"choice","trial_type":"html-keyboard-response","trial_index":21,"time_elapsed":72836,"internal_node_id":"0.0-21.0","subject":"S1C0805","sona":"40433","block":6,"time":"2021-09-06T00:32:24.642Z","response":"1st","certainty":"high","char":"A","transposition":3,"order":["swapped","shifted"],"probe_pitches":[3,8,7,8,12,6,15,11],"shifted_pitches":[3,8,7,9,12,6,15,11],"swapped_pitches":[3,8,7,12,8,6,15,11],"shift_direction":1,"question_num":11,"has_decoy":false},{"rt":2703,"stimulus":"[A] option 1, [L] option 2, [G] neither","key_press":76,"name":"choice","trial_type":"html-keyboard-response","trial_index":32,"time_elapsed":97081,"internal_node_id":"0.0-32.0","subject":"S1C0805","sona":"40433","block":6,"time":"2021-09-06T00:32:24.642Z","response":"2nd","certainty":"high","char":"L","transposition":-3,"order":["shifted","swapped"],"probe_pitches":[5,10,15,12,8,5,10,15],"shifted_pitches":[5,10,15,12,7,5,10,15],"swapped_pitches":[5,10,15,8,12,5,10,15],"shift_direction":-1,"question_num":21,"has_decoy":false},{"rt":1338.5,"stimulus":"[A] option 1, [L] option 2, [G] neither","key_press":65,"name":"choice","trial_type":"html-keyboard-response","trial_index":43,"time_elapsed":113237,"internal_node_id":"0.0-43.0","subject":"S1C0805","sona":"40433","block":6,"time":"2021-09-06T00:32:24.642Z","response":"1st","certainty":"high","char":"A","transposition":1,"order":["swapped","shifted"],"probe_pitches":[7,5,9,7,11,3,8,7],"shifted_pitches":[7,5,9,7,12,3,8,7],"swapped_pitches":[7,5,9,11,7,3,8,7],"shift_direction":1,"question_num":31,"has_decoy":false},{"rt":4681.39999999851,"stimulus":"[A] option 1, [L] option 2, [G] neither","key_press":76,"name":"choice","trial_type":"html-keyboard-response","trial_index":54,"time_elapsed":132301,"internal_node_id":"0.0-54.0","subject":"S1C0805","sona":"40433","block":6,"time":"2021-09-06T00:32:24.642Z","response":"2nd","certainty":"high","char":"L","transposition":-2,"order":["swapped","shifted"],"probe_pitches":[7,5,3,6,9,11,8,13],"shifted_pitches":[7,5,3,6,10,11,8,13],"swapped_pitches":[7,5,3,9,6,11,8,13],"shift_direction":1,"question_num":41,"has_decoy":false},{"rt":1743.9000000059605,"stimulus":"[A] option 1, [L] option 2, [G] neither","key_press":65,"name":"choice","trial_type":"html-keyboard-response","trial_index":65,"time_elapsed":152611,"internal_node_id":"0.0-65.0","subject":"S1C0805","sona":"40433","block":6,"time":"2021-09-06T00:32:24.642Z","response":"1st","certainty":"high","char":"A","transposition":-1,"order":["shifted","swapped"],"probe_pitches":[15,10,7,10,15,12,7,5],"shifted_pitches":[15,10,7,11,15,12,7,5],"swapped_pitches":[15,10,7,15,10,12,7,5],"shift_direction":1,"question_num":51,"has_decoy":false},{"rt":2077.2999999970198,"stimulus":"[A] option 1, [L] option 2, [G] neither","key_press":76,"name":"choice","trial_type":"html-keyboard-response","trial_index":76,"time_elapsed":169055,"internal_node_id":"0.0-76.0","subject":"S1C0805","sona":"40433","block":6,"time":"2021-09-06T00:32:24.642Z","response":"2nd","certainty":"high","char":"L","transposition":-1,"order":["shifted","swapped"],"probe_pitches":[13,15,11,8,15,6,11,15],"shifted_pitches":[13,15,11,9,15,6,11,15],"swapped_pitches":[13,15,11,15,8,6,11,15],"shift_direction":1,"question_num":61,"has_decoy":false},{"rt":2316.2000000029802,"stimulus":"[A] option 1, [L] option 2, [G] neither","key_press":76,"name":"choice","trial_type":"html-keyboard-response","trial_index":87,"time_elapsed":185644,"internal_node_id":"0.0-87.0","subject":"S1C0805","sona":"40433","block":6,"time":"2021-09-06T00:32:24.642Z","response":"2nd","certainty":"high","char":"L","transposition":-3,"order":["shifted","swapped"],"probe_pitches":[14,10,6,8,3,13,4,3],"shifted_pitches":[14,10,6,7,3,13,4,3],"swapped_pitches":[14,10,6,3,8,13,4,3],"shift_direction":-1,"question_num":71,"has_decoy":false},{"rt":8229.10000000149,"stimulus":"[A] option 1, [L] option 2, [G] neither","key_press":76,"name":"choice","trial_type":"html-keyboard-response","trial_index":98,"time_elapsed":224498,"internal_node_id":"0.0-98.0","subject":"S1C0805","sona":"40433","block":6,"time":"2021-09-06T00:32:24.642Z","response":"2nd","certainty":"high","char":"L","transposition":-1,"order":["shifted","swapped"],"probe_pitches":[9,4,6,7,9,13,12,13],"shifted_pitches":[9,4,6,7,8,13,12,13],"swapped_pitches":[9,4,6,9,7,13,12,13],"shift_direction":-1,"question_num":81,"has_decoy":false},{"rt":3679.6999999955297,"stimulus":"[A] option 1, [L] option 2, [G] neither","key_press":76,"name":"choice","trial_type":"html-keyboard-response","trial_index":109,"time_elapsed":242798,"internal_node_id":"0.0-109.0","subject":"S1C0805","sona":"40433","block":6,"time":"2021-09-06T00:32:24.642Z","response":"2nd","certainty":"high","char":"L","transposition":-2,"order":["swapped","shifted"],"probe_pitches":[15,13,8,15,10,13,8,5],"shifted_pitches":[15,13,8,14,10,13,8,5],"swapped_pitches":[15,13,8,10,15,13,8,5],"shift_direction":-1,"question_num":91,"has_decoy":false},{"rt":1949.2000000029802,"stimulus":"[A] option 1, [L] option 2, [G] neither","key_press":76,"name":"choice","trial_type":"html-keyboard-response","trial_index":120,"time_elapsed":261908,"internal_node_id":"0.0-120.0","subject":"S1C0805","sona":"40433","block":6,"time":"2021-09-06T00:32:24.642Z","response":"2nd","certainty":"high","char":"L","transposition":2,"order":["swapped","shifted"],"probe_pitches":[10,15,9,7,13,12,3,4],"shifted_pitches":[10,15,9,7,14,12,3,4],"swapped_pitches":[10,15,9,13,7,12,3,4],"shift_direction":1,"question_num":101,"has_decoy":false},{"rt":22913.40000000596,"stimulus":"[A] option 1, [L] option 2, [G] neither","key_press":76,"name":"choice","trial_type":"html-keyboard-response","trial_index":131,"time_elapsed":305572,"internal_node_id":"0.0-131.0","subject":"S1C0805","sona":"40433","block":6,"time":"2021-09-06T00:32:24.642Z","response":"2nd","certainty":"high","char":"L","transposition":1,"order":["swapped","shifted"],"probe_pitches":[7,5,10,3,5,12,3,10],"shifted_pitches":[7,5,10,4,5,12,3,10],"swapped_pitches":[7,5,10,5,3,12,3,10],"shift_direction":1,"question_num":111,"has_decoy":false},{"rt":883.2000000029802,"stimulus":"[A] option 1, [L] option 2, [G] neither","key_press":65,"name":"choice","trial_type":"html-keyboard-response","trial_index":142,"time_elapsed":321692,"internal_node_id":"0.0-142.0","subject":"S1C0805","sona":"40433","block":6,"time":"2021-09-06T00:32:24.642Z","response":"1st","certainty":"high","char":"A","transposition":0,"order":["shifted","swapped"],"probe_pitches":[8,3,5,12,15,10,12,10],"shifted_pitches":[8,3,5,11,15,10,12,10],"swapped_pitches":[8,3,5,15,12,10,12,10],"shift_direction":-1,"question_num":121,"has_decoy":false},{"rt":1714.5,"stimulus":"[A] option 1, [L] option 2, [G] neither","key_press":65,"name":"choice","trial_type":"html-keyboard-response","trial_index":153,"time_elapsed":340884,"internal_node_id":"0.0-153.0","subject":"S1C0805","sona":"40433","block":6,"time":"2021-09-06T00:32:24.642Z","response":"1st","certainty":"high","char":"A","transposition":0,"order":["shifted","swapped"],"probe_pitches":[8,4,10,15,12,5,15,12],"shifted_pitches":[8,4,10,15,11,5,15,12],"swapped_pitches":[8,4,10,12,15,5,15,12],"shift_direction":-1,"question_num":131,"has_decoy":false},{"rt":9370.90000000596,"stimulus":"[A] option 1, [L] option 2, [G] neither","key_press":76,"name":"choice","trial_type":"html-keyboard-response","trial_index":164,"time_elapsed":373051,"internal_node_id":"0.0-164.0","subject":"S1C0805","sona":"40433","block":6,"time":"2021-09-06T00:32:24.642Z","response":"2nd","certainty":"high","char":"L","transposition":2,"order":["swapped","shifted"],"probe_pitches":[3,8,6,8,10,15,8,13],"shifted_pitches":[3,8,6,8,11,15,8,13],"swapped_pitches":[3,8,6,10,8,15,8,13],"shift_direction":1,"question_num":141,"has_decoy":false},{"rt":7942.5999999940395,"stimulus":"[A] option 1, [L] option 2, [G] neither","key_press":65,"name":"choice","trial_type":"html-keyboard-response","trial_index":175,"time_elapsed":396833,"internal_node_id":"0.0-175.0","subject":"S1C0805","sona":"40433","block":6,"time":"2021-09-06T00:32:24.642Z","response":"1st","certainty":"high","char":"A","transposition":-3,"order":["shifted","swapped"],"probe_pitches":[15,10,9,14,12,5,7,11],"shifted_pitches":[15,10,9,13,12,5,7,11],"swapped_pitches":[15,10,9,12,14,5,7,11],"shift_direction":-1,"question_num":151,"has_decoy":false},{"rt":2956.2000000029802,"stimulus":"[A] option 1, [L] option 2, [G] neither","key_press":76,"name":"choice","trial_type":"html-keyboard-response","trial_index":186,"time_elapsed":422246,"internal_node_id":"0.0-186.0","subject":"S1C0805","sona":"40433","block":6,"time":"2021-09-06T00:32:24.642Z","response":"2nd","certainty":"high","char":"L","transposition":-2,"order":["swapped","shifted"],"probe_pitches":[8,7,9,5,3,4,7,12],"shifted_pitches":[8,7,9,6,3,4,7,12],"swapped_pitches":[8,7,9,3,5,4,7,12],"shift_direction":1,"question_num":161,"has_decoy":false},{"rt":4215,"stimulus":"[A] option 1, [L] option 2, [G] neither","key_press":76,"name":"choice","trial_type":"html-keyboard-response","trial_index":197,"time_elapsed":441276,"internal_node_id":"0.0-197.0","subject":"S1C0805","sona":"40433","block":6,"time":"2021-09-06T00:32:24.642Z","response":"2nd","certainty":"high","char":"L","transposition":-2,"order":["swapped","shifted"],"probe_pitches":[10,15,8,10,5,13,8,3],"shifted_pitches":[10,15,8,10,6,13,8,3],"swapped_pitches":[10,15,8,5,10,13,8,3],"shift_direction":1,"question_num":171,"has_decoy":false},{"rt":21680.60000000149,"stimulus":"[A] option 1, [L] option 2, [G] neither","key_press":76,"name":"choice","trial_type":"html-keyboard-response","trial_index":208,"time_elapsed":477791,"internal_node_id":"0.0-208.0","subject":"S1C0805","sona":"40433","block":6,"time":"2021-09-06T00:32:24.642Z","response":"2nd","certainty":"high","char":"L","transposition":-3,"order":["swapped","shifted"],"probe_pitches":[8,13,15,10,8,6,10,8],"shifted_pitches":[8,13,15,10,7,6,10,8],"swapped_pitches":[8,13,15,8,10,6,10,8],"shift_direction":-1,"question_num":181,"has_decoy":false},{"rt":2361.89999999851,"stimulus":"[A] option 1, [L] option 2, [G] neither","key_press":76,"name":"choice","trial_type":"html-keyboard-response","trial_index":219,"time_elapsed":494592,"internal_node_id":"0.0-219.0","subject":"S1C0805","sona":"40433","block":6,"time":"2021-09-06T00:32:24.642Z","response":"2nd","certainty":"high","char":"L","transposition":-1,"order":["shifted","swapped"],"probe_pitches":[10,6,13,6,8,4,12,6],"shifted_pitches":[10,6,13,5,8,4,12,6],"swapped_pitches":[10,6,13,8,6,4,12,6],"shift_direction":-1,"question_num":191,"has_decoy":false}]