[{"rt":582.8000000044703,"stimulus":"[A] option 1, [L] option 2, [G] neither","key_press":76,"name":"choice","trial_type":"html-keyboard-response","trial_index":10,"time_elapsed":17717,"internal_node_id":"0.0-10.0","subject":"S1C0805","sona":"40433","block":2,"time":"2021-09-06T00:02:37.112Z","response":"2nd","certainty":"high","char":"L","transposition":2,"order":["swapped","shifted"],"probe_pitches":[9,7,9,7,2,4,2,-1],"shifted_pitches":[9,7,9,6,2,4,2,-1],"swapped_pitches":[9,7,9,2,7,4,2,-1],"shift_direction":-1,"question_num":1,"has_decoy":false},{"rt":638.5,"stimulus":"[A] option 1, [L] option 2, [G] neither","key_press":65,"name":"choice","trial_type":"html-keyboard-response","trial_index":21,"time_elapsed":32842,"internal_node_id":"0.0-21.0","subject":"S1C0805","sona":"40433","block":2,"time":"2021-09-06T00:02:37.112Z","response":"1st","certainty":"high","char":"A","transposition":-1,"order":["swapped","shifted"],"probe_pitches":[-3,-2,2,5,3,2,-2,5],"shifted_pitches":[-3,-2,2,5,4,2,-2,5],"swapped_pitches":[-3,-2,2,3,5,2,-2,5],"shift_direction":1,"question_num":11,"has_decoy":false},{"rt":2177.2999999970198,"stimulus":"[A] option 1, [L] option 2, [G] neither","key_press":76,"name":"choice","trial_type":"html-keyboard-response","trial_index":32,"time_elapsed":49722,"internal_node_id":"0.0-32.0","subject":"S1C0805","sona":"40433","block":2,"time":"2021-09-06T00:02:37.112Z","response":"2nd","certainty":"high","char":"L","transposition":1,"order":["shifted","swapped"],"probe_pitches":[-1,1,6,4,1,11,6,9],"shifted_pitches":[-1,1,6,5,1,11,6,9],"swapped_pitches":[-1,1,6,1,4,11,6,9],"shift_direction":1,"question_num":21,"has_decoy":false},{"rt":1494.2999999970198,"stimulus":"[A] option 1, [L] option 2, [G] neither","key_press":76,"name":"choice","trial_type":"html-keyboard-response","trial_index":43,"time_elapsed":65349,"internal_node_id":"0.0-43.0","subject":"S1C0805","sona":"40433","block":2,"time":"2021-09-06T00:02:37.112Z","response":"2nd","certainty":"high","char":"L","transposition":0,"order":["shifted","swapped"],"probe_pitches":[-1,4,-1,1,8,6,11,8],"shifted_pitches":[-1,4,-1,0,8,6,11,8],"swapped_pitches":[-1,4,-1,8,1,6,11,8],"shift_direction":-1,"question_num":31,"has_decoy":false},{"rt":546.7999999970198,"stimulus":"[A] option 1, [L] option 2, [G] neither","key_press":76,"name":"choice","trial_type":"html-keyboard-response","trial_index":54,"time_elapsed":82510,"internal_node_id":"0.0-54.0","subject":"S1C0805","sona":"40433","block":2,"time":"2021-09-06T00:02:37.112Z","response":"2nd","certainty":"high","char":"L","transposition":0,"order":["shifted","swapped"],"probe_pitches":[0,-1,1,-1,8,1,2,3],"shifted_pitches":[0,-1,1,-1,7,1,2,3],"swapped_pitches":[0,-1,1,8,-1,1,2,3],"shift_direction":-1,"question_num":41,"has_decoy":false},{"rt":498,"stimulus":"[A] option 1, [L] option 2, [G] neither","key_press":76,"name":"choice","trial_type":"html-keyboard-response","trial_index":65,"time_elapsed":98042,"internal_node_id":"0.0-65.0","subject":"S1C0805","sona":"40433","block":2,"time":"2021-09-06T00:02:37.112Z","response":"2nd","certainty":"high","char":"L","transposition":-3,"order":["shifted","swapped"],"probe_pitches":[3,8,1,-1,3,1,6,1],"shifted_pitches":[3,8,1,-1,2,1,6,1],"swapped_pitches":[3,8,1,3,-1,1,6,1],"shift_direction":-1,"question_num":51,"has_decoy":false},{"rt":2125.9000000059605,"stimulus":"[A] option 1, [L] option 2, [G] neither","key_press":76,"name":"choice","trial_type":"html-keyboard-response","trial_index":76,"time_elapsed":114769,"internal_node_id":"0.0-76.0","subject":"S1C0805","sona":"40433","block":2,"time":"2021-09-06T00:02:37.112Z","response":"2nd","certainty":"high","char":"L","transposition":3,"order":["swapped","shifted"],"probe_pitches":[6,3,8,1,3,8,-1,11],"shifted_pitches":[6,3,8,1,2,8,-1,11],"swapped_pitches":[6,3,8,3,1,8,-1,11],"shift_direction":-1,"question_num":61,"has_decoy":false},{"rt":3062.2999999970198,"stimulus":"[A] option 1, [L] option 2, [G] neither","key_press":76,"name":"choice","trial_type":"html-keyboard-response","trial_index":87,"time_elapsed":132586,"internal_node_id":"0.0-87.0","subject":"S1C0805","sona":"40433","block":2,"time":"2021-09-06T00:02:37.112Z","response":"2nd","certainty":"high","char":"L","transposition":3,"order":["shifted","swapped"],"probe_pitches":[2,-2,4,7,-1,2,-1,5],"shifted_pitches":[2,-2,4,8,-1,2,-1,5],"swapped_pitches":[2,-2,4,-1,7,2,-1,5],"shift_direction":1,"question_num":71,"has_decoy":false},{"rt":1335.0999999940395,"stimulus":"[A] option 1, [L] option 2, [G] neither","key_press":65,"name":"choice","trial_type":"html-keyboard-response","trial_index":98,"time_elapsed":148100,"internal_node_id":"0.0-98.0","subject":"S1C0805","sona":"40433","block":2,"time":"2021-09-06T00:02:37.112Z","response":"1st","certainty":"high","char":"A","transposition":-1,"order":["shifted","swapped"],"probe_pitches":[4,7,9,2,7,-1,7,-1],"shifted_pitches":[4,7,9,2,8,-1,7,-1],"swapped_pitches":[4,7,9,7,2,-1,7,-1],"shift_direction":1,"question_num":81,"has_decoy":false},{"rt":1832.2999999970198,"stimulus":"[A] option 1, [L] option 2, [G] neither","key_press":65,"name":"choice","trial_type":"html-keyboard-response","trial_index":109,"time_elapsed":164346,"internal_node_id":"0.0-109.0","subject":"S1C0805","sona":"40433","block":2,"time":"2021-09-06T00:02:37.112Z","response":"1st","certainty":"high","char":"A","transposition":-3,"order":["swapped","shifted"],"probe_pitches":[8,6,4,-2,0,2,-2,3],"shifted_pitches":[8,6,4,-1,0,2,-2,3],"swapped_pitches":[8,6,4,0,-2,2,-2,3],"shift_direction":1,"question_num":91,"has_decoy":false},{"rt":1175.7000000029802,"stimulus":"[A] option 1, [L] option 2, [G] neither","key_press":76,"name":"choice","trial_type":"html-keyboard-response","trial_index":120,"time_elapsed":179672,"internal_node_id":"0.0-120.0","subject":"S1C0805","sona":"40433","block":2,"time":"2021-09-06T00:02:37.112Z","response":"2nd","certainty":"high","char":"L","transposition":-3,"order":["shifted","swapped"],"probe_pitches":[4,2,4,11,2,9,6,11],"shifted_pitches":[4,2,4,11,3,9,6,11],"swapped_pitches":[4,2,4,2,11,9,6,11],"shift_direction":1,"question_num":101,"has_decoy":false},{"rt":6382.39999999851,"stimulus":"[A] option 1, [L] option 2, [G] neither","key_press":65,"name":"choice","trial_type":"html-keyboard-response","trial_index":131,"time_elapsed":206858,"internal_node_id":"0.0-131.0","subject":"S1C0805","sona":"40433","block":2,"time":"2021-09-06T00:02:37.112Z","response":"1st","certainty":"high","char":"A","transposition":-2,"order":["swapped","shifted"],"probe_pitches":[1,4,6,-1,1,4,6,8],"shifted_pitches":[1,4,6,-1,2,4,6,8],"swapped_pitches":[1,4,6,1,-1,4,6,8],"shift_direction":1,"question_num":111,"has_decoy":false},{"rt":1672,"stimulus":"[A] option 1, [L] option 2, [G] neither","key_press":65,"name":"choice","trial_type":"html-keyboard-response","trial_index":142,"time_elapsed":223426,"internal_node_id":"0.0-142.0","subject":"S1C0805","sona":"40433","block":2,"time":"2021-09-06T00:02:37.112Z","response":"1st","certainty":"high","char":"A","transposition":-3,"order":["swapped","shifted"],"probe_pitches":[3,6,7,2,3,9,2,8],"shifted_pitches":[3,6,7,1,3,9,2,8],"swapped_pitches":[3,6,7,3,2,9,2,8],"shift_direction":-1,"question_num":121,"has_decoy":false},{"rt":1599.8999999985099,"stimulus":"[A] option 1, [L] option 2, [G] neither","key_press":76,"name":"choice","trial_type":"html-keyboard-response","trial_index":153,"time_elapsed":239445,"internal_node_id":"0.0-153.0","subject":"S1C0805","sona":"40433","block":2,"time":"2021-09-06T00:02:37.112Z","response":"2nd","certainty":"high","char":"L","transposition":-2,"order":["shifted","swapped"],"probe_pitches":[8,4,1,8,7,-1,1,-1],"shifted_pitches":[8,4,1,8,6,-1,1,-1],"swapped_pitches":[8,4,1,7,8,-1,1,-1],"shift_direction":-1,"question_num":131,"has_decoy":false},{"rt":2777.3000000044703,"stimulus":"[A] option 1, [L] option 2, [G] neither","key_press":65,"name":"choice","trial_type":"html-keyboard-response","trial_index":164,"time_elapsed":256633,"internal_node_id":"0.0-164.0","subject":"S1C0805","sona":"40433","block":2,"time":"2021-09-06T00:02:37.112Z","response":"1st","certainty":"high","char":"A","transposition":-2,"order":["swapped","shifted"],"probe_pitches":[9,6,-1,1,4,11,1,11],"shifted_pitches":[9,6,-1,2,4,11,1,11],"swapped_pitches":[9,6,-1,4,1,11,1,11],"shift_direction":1,"question_num":141,"has_decoy":false},{"rt":2317.3000000044703,"stimulus":"[A] option 1, [L] option 2, [G] neither","key_press":65,"name":"choice","trial_type":"html-keyboard-response","trial_index":175,"time_elapsed":273533,"internal_node_id":"0.0-175.0","subject":"S1C0805","sona":"40433","block":2,"time":"2021-09-06T00:02:37.112Z","response":"1st","certainty":"high","char":"A","transposition":-1,"order":["swapped","shifted"],"probe_pitches":[11,6,9,4,11,2,6,-1],"shifted_pitches":[11,6,9,3,11,2,6,-1],"swapped_pitches":[11,6,9,11,4,2,6,-1],"shift_direction":-1,"question_num":151,"has_decoy":false},{"rt":3573.6999999955297,"stimulus":"[A] option 1, [L] option 2, [G] neither","key_press":76,"name":"choice","trial_type":"html-keyboard-response","trial_index":186,"time_elapsed":291550,"internal_node_id":"0.0-186.0","subject":"S1C0805","sona":"40433","block":2,"time":"2021-09-06T00:02:37.112Z","response":"2nd","certainty":"high","char":"L","transposition":1,"order":["shifted","swapped"],"probe_pitches":[-3,2,-3,4,2,7,6,8],"shifted_pitches":[-3,2,-3,5,2,7,6,8],"swapped_pitches":[-3,2,-3,2,4,7,6,8],"shift_direction":1,"question_num":161,"has_decoy":false},{"rt":774.8999999985099,"stimulus":"[A] option 1, [L] option 2, [G] neither","key_press":76,"name":"choice","trial_type":"html-keyboard-response","trial_index":197,"time_elapsed":307362,"internal_node_id":"0.0-197.0","subject":"S1C0805","sona":"40433","block":2,"time":"2021-09-06T00:02:37.112Z","response":"2nd","certainty":"high","char":"L","transposition":-1,"order":["shifted","swapped"],"probe_pitches":[-3,1,5,6,3,0,9,4],"shifted_pitches":[-3,1,5,6,2,0,9,4],"swapped_pitches":[-3,1,5,3,6,0,9,4],"shift_direction":-1,"question_num":171,"has_decoy":false},{"rt":6935.89999999851,"stimulus":"[A] option 1, [L] option 2, [G] neither","key_press":76,"name":"choice","trial_type":"html-keyboard-response","trial_index":208,"time_elapsed":328928,"internal_node_id":"0.0-208.0","subject":"S1C0805","sona":"40433","block":2,"time":"2021-09-06T00:02:37.112Z","response":"2nd","certainty":"high","char":"L","transposition":2,"order":["swapped","shifted"],"probe_pitches":[9,7,5,6,-1,-2,2,1],"shifted_pitches":[9,7,5,6,0,-2,2,1],"swapped_pitches":[9,7,5,-1,6,-2,2,1],"shift_direction":1,"question_num":181,"has_decoy":false},{"rt":1283.7999999970198,"stimulus":"[A] option 1, [L] option 2, [G] neither","key_press":76,"name":"choice","trial_type":"html-keyboard-response","trial_index":219,"time_elapsed":354486,"internal_node_id":"0.0-219.0","subject":"S1C0805","sona":"40433","block":2,"time":"2021-09-06T00:02:37.112Z","response":"2nd","certainty":"high","char":"L","transposition":-2,"order":["swapped","shifted"],"probe_pitches":[8,4,0,4,5,1,9,7],"shifted_pitches":[8,4,0,3,5,1,9,7],"swapped_pitches":[8,4,0,5,4,1,9,7],"shift_direction":-1,"question_num":191,"has_decoy":false}]