[{"rt":7826.29999999702,"stimulus":"[A] option 1, [L] option 2, [G] neither","key_press":65,"name":"choice","trial_type":"html-keyboard-response","trial_index":10,"time_elapsed":29489,"internal_node_id":"0.0-10.0","subject":"S1C1202","sona":"41054","block":3,"time":"2021-09-04T23:41:28.202Z","response":"1st","certainty":"high","char":"A","transposition":-1,"order":["shifted","swapped"],"probe_pitches":[6,11,6,2,6,9,14,6,14,4,9,2],"shifted_pitches":[6,11,6,2,6,9,15,6,14,4,9,2],"swapped_pitches":[6,11,6,2,6,14,9,6,14,4,9,2],"shift_direction":1,"question_num":1,"has_decoy":false},{"rt":3706.7999999970198,"stimulus":"[A] option 1, [L] option 2, [G] neither","key_press":76,"name":"choice","trial_type":"html-keyboard-response","trial_index":21,"time_elapsed":52265,"internal_node_id":"0.0-21.0","subject":"S1C1202","sona":"41054","block":3,"time":"2021-09-04T23:41:28.202Z","response":"2nd","certainty":"high","char":"L","transposition":-3,"order":["shifted","swapped"],"probe_pitches":[7,5,9,12,5,2,12,9,14,2,5,7],"shifted_pitches":[7,5,9,12,5,3,12,9,14,2,5,7],"swapped_pitches":[7,5,9,12,5,12,2,9,14,2,5,7],"shift_direction":1,"question_num":11,"has_decoy":false},{"rt":821.5,"stimulus":"[A] option 1, [L] option 2, [G] neither","key_press":76,"name":"choice","trial_type":"html-keyboard-response","trial_index":32,"time_elapsed":85096,"internal_node_id":"0.0-32.0","subject":"S1C1202","sona":"41054","block":3,"time":"2021-09-04T23:41:28.202Z","response":"2nd","certainty":"high","char":"L","transposition":-3,"order":["swapped","shifted"],"probe_pitches":[7,11,9,14,11,14,9,4,2,4,11,7],"shifted_pitches":[7,11,9,14,11,14,10,4,2,4,11,7],"swapped_pitches":[7,11,9,14,11,9,14,4,2,4,11,7],"shift_direction":1,"question_num":21,"has_decoy":false},{"rt":93.30000000447035,"stimulus":"[A] option 1, [L] option 2, [G] neither","key_press":65,"name":"choice","trial_type":"html-keyboard-response","trial_index":43,"time_elapsed":115711,"internal_node_id":"0.0-43.0","subject":"S1C1202","sona":"41054","block":3,"time":"2021-09-04T23:41:28.202Z","response":"1st","certainty":"high","char":"A","transposition":-3,"order":["swapped","shifted"],"probe_pitches":[11,9,10,7,4,10,7,11,7,6,2,4],"shifted_pitches":[11,9,10,7,4,10,8,11,7,6,2,4],"swapped_pitches":[11,9,10,7,4,7,10,11,7,6,2,4],"shift_direction":1,"question_num":31,"has_decoy":false},{"rt":11713.10000000149,"stimulus":"[A] option 1, [L] option 2, [G] neither","key_press":65,"name":"choice","trial_type":"html-keyboard-response","trial_index":54,"time_elapsed":159955,"internal_node_id":"0.0-54.0","subject":"S1C1202","sona":"41054","block":3,"time":"2021-09-04T23:41:28.202Z","response":"1st","certainty":"high","char":"A","transposition":1,"order":["shifted","swapped"],"probe_pitches":[7,2,0,1,4,6,9,5,3,2,1,8],"shifted_pitches":[7,2,0,1,4,6,10,5,3,2,1,8],"swapped_pitches":[7,2,0,1,4,9,6,5,3,2,1,8],"shift_direction":1,"question_num":41,"has_decoy":false},{"rt":1583.6000000014901,"stimulus":"[A] option 1, [L] option 2, [G] neither","key_press":65,"name":"choice","trial_type":"html-keyboard-response","trial_index":65,"time_elapsed":182705,"internal_node_id":"0.0-65.0","subject":"S1C1202","sona":"41054","block":3,"time":"2021-09-04T23:41:28.202Z","response":"1st","certainty":"high","char":"A","transposition":1,"order":["shifted","swapped"],"probe_pitches":[12,7,5,2,10,14,7,5,10,14,2,14],"shifted_pitches":[12,7,5,2,10,15,7,5,10,14,2,14],"swapped_pitches":[12,7,5,2,10,7,14,5,10,14,2,14],"shift_direction":1,"question_num":51,"has_decoy":false},{"rt":868.6000000014901,"stimulus":"[A] option 1, [L] option 2, [G] neither","key_press":76,"name":"choice","trial_type":"html-keyboard-response","trial_index":76,"time_elapsed":211845,"internal_node_id":"0.0-76.0","subject":"S1C1202","sona":"41054","block":3,"time":"2021-09-04T23:41:28.202Z","response":"2nd","certainty":"high","char":"L","transposition":-1,"order":["swapped","shifted"],"probe_pitches":[7,11,6,-1,8,5,6,0,6,1,8,0],"shifted_pitches":[7,11,6,-1,8,4,6,0,6,1,8,0],"swapped_pitches":[7,11,6,-1,8,6,5,0,6,1,8,0],"shift_direction":-1,"question_num":61,"has_decoy":false},{"rt":5983.9000000059605,"stimulus":"[A] option 1, [L] option 2, [G] neither","key_press":65,"name":"choice","trial_type":"html-keyboard-response","trial_index":87,"time_elapsed":243253,"internal_node_id":"0.0-87.0","subject":"S1C1202","sona":"41054","block":3,"time":"2021-09-04T23:41:28.202Z","response":"1st","certainty":"high","char":"A","transposition":-2,"order":["shifted","swapped"],"probe_pitches":[10,8,6,10,3,-1,6,8,6,11,-1,3],"shifted_pitches":[10,8,6,10,3,-1,5,8,6,11,-1,3],"swapped_pitches":[10,8,6,10,3,6,-1,8,6,11,-1,3],"shift_direction":-1,"question_num":71,"has_decoy":false},{"rt":2167.2000000029802,"stimulus":"[A] option 1, [L] option 2, [G] neither","key_press":65,"name":"choice","trial_type":"html-keyboard-response","trial_index":98,"time_elapsed":263660,"internal_node_id":"0.0-98.0","subject":"S1C1202","sona":"41054","block":3,"time":"2021-09-04T23:41:28.202Z","response":"1st","certainty":"high","char":"A","transposition":-1,"order":["shifted","swapped"],"probe_pitches":[9,7,12,14,9,12,4,14,7,12,14,7],"shifted_pitches":[9,7,12,14,9,12,3,14,7,12,14,7],"swapped_pitches":[9,7,12,14,9,4,12,14,7,12,14,7],"shift_direction":-1,"question_num":81,"has_decoy":false},{"rt":25.80000000447035,"stimulus":"[A] option 1, [L] option 2, [G] neither","key_press":65,"name":"choice","trial_type":"html-keyboard-response","trial_index":109,"time_elapsed":283220,"internal_node_id":"0.0-109.0","subject":"S1C1202","sona":"41054","block":3,"time":"2021-09-04T23:41:28.202Z","response":"1st","certainty":"high","char":"A","transposition":-1,"order":["swapped","shifted"],"probe_pitches":[-1,2,9,1,-1,0,4,6,11,10,1,0],"shifted_pitches":[-1,2,9,1,-1,0,3,6,11,10,1,0],"swapped_pitches":[-1,2,9,1,-1,4,0,6,11,10,1,0],"shift_direction":-1,"question_num":91,"has_decoy":false},{"rt":5248.60000000149,"stimulus":"[A] option 1, [L] option 2, [G] neither","key_press":65,"name":"choice","trial_type":"html-keyboard-response","trial_index":120,"time_elapsed":306735,"internal_node_id":"0.0-120.0","subject":"S1C1202","sona":"41054","block":3,"time":"2021-09-04T23:41:28.202Z","response":"1st","certainty":"high","char":"A","transposition":-3,"order":["shifted","swapped"],"probe_pitches":[8,10,5,0,3,6,4,8,4,3,11,10],"shifted_pitches":[8,10,5,0,3,7,4,8,4,3,11,10],"swapped_pitches":[8,10,5,0,3,4,6,8,4,3,11,10],"shift_direction":1,"question_num":101,"has_decoy":false},{"rt":74792,"stimulus":"[A] option 1, [L] option 2, [G] neither","key_press":65,"name":"choice","trial_type":"html-keyboard-response","trial_index":131,"time_elapsed":404508,"internal_node_id":"0.0-131.0","subject":"S1C1202","sona":"41054","block":3,"time":"2021-09-04T23:41:28.202Z","response":"1st","certainty":"high","char":"A","transposition":-2,"order":["swapped","shifted"],"probe_pitches":[12,10,14,12,10,2,5,12,5,2,10,7],"shifted_pitches":[12,10,14,12,10,1,5,12,5,2,10,7],"swapped_pitches":[12,10,14,12,10,5,2,12,5,2,10,7],"shift_direction":-1,"question_num":111,"has_decoy":false},{"rt":7948.79999999702,"stimulus":"[A] option 1, [L] option 2, [G] neither","key_press":65,"name":"choice","trial_type":"html-keyboard-response","trial_index":142,"time_elapsed":430887,"internal_node_id":"0.0-142.0","subject":"S1C1202","sona":"41054","block":3,"time":"2021-09-04T23:41:28.202Z","response":"1st","certainty":"high","char":"A","transposition":-2,"order":["swapped","shifted"],"probe_pitches":[4,1,6,-1,6,10,4,8,11,8,5,10],"shifted_pitches":[4,1,6,-1,6,9,4,8,11,8,5,10],"swapped_pitches":[4,1,6,-1,6,4,10,8,11,8,5,10],"shift_direction":-1,"question_num":121,"has_decoy":false},{"rt":23046.70000000298,"stimulus":"[A] option 1, [L] option 2, [G] neither","key_press":65,"name":"choice","trial_type":"html-keyboard-response","trial_index":153,"time_elapsed":473152,"internal_node_id":"0.0-153.0","subject":"S1C1202","sona":"41054","block":3,"time":"2021-09-04T23:41:28.202Z","response":"1st","certainty":"high","char":"A","transposition":-2,"order":["swapped","shifted"],"probe_pitches":[9,14,9,14,7,14,9,2,5,14,12,7],"shifted_pitches":[9,14,9,14,7,13,9,2,5,14,12,7],"swapped_pitches":[9,14,9,14,7,9,14,2,5,14,12,7],"shift_direction":-1,"question_num":131,"has_decoy":false},{"rt":7634.89999999851,"stimulus":"[A] option 1, [L] option 2, [G] neither","key_press":76,"name":"choice","trial_type":"html-keyboard-response","trial_index":164,"time_elapsed":498854,"internal_node_id":"0.0-164.0","subject":"S1C1202","sona":"41054","block":3,"time":"2021-09-04T23:41:28.202Z","response":"2nd","certainty":"high","char":"L","transposition":2,"order":["shifted","swapped"],"probe_pitches":[11,14,9,11,6,9,11,6,14,9,4,2],"shifted_pitches":[11,14,9,11,6,9,10,6,14,9,4,2],"swapped_pitches":[11,14,9,11,6,11,9,6,14,9,4,2],"shift_direction":-1,"question_num":141,"has_decoy":false},{"rt":705.5,"stimulus":"[A] option 1, [L] option 2, [G] neither","key_press":65,"name":"choice","trial_type":"html-keyboard-response","trial_index":175,"time_elapsed":540109,"internal_node_id":"0.0-175.0","subject":"S1C1202","sona":"41054","block":3,"time":"2021-09-04T23:41:28.202Z","response":"1st","certainty":"high","char":"A","transposition":3,"order":["shifted","swapped"],"probe_pitches":[3,-1,2,-1,7,0,2,4,8,-1,9,2],"shifted_pitches":[3,-1,2,-1,7,1,2,4,8,-1,9,2],"swapped_pitches":[3,-1,2,-1,7,2,0,4,8,-1,9,2],"shift_direction":1,"question_num":151,"has_decoy":false},{"rt":1770.2000000029802,"stimulus":"[A] option 1, [L] option 2, [G] neither","key_press":65,"name":"choice","trial_type":"html-keyboard-response","trial_index":186,"time_elapsed":560496,"internal_node_id":"0.0-186.0","subject":"S1C1202","sona":"41054","block":3,"time":"2021-09-04T23:41:28.202Z","response":"1st","certainty":"high","char":"A","transposition":0,"order":["swapped","shifted"],"probe_pitches":[4,9,2,4,9,12,14,2,14,4,7,12],"shifted_pitches":[4,9,2,4,9,12,15,2,14,4,7,12],"swapped_pitches":[4,9,2,4,9,14,12,2,14,4,7,12],"shift_direction":1,"question_num":161,"has_decoy":false},{"rt":1777.1999999955297,"stimulus":"[A] option 1, [L] option 2, [G] neither","key_press":65,"name":"choice","trial_type":"html-keyboard-response","trial_index":197,"time_elapsed":580417,"internal_node_id":"0.0-197.0","subject":"S1C1202","sona":"41054","block":3,"time":"2021-09-04T23:41:28.202Z","response":"1st","certainty":"high","char":"A","transposition":0,"order":["swapped","shifted"],"probe_pitches":[4,6,9,10,9,3,8,7,0,8,7,5],"shifted_pitches":[4,6,9,10,9,2,8,7,0,8,7,5],"swapped_pitches":[4,6,9,10,9,8,3,7,0,8,7,5],"shift_direction":-1,"question_num":171,"has_decoy":false},{"rt":196613.1000000015,"stimulus":"[A] option 1, [L] option 2, [G] neither","key_press":65,"name":"choice","trial_type":"html-keyboard-response","trial_index":208,"time_elapsed":798063,"internal_node_id":"0.0-208.0","subject":"S1C1202","sona":"41054","block":3,"time":"2021-09-04T23:41:28.202Z","response":"1st","certainty":"high","char":"A","transposition":2,"order":["shifted","swapped"],"probe_pitches":[0,-1,1,-1,3,7,5,0,8,10,0,1],"shifted_pitches":[0,-1,1,-1,3,7,6,0,8,10,0,1],"swapped_pitches":[0,-1,1,-1,3,5,7,0,8,10,0,1],"shift_direction":1,"question_num":181,"has_decoy":false},{"rt":2532,"stimulus":"[A] option 1, [L] option 2, [G] neither","key_press":76,"name":"choice","trial_type":"html-keyboard-response","trial_index":219,"time_elapsed":824670,"internal_node_id":"0.0-219.0","subject":"S1C1202","sona":"41054","block":3,"time":"2021-09-04T23:41:28.202Z","response":"2nd","certainty":"high","char":"L","transposition":3,"order":["swapped","shifted"],"probe_pitches":[14,9,11,4,7,14,11,4,14,9,14,7],"shifted_pitches":[14,9,11,4,7,13,11,4,14,9,14,7],"swapped_pitches":[14,9,11,4,7,11,14,4,14,9,14,7],"shift_direction":-1,"question_num":191,"has_decoy":false}]