[{"rt":1439.7000000029802,"stimulus":"[A] option 1, [L] option 2, [G] neither","key_press":76,"name":"choice","trial_type":"html-keyboard-response","trial_index":10,"time_elapsed":19502,"internal_node_id":"0.0-10.0","subject":"S1C1202","sona":"41054","block":5,"time":"2021-09-05T00:02:52.592Z","response":"2nd","certainty":"high","char":"L","transposition":1,"order":["shifted","swapped"],"probe_pitches":[10,8,3,6,10,1,8,10,6,-2,3,1],"shifted_pitches":[10,8,3,6,10,1,7,10,6,-2,3,1],"swapped_pitches":[10,8,3,6,10,8,1,10,6,-2,3,1],"shift_direction":-1,"question_num":1,"has_decoy":false},{"rt":1481.3000000044703,"stimulus":"[A] option 1, [L] option 2, [G] neither","key_press":65,"name":"choice","trial_type":"html-keyboard-response","trial_index":21,"time_elapsed":42157,"internal_node_id":"0.0-21.0","subject":"S1C1202","sona":"41054","block":5,"time":"2021-09-05T00:02:52.592Z","response":"1st","certainty":"high","char":"A","transposition":-1,"order":["shifted","swapped"],"probe_pitches":[2,3,4,7,1,9,6,1,9,10,7,-1],"shifted_pitches":[2,3,4,7,1,9,5,1,9,10,7,-1],"swapped_pitches":[2,3,4,7,1,6,9,1,9,10,7,-1],"shift_direction":-1,"question_num":11,"has_decoy":false},{"rt":557.8999999985099,"stimulus":"[A] option 1, [L] option 2, [G] neither","key_press":76,"name":"choice","trial_type":"html-keyboard-response","trial_index":32,"time_elapsed":62737,"internal_node_id":"0.0-32.0","subject":"S1C1202","sona":"41054","block":5,"time":"2021-09-05T00:02:52.592Z","response":"2nd","certainty":"high","char":"L","transposition":0,"order":["shifted","swapped"],"probe_pitches":[3,7,10,7,-2,0,3,5,-2,0,10,-2],"shifted_pitches":[3,7,10,7,-2,1,3,5,-2,0,10,-2],"swapped_pitches":[3,7,10,7,-2,3,0,5,-2,0,10,-2],"shift_direction":1,"question_num":21,"has_decoy":false},{"rt":625.3999999985099,"stimulus":"[A] option 1, [L] option 2, [G] neither","key_press":65,"name":"choice","trial_type":"html-keyboard-response","trial_index":43,"time_elapsed":86815,"internal_node_id":"0.0-43.0","subject":"S1C1202","sona":"41054","block":5,"time":"2021-09-05T00:02:52.592Z","response":"1st","certainty":"high","char":"A","transposition":0,"order":["swapped","shifted"],"probe_pitches":[5,2,4,8,6,10,1,-2,10,-1,1,7],"shifted_pitches":[5,2,4,8,6,10,0,-2,10,-1,1,7],"swapped_pitches":[5,2,4,8,6,1,10,-2,10,-1,1,7],"shift_direction":-1,"question_num":31,"has_decoy":false},{"rt":934.6000000014901,"stimulus":"[A] option 1, [L] option 2, [G] neither","key_press":76,"name":"choice","trial_type":"html-keyboard-response","trial_index":54,"time_elapsed":111017,"internal_node_id":"0.0-54.0","subject":"S1C1202","sona":"41054","block":5,"time":"2021-09-05T00:02:52.592Z","response":"2nd","certainty":"high","char":"L","transposition":-2,"order":["shifted","swapped"],"probe_pitches":[8,10,4,8,0,-2,6,9,-1,5,3,8],"shifted_pitches":[8,10,4,8,0,-2,7,9,-1,5,3,8],"swapped_pitches":[8,10,4,8,0,6,-2,9,-1,5,3,8],"shift_direction":1,"question_num":41,"has_decoy":false},{"rt":595.6000000014901,"stimulus":"[A] option 1, [L] option 2, [G] neither","key_press":65,"name":"choice","trial_type":"html-keyboard-response","trial_index":65,"time_elapsed":135825,"internal_node_id":"0.0-65.0","subject":"S1C1202","sona":"41054","block":5,"time":"2021-09-05T00:02:52.592Z","response":"1st","certainty":"high","char":"A","transposition":-3,"order":["shifted","swapped"],"probe_pitches":[8,2,0,-1,-2,3,9,8,-2,0,2,1],"shifted_pitches":[8,2,0,-1,-2,4,9,8,-2,0,2,1],"swapped_pitches":[8,2,0,-1,-2,9,3,8,-2,0,2,1],"shift_direction":1,"question_num":51,"has_decoy":false},{"rt":712.6000000014901,"stimulus":"[A] option 1, [L] option 2, [G] neither","key_press":76,"name":"choice","trial_type":"html-keyboard-response","trial_index":76,"time_elapsed":160992,"internal_node_id":"0.0-76.0","subject":"S1C1202","sona":"41054","block":5,"time":"2021-09-05T00:02:52.592Z","response":"2nd","certainty":"high","char":"L","transposition":1,"order":["swapped","shifted"],"probe_pitches":[3,1,3,8,-1,-2,3,4,5,8,0,3],"shifted_pitches":[3,1,3,8,-1,-2,2,4,5,8,0,3],"swapped_pitches":[3,1,3,8,-1,3,-2,4,5,8,0,3],"shift_direction":-1,"question_num":61,"has_decoy":false},{"rt":2164.60000000149,"stimulus":"[A] option 1, [L] option 2, [G] neither","key_press":76,"name":"choice","trial_type":"html-keyboard-response","trial_index":87,"time_elapsed":184038,"internal_node_id":"0.0-87.0","subject":"S1C1202","sona":"41054","block":5,"time":"2021-09-05T00:02:52.592Z","response":"2nd","certainty":"high","char":"L","transposition":-3,"order":["shifted","swapped"],"probe_pitches":[-2,0,2,0,2,10,7,0,10,5,7,0],"shifted_pitches":[-2,0,2,0,2,11,7,0,10,5,7,0],"swapped_pitches":[-2,0,2,0,2,7,10,0,10,5,7,0],"shift_direction":1,"question_num":71,"has_decoy":false},{"rt":498.29999999701977,"stimulus":"[A] option 1, [L] option 2, [G] neither","key_press":76,"name":"choice","trial_type":"html-keyboard-response","trial_index":98,"time_elapsed":217486,"internal_node_id":"0.0-98.0","subject":"S1C1202","sona":"41054","block":5,"time":"2021-09-05T00:02:52.592Z","response":"2nd","certainty":"high","char":"L","transposition":-1,"order":["shifted","swapped"],"probe_pitches":[-2,2,1,8,0,7,3,9,8,-1,1,-1],"shifted_pitches":[-2,2,1,8,0,6,3,9,8,-1,1,-1],"swapped_pitches":[-2,2,1,8,0,3,7,9,8,-1,1,-1],"shift_direction":-1,"question_num":81,"has_decoy":false},{"rt":752.3000000044703,"stimulus":"[A] option 1, [L] option 2, [G] neither","key_press":65,"name":"choice","trial_type":"html-keyboard-response","trial_index":109,"time_elapsed":248859,"internal_node_id":"0.0-109.0","subject":"S1C1202","sona":"41054","block":5,"time":"2021-09-05T00:02:52.592Z","response":"1st","certainty":"high","char":"A","transposition":-3,"order":["swapped","shifted"],"probe_pitches":[9,5,2,0,8,2,6,5,9,10,0,-1],"shifted_pitches":[9,5,2,0,8,3,6,5,9,10,0,-1],"swapped_pitches":[9,5,2,0,8,6,2,5,9,10,0,-1],"shift_direction":1,"question_num":91,"has_decoy":false},{"rt":919.5999999940395,"stimulus":"[A] option 1, [L] option 2, [G] neither","key_press":76,"name":"choice","trial_type":"html-keyboard-response","trial_index":120,"time_elapsed":269826,"internal_node_id":"0.0-120.0","subject":"S1C1202","sona":"41054","block":5,"time":"2021-09-05T00:02:52.592Z","response":"2nd","certainty":"high","char":"L","transposition":-1,"order":["swapped","shifted"],"probe_pitches":[1,5,10,3,10,5,3,8,10,1,8,3],"shifted_pitches":[1,5,10,3,10,4,3,8,10,1,8,3],"swapped_pitches":[1,5,10,3,10,3,5,8,10,1,8,3],"shift_direction":-1,"question_num":101,"has_decoy":false},{"rt":1537.1000000014901,"stimulus":"[A] option 1, [L] option 2, [G] neither","key_press":76,"name":"choice","trial_type":"html-keyboard-response","trial_index":131,"time_elapsed":290395,"internal_node_id":"0.0-131.0","subject":"S1C1202","sona":"41054","block":5,"time":"2021-09-05T00:02:52.592Z","response":"2nd","certainty":"high","char":"L","transposition":-3,"order":["swapped","shifted"],"probe_pitches":[1,5,8,10,5,-2,3,5,8,5,10,5],"shifted_pitches":[1,5,8,10,5,-3,3,5,8,5,10,5],"swapped_pitches":[1,5,8,10,5,3,-2,5,8,5,10,5],"shift_direction":-1,"question_num":111,"has_decoy":false},{"rt":1104.6000000014901,"stimulus":"[A] option 1, [L] option 2, [G] neither","key_press":65,"name":"choice","trial_type":"html-keyboard-response","trial_index":142,"time_elapsed":312032,"internal_node_id":"0.0-142.0","subject":"S1C1202","sona":"41054","block":5,"time":"2021-09-05T00:02:52.592Z","response":"1st","certainty":"high","char":"A","transposition":-2,"order":["swapped","shifted"],"probe_pitches":[7,5,2,10,5,10,2,5,-2,5,0,2],"shifted_pitches":[7,5,2,10,5,10,1,5,-2,5,0,2],"swapped_pitches":[7,5,2,10,5,2,10,5,-2,5,0,2],"shift_direction":-1,"question_num":121,"has_decoy":false},{"rt":1533,"stimulus":"[A] option 1, [L] option 2, [G] neither","key_press":76,"name":"choice","trial_type":"html-keyboard-response","trial_index":153,"time_elapsed":366052,"internal_node_id":"0.0-153.0","subject":"S1C1202","sona":"41054","block":5,"time":"2021-09-05T00:02:52.592Z","response":"2nd","certainty":"high","char":"L","transposition":-1,"order":["swapped","shifted"],"probe_pitches":[5,3,-2,0,8,3,10,0,10,8,0,-2],"shifted_pitches":[5,3,-2,0,8,4,10,0,10,8,0,-2],"swapped_pitches":[5,3,-2,0,8,10,3,0,10,8,0,-2],"shift_direction":1,"question_num":131,"has_decoy":false},{"rt":365,"stimulus":"[A] option 1, [L] option 2, [G] neither","key_press":65,"name":"choice","trial_type":"html-keyboard-response","trial_index":164,"time_elapsed":394419,"internal_node_id":"0.0-164.0","subject":"S1C1202","sona":"41054","block":5,"time":"2021-09-05T00:02:52.592Z","response":"1st","certainty":"high","char":"A","transposition":-2,"order":["swapped","shifted"],"probe_pitches":[8,3,8,3,8,5,0,-2,10,8,0,5],"shifted_pitches":[8,3,8,3,8,5,1,-2,10,8,0,5],"swapped_pitches":[8,3,8,3,8,0,5,-2,10,8,0,5],"shift_direction":1,"question_num":141,"has_decoy":false},{"rt":75964.70000000298,"stimulus":"[A] option 1, [L] option 2, [G] neither","key_press":76,"name":"choice","trial_type":"html-keyboard-response","trial_index":175,"time_elapsed":488623,"internal_node_id":"0.0-175.0","subject":"S1C1202","sona":"41054","block":5,"time":"2021-09-05T00:02:52.592Z","response":"2nd","certainty":"high","char":"L","transposition":-2,"order":["swapped","shifted"],"probe_pitches":[6,9,5,9,2,7,-1,4,10,0,2,7],"shifted_pitches":[6,9,5,9,2,8,-1,4,10,0,2,7],"swapped_pitches":[6,9,5,9,2,-1,7,4,10,0,2,7],"shift_direction":1,"question_num":151,"has_decoy":false},{"rt":21280.70000000298,"stimulus":"[A] option 1, [L] option 2, [G] neither","key_press":65,"name":"choice","trial_type":"html-keyboard-response","trial_index":186,"time_elapsed":534600,"internal_node_id":"0.0-186.0","subject":"S1C1202","sona":"41054","block":5,"time":"2021-09-05T00:02:52.592Z","response":"1st","certainty":"high","char":"A","transposition":2,"order":["shifted","swapped"],"probe_pitches":[-2,1,3,10,1,3,10,8,6,8,10,1],"shifted_pitches":[-2,1,3,10,1,3,9,8,6,8,10,1],"swapped_pitches":[-2,1,3,10,1,10,3,8,6,8,10,1],"shift_direction":-1,"question_num":161,"has_decoy":false},{"rt":854,"stimulus":"[A] option 1, [L] option 2, [G] neither","key_press":65,"name":"choice","trial_type":"html-keyboard-response","trial_index":197,"time_elapsed":570257,"internal_node_id":"0.0-197.0","subject":"S1C1202","sona":"41054","block":5,"time":"2021-09-05T00:02:52.592Z","response":"1st","certainty":"high","char":"A","transposition":3,"order":["shifted","swapped"],"probe_pitches":[3,6,10,4,-2,8,0,3,6,4,0,-1],"shifted_pitches":[3,6,10,4,-2,8,1,3,6,4,0,-1],"swapped_pitches":[3,6,10,4,-2,0,8,3,6,4,0,-1],"shift_direction":1,"question_num":171,"has_decoy":false},{"rt":565.8999999985099,"stimulus":"[A] option 1, [L] option 2, [G] neither","key_press":65,"name":"choice","trial_type":"html-keyboard-response","trial_index":208,"time_elapsed":589344,"internal_node_id":"0.0-208.0","subject":"S1C1202","sona":"41054","block":5,"time":"2021-09-05T00:02:52.592Z","response":"1st","certainty":"high","char":"A","transposition":2,"order":["swapped","shifted"],"probe_pitches":[1,-2,-1,5,2,-2,7,0,-2,-1,5,0],"shifted_pitches":[1,-2,-1,5,2,-3,7,0,-2,-1,5,0],"swapped_pitches":[1,-2,-1,5,2,7,-2,0,-2,-1,5,0],"shift_direction":-1,"question_num":181,"has_decoy":false},{"rt":7924.39999999851,"stimulus":"[A] option 1, [L] option 2, [G] neither","key_press":76,"name":"choice","trial_type":"html-keyboard-response","trial_index":219,"time_elapsed":625417,"internal_node_id":"0.0-219.0","subject":"S1C1202","sona":"41054","block":5,"time":"2021-09-05T00:02:52.592Z","response":"2nd","certainty":"high","char":"L","transposition":3,"order":["shifted","swapped"],"probe_pitches":[3,7,0,7,5,10,3,-2,10,-2,0,-2],"shifted_pitches":[3,7,0,7,5,10,4,-2,10,-2,0,-2],"swapped_pitches":[3,7,0,7,5,3,10,-2,10,-2,0,-2],"shift_direction":1,"question_num":191,"has_decoy":false}]