[{"rt":24652.5,"stimulus":"[A] option 1, [L] option 2, [G] neither","key_press":65,"name":"choice","trial_type":"html-keyboard-response","trial_index":10,"time_elapsed":42447,"internal_node_id":"0.0-10.0","subject":"S1C1202","sona":"41054","block":4,"time":"2021-09-04T23:52:19.275Z","response":"1st","certainty":"high","char":"A","transposition":1,"order":["swapped","shifted"],"probe_pitches":[-2,3,7,9,8,0,1,7,8,4,3,-1],"shifted_pitches":[-2,3,7,9,8,0,2,7,8,4,3,-1],"swapped_pitches":[-2,3,7,9,8,1,0,7,8,4,3,-1],"shift_direction":1,"question_num":1,"has_decoy":false},{"rt":1643.6000000014901,"stimulus":"[A] option 1, [L] option 2, [G] neither","key_press":76,"name":"choice","trial_type":"html-keyboard-response","trial_index":21,"time_elapsed":68756,"internal_node_id":"0.0-21.0","subject":"S1C1202","sona":"41054","block":4,"time":"2021-09-04T23:52:19.275Z","response":"2nd","certainty":"high","char":"L","transposition":-3,"order":["swapped","shifted"],"probe_pitches":[-2,3,1,8,1,8,-2,10,6,-2,3,10],"shifted_pitches":[-2,3,1,8,1,8,-3,10,6,-2,3,10],"swapped_pitches":[-2,3,1,8,1,-2,8,10,6,-2,3,10],"shift_direction":-1,"question_num":11,"has_decoy":false},{"rt":624,"stimulus":"[A] option 1, [L] option 2, [G] neither","key_press":65,"name":"choice","trial_type":"html-keyboard-response","trial_index":32,"time_elapsed":98621,"internal_node_id":"0.0-32.0","subject":"S1C1202","sona":"41054","block":4,"time":"2021-09-04T23:52:19.275Z","response":"1st","certainty":"high","char":"A","transposition":2,"order":["swapped","shifted"],"probe_pitches":[9,8,2,4,-2,4,8,-3,-1,9,-3,1],"shifted_pitches":[9,8,2,4,-2,3,8,-3,-1,9,-3,1],"swapped_pitches":[9,8,2,4,-2,8,4,-3,-1,9,-3,1],"shift_direction":-1,"question_num":21,"has_decoy":false},{"rt":2364,"stimulus":"[A] option 1, [L] option 2, [G] neither","key_press":76,"name":"choice","trial_type":"html-keyboard-response","trial_index":43,"time_elapsed":125694,"internal_node_id":"0.0-43.0","subject":"S1C1202","sona":"41054","block":4,"time":"2021-09-04T23:52:19.275Z","response":"2nd","certainty":"high","char":"L","transposition":-3,"order":["swapped","shifted"],"probe_pitches":[2,-2,1,4,2,7,4,0,1,4,0,4],"shifted_pitches":[2,-2,1,4,2,8,4,0,1,4,0,4],"swapped_pitches":[2,-2,1,4,2,4,7,0,1,4,0,4],"shift_direction":1,"question_num":31,"has_decoy":false},{"rt":12215.20000000298,"stimulus":"[A] option 1, [L] option 2, [G] neither","key_press":65,"name":"choice","trial_type":"html-keyboard-response","trial_index":54,"time_elapsed":160697,"internal_node_id":"0.0-54.0","subject":"S1C1202","sona":"41054","block":4,"time":"2021-09-04T23:52:19.275Z","response":"1st","certainty":"high","char":"A","transposition":-2,"order":["swapped","shifted"],"probe_pitches":[-2,1,-2,3,5,-2,8,1,5,-2,3,8],"shifted_pitches":[-2,1,-2,3,5,-2,7,1,5,-2,3,8],"swapped_pitches":[-2,1,-2,3,5,8,-2,1,5,-2,3,8],"shift_direction":-1,"question_num":41,"has_decoy":false},{"rt":761.5,"stimulus":"[A] option 1, [L] option 2, [G] neither","key_press":76,"name":"choice","trial_type":"html-keyboard-response","trial_index":65,"time_elapsed":184224,"internal_node_id":"0.0-65.0","subject":"S1C1202","sona":"41054","block":4,"time":"2021-09-04T23:52:19.275Z","response":"2nd","certainty":"high","char":"L","transposition":-1,"order":["shifted","swapped"],"probe_pitches":[5,10,5,3,8,1,3,8,5,10,8,-2],"shifted_pitches":[5,10,5,3,8,0,3,8,5,10,8,-2],"swapped_pitches":[5,10,5,3,8,3,1,8,5,10,8,-2],"shift_direction":-1,"question_num":51,"has_decoy":false},{"rt":1254.6000000014901,"stimulus":"[A] option 1, [L] option 2, [G] neither","key_press":65,"name":"choice","trial_type":"html-keyboard-response","trial_index":76,"time_elapsed":211447,"internal_node_id":"0.0-76.0","subject":"S1C1202","sona":"41054","block":4,"time":"2021-09-04T23:52:19.275Z","response":"1st","certainty":"high","char":"A","transposition":2,"order":["swapped","shifted"],"probe_pitches":[-2,3,0,-2,0,7,5,3,5,3,5,0],"shifted_pitches":[-2,3,0,-2,0,7,6,3,5,3,5,0],"swapped_pitches":[-2,3,0,-2,0,5,7,3,5,3,5,0],"shift_direction":1,"question_num":61,"has_decoy":false},{"rt":375.3999999985099,"stimulus":"[A] option 1, [L] option 2, [G] neither","key_press":76,"name":"choice","trial_type":"html-keyboard-response","trial_index":87,"time_elapsed":237149,"internal_node_id":"0.0-87.0","subject":"S1C1202","sona":"41054","block":4,"time":"2021-09-04T23:52:19.275Z","response":"2nd","certainty":"high","char":"L","transposition":0,"order":["shifted","swapped"],"probe_pitches":[8,3,-2,1,-2,8,3,10,6,-2,8,1],"shifted_pitches":[8,3,-2,1,-2,9,3,10,6,-2,8,1],"swapped_pitches":[8,3,-2,1,-2,3,8,10,6,-2,8,1],"shift_direction":1,"question_num":71,"has_decoy":false},{"rt":3970.10000000149,"stimulus":"[A] option 1, [L] option 2, [G] neither","key_press":76,"name":"choice","trial_type":"html-keyboard-response","trial_index":98,"time_elapsed":260274,"internal_node_id":"0.0-98.0","subject":"S1C1202","sona":"41054","block":4,"time":"2021-09-04T23:52:19.275Z","response":"2nd","certainty":"high","char":"L","transposition":-1,"order":["swapped","shifted"],"probe_pitches":[-2,4,0,4,-3,6,8,3,9,1,2,-1],"shifted_pitches":[-2,4,0,4,-3,6,7,3,9,1,2,-1],"swapped_pitches":[-2,4,0,4,-3,8,6,3,9,1,2,-1],"shift_direction":-1,"question_num":81,"has_decoy":false},{"rt":740.1000000014901,"stimulus":"[A] option 1, [L] option 2, [G] neither","key_press":76,"name":"choice","trial_type":"html-keyboard-response","trial_index":109,"time_elapsed":284483,"internal_node_id":"0.0-109.0","subject":"S1C1202","sona":"41054","block":4,"time":"2021-09-04T23:52:19.275Z","response":"2nd","certainty":"high","char":"L","transposition":0,"order":["shifted","swapped"],"probe_pitches":[0,-1,1,7,1,2,5,3,9,4,2,0],"shifted_pitches":[0,-1,1,7,1,2,6,3,9,4,2,0],"swapped_pitches":[0,-1,1,7,1,5,2,3,9,4,2,0],"shift_direction":1,"question_num":91,"has_decoy":false},{"rt":3629.2000000029802,"stimulus":"[A] option 1, [L] option 2, [G] neither","key_press":76,"name":"choice","trial_type":"html-keyboard-response","trial_index":120,"time_elapsed":309708,"internal_node_id":"0.0-120.0","subject":"S1C1202","sona":"41054","block":4,"time":"2021-09-04T23:52:19.275Z","response":"2nd","certainty":"high","char":"L","transposition":3,"order":["shifted","swapped"],"probe_pitches":[-2,3,9,5,8,1,2,-1,1,-3,6,-1],"shifted_pitches":[-2,3,9,5,8,0,2,-1,1,-3,6,-1],"swapped_pitches":[-2,3,9,5,8,2,1,-1,1,-3,6,-1],"shift_direction":-1,"question_num":101,"has_decoy":false},{"rt":803.3999999985099,"stimulus":"[A] option 1, [L] option 2, [G] neither","key_press":65,"name":"choice","trial_type":"html-keyboard-response","trial_index":131,"time_elapsed":330109,"internal_node_id":"0.0-131.0","subject":"S1C1202","sona":"41054","block":4,"time":"2021-09-04T23:52:19.275Z","response":"1st","certainty":"high","char":"A","transposition":-2,"order":["swapped","shifted"],"probe_pitches":[5,0,2,7,-1,3,6,-2,2,6,0,3],"shifted_pitches":[5,0,2,7,-1,4,6,-2,2,6,0,3],"swapped_pitches":[5,0,2,7,-1,6,3,-2,2,6,0,3],"shift_direction":1,"question_num":111,"has_decoy":false},{"rt":581.2999999970198,"stimulus":"[A] option 1, [L] option 2, [G] neither","key_press":65,"name":"choice","trial_type":"html-keyboard-response","trial_index":142,"time_elapsed":351609,"internal_node_id":"0.0-142.0","subject":"S1C1202","sona":"41054","block":4,"time":"2021-09-04T23:52:19.275Z","response":"1st","certainty":"high","char":"A","transposition":-3,"order":["shifted","swapped"],"probe_pitches":[10,5,0,7,10,5,2,-2,2,0,10,5],"shifted_pitches":[10,5,0,7,10,4,2,-2,2,0,10,5],"swapped_pitches":[10,5,0,7,10,2,5,-2,2,0,10,5],"shift_direction":-1,"question_num":121,"has_decoy":false},{"rt":3446.7000000029802,"stimulus":"[A] option 1, [L] option 2, [G] neither","key_press":65,"name":"choice","trial_type":"html-keyboard-response","trial_index":153,"time_elapsed":376319,"internal_node_id":"0.0-153.0","subject":"S1C1202","sona":"41054","block":4,"time":"2021-09-04T23:52:19.275Z","response":"1st","certainty":"high","char":"A","transposition":-3,"order":["shifted","swapped"],"probe_pitches":[5,0,5,-3,4,-2,0,2,1,3,2,-2],"shifted_pitches":[5,0,5,-3,4,-2,-1,2,1,3,2,-2],"swapped_pitches":[5,0,5,-3,4,0,-2,2,1,3,2,-2],"shift_direction":-1,"question_num":131,"has_decoy":false},{"rt":2580.89999999851,"stimulus":"[A] option 1, [L] option 2, [G] neither","key_press":76,"name":"choice","trial_type":"html-keyboard-response","trial_index":164,"time_elapsed":398626,"internal_node_id":"0.0-164.0","subject":"S1C1202","sona":"41054","block":4,"time":"2021-09-04T23:52:19.275Z","response":"2nd","certainty":"high","char":"L","transposition":3,"order":["shifted","swapped"],"probe_pitches":[5,2,5,2,7,10,2,5,0,2,10,2],"shifted_pitches":[5,2,5,2,7,11,2,5,0,2,10,2],"swapped_pitches":[5,2,5,2,7,2,10,5,0,2,10,2],"shift_direction":1,"question_num":141,"has_decoy":false},{"rt":124755.19999999553,"stimulus":"[A] option 1, [L] option 2, [G] neither","key_press":76,"name":"choice","trial_type":"html-keyboard-response","trial_index":175,"time_elapsed":545393,"internal_node_id":"0.0-175.0","subject":"S1C1202","sona":"41054","block":4,"time":"2021-09-04T23:52:19.275Z","response":"2nd","certainty":"high","char":"L","transposition":-1,"order":["shifted","swapped"],"probe_pitches":[-3,3,-2,6,-3,1,4,6,1,8,7,4],"shifted_pitches":[-3,3,-2,6,-3,1,5,6,1,8,7,4],"swapped_pitches":[-3,3,-2,6,-3,4,1,6,1,8,7,4],"shift_direction":1,"question_num":151,"has_decoy":false},{"rt":2972.5,"stimulus":"[A] option 1, [L] option 2, [G] neither","key_press":76,"name":"choice","trial_type":"html-keyboard-response","trial_index":186,"time_elapsed":584157,"internal_node_id":"0.0-186.0","subject":"S1C1202","sona":"41054","block":4,"time":"2021-09-04T23:52:19.275Z","response":"2nd","certainty":"high","char":"L","transposition":-1,"order":["swapped","shifted"],"probe_pitches":[5,3,10,5,10,0,5,3,-2,0,8,0],"shifted_pitches":[5,3,10,5,10,1,5,3,-2,0,8,0],"swapped_pitches":[5,3,10,5,10,5,0,3,-2,0,8,0],"shift_direction":1,"question_num":161,"has_decoy":false},{"rt":816.8999999985099,"stimulus":"[A] option 1, [L] option 2, [G] neither","key_press":65,"name":"choice","trial_type":"html-keyboard-response","trial_index":197,"time_elapsed":605724,"internal_node_id":"0.0-197.0","subject":"S1C1202","sona":"41054","block":4,"time":"2021-09-04T23:52:19.275Z","response":"1st","certainty":"high","char":"A","transposition":-2,"order":["shifted","swapped"],"probe_pitches":[-1,4,0,3,-1,2,-2,9,3,7,2,8],"shifted_pitches":[-1,4,0,3,-1,1,-2,9,3,7,2,8],"swapped_pitches":[-1,4,0,3,-1,-2,2,9,3,7,2,8],"shift_direction":-1,"question_num":171,"has_decoy":false},{"rt":1014.6000000014901,"stimulus":"[A] option 1, [L] option 2, [G] neither","key_press":76,"name":"choice","trial_type":"html-keyboard-response","trial_index":208,"time_elapsed":624887,"internal_node_id":"0.0-208.0","subject":"S1C1202","sona":"41054","block":4,"time":"2021-09-04T23:52:19.275Z","response":"2nd","certainty":"high","char":"L","transposition":-2,"order":["shifted","swapped"],"probe_pitches":[5,8,3,8,5,8,-2,5,-2,8,10,0],"shifted_pitches":[5,8,3,8,5,8,-3,5,-2,8,10,0],"swapped_pitches":[5,8,3,8,5,-2,8,5,-2,8,10,0],"shift_direction":-1,"question_num":181,"has_decoy":false},{"rt":543.6999999955297,"stimulus":"[A] option 1, [L] option 2, [G] neither","key_press":76,"name":"choice","trial_type":"html-keyboard-response","trial_index":219,"time_elapsed":648047,"internal_node_id":"0.0-219.0","subject":"S1C1202","sona":"41054","block":4,"time":"2021-09-04T23:52:19.275Z","response":"2nd","certainty":"high","char":"L","transposition":1,"order":["swapped","shifted"],"probe_pitches":[7,3,10,5,3,5,10,3,-2,5,7,0],"shifted_pitches":[7,3,10,5,3,5,11,3,-2,5,7,0],"swapped_pitches":[7,3,10,5,3,10,5,3,-2,5,7,0],"shift_direction":1,"question_num":191,"has_decoy":false}]