[{"rt":584.1999999955297,"stimulus":"[A] option 1, [L] option 2, [G] neither","key_press":76,"name":"choice","trial_type":"html-keyboard-response","trial_index":10,"time_elapsed":59623,"internal_node_id":"0.0-10.0","subject":"S1C1202","sona":"41054","block":2,"time":"2021-09-04T23:27:35.195Z","response":"2nd","certainty":"high","char":"L","transposition":3,"order":["swapped","shifted"],"probe_pitches":[6,3,6,-2,3,10,1,3,6,8,1,-2],"shifted_pitches":[6,3,6,-2,3,9,1,3,6,8,1,-2],"swapped_pitches":[6,3,6,-2,3,1,10,3,6,8,1,-2],"shift_direction":-1,"question_num":1,"has_decoy":false},{"rt":365.8999999985099,"stimulus":"[A] option 1, [L] option 2, [G] neither","key_press":76,"name":"choice","trial_type":"html-keyboard-response","trial_index":21,"time_elapsed":82034,"internal_node_id":"0.0-21.0","subject":"S1C1202","sona":"41054","block":2,"time":"2021-09-04T23:27:35.195Z","response":"2nd","certainty":"high","char":"L","transposition":-3,"order":["shifted","swapped"],"probe_pitches":[10,8,5,-2,3,8,0,10,8,0,8,3],"shifted_pitches":[10,8,5,-2,3,9,0,10,8,0,8,3],"swapped_pitches":[10,8,5,-2,3,0,8,10,8,0,8,3],"shift_direction":1,"question_num":11,"has_decoy":false},{"rt":790.3000000044703,"stimulus":"[A] option 1, [L] option 2, [G] neither","key_press":65,"name":"choice","trial_type":"html-keyboard-response","trial_index":32,"time_elapsed":108564,"internal_node_id":"0.0-32.0","subject":"S1C1202","sona":"41054","block":2,"time":"2021-09-04T23:27:35.195Z","response":"1st","certainty":"high","char":"A","transposition":-3,"order":["shifted","swapped"],"probe_pitches":[1,5,3,-2,3,10,5,8,3,8,-2,3],"shifted_pitches":[1,5,3,-2,3,9,5,8,3,8,-2,3],"swapped_pitches":[1,5,3,-2,3,5,10,8,3,8,-2,3],"shift_direction":-1,"question_num":21,"has_decoy":false},{"rt":524.5,"stimulus":"[A] option 1, [L] option 2, [G] neither","key_press":76,"name":"choice","trial_type":"html-keyboard-response","trial_index":43,"time_elapsed":130368,"internal_node_id":"0.0-43.0","subject":"S1C1202","sona":"41054","block":2,"time":"2021-09-04T23:27:35.195Z","response":"2nd","certainty":"high","char":"L","transposition":-1,"order":["shifted","swapped"],"probe_pitches":[10,5,7,4,5,2,12,14,13,2,4,10],"shifted_pitches":[10,5,7,4,5,2,11,14,13,2,4,10],"swapped_pitches":[10,5,7,4,5,12,2,14,13,2,4,10],"shift_direction":-1,"question_num":31,"has_decoy":false},{"rt":103.89999999850988,"stimulus":"[A] option 1, [L] option 2, [G] neither","key_press":76,"name":"choice","trial_type":"html-keyboard-response","trial_index":54,"time_elapsed":150251,"internal_node_id":"0.0-54.0","subject":"S1C1202","sona":"41054","block":2,"time":"2021-09-04T23:27:35.195Z","response":"2nd","certainty":"high","char":"L","transposition":-1,"order":["swapped","shifted"],"probe_pitches":[14,8,9,3,9,4,11,14,11,9,5,2],"shifted_pitches":[14,8,9,3,9,4,10,14,11,9,5,2],"swapped_pitches":[14,8,9,3,9,11,4,14,11,9,5,2],"shift_direction":-1,"question_num":41,"has_decoy":false},{"rt":441.29999999701977,"stimulus":"[A] option 1, [L] option 2, [G] neither","key_press":76,"name":"choice","trial_type":"html-keyboard-response","trial_index":65,"time_elapsed":169980,"internal_node_id":"0.0-65.0","subject":"S1C1202","sona":"41054","block":2,"time":"2021-09-04T23:27:35.195Z","response":"2nd","certainty":"high","char":"L","transposition":2,"order":["swapped","shifted"],"probe_pitches":[13,14,13,6,2,4,3,13,9,4,2,9],"shifted_pitches":[13,14,13,6,2,5,3,13,9,4,2,9],"swapped_pitches":[13,14,13,6,2,3,4,13,9,4,2,9],"shift_direction":1,"question_num":51,"has_decoy":false},{"rt":2407,"stimulus":"[A] option 1, [L] option 2, [G] neither","key_press":65,"name":"choice","trial_type":"html-keyboard-response","trial_index":76,"time_elapsed":195479,"internal_node_id":"0.0-76.0","subject":"S1C1202","sona":"41054","block":2,"time":"2021-09-04T23:27:35.195Z","response":"1st","certainty":"high","char":"A","transposition":-2,"order":["shifted","swapped"],"probe_pitches":[11,8,2,8,10,8,12,5,6,11,13,11],"shifted_pitches":[11,8,2,8,10,7,12,5,6,11,13,11],"swapped_pitches":[11,8,2,8,10,12,8,5,6,11,13,11],"shift_direction":-1,"question_num":61,"has_decoy":false},{"rt":86485.60000000149,"stimulus":"[A] option 1, [L] option 2, [G] neither","key_press":76,"name":"choice","trial_type":"html-keyboard-response","trial_index":87,"time_elapsed":303402,"internal_node_id":"0.0-87.0","subject":"S1C1202","sona":"41054","block":2,"time":"2021-09-04T23:27:35.195Z","response":"2nd","certainty":"high","char":"L","transposition":-3,"order":["shifted","swapped"],"probe_pitches":[10,11,6,5,10,7,5,3,2,3,6,14],"shifted_pitches":[10,11,6,5,10,8,5,3,2,3,6,14],"swapped_pitches":[10,11,6,5,10,5,7,3,2,3,6,14],"shift_direction":1,"question_num":71,"has_decoy":false},{"rt":6836.5,"stimulus":"[A] option 1, [L] option 2, [G] neither","key_press":65,"name":"choice","trial_type":"html-keyboard-response","trial_index":98,"time_elapsed":334333,"internal_node_id":"0.0-98.0","subject":"S1C1202","sona":"41054","block":2,"time":"2021-09-04T23:27:35.195Z","response":"1st","certainty":"high","char":"A","transposition":-3,"order":["swapped","shifted"],"probe_pitches":[8,4,7,6,3,6,12,11,3,14,3,6],"shifted_pitches":[8,4,7,6,3,6,13,11,3,14,3,6],"swapped_pitches":[8,4,7,6,3,12,6,11,3,14,3,6],"shift_direction":1,"question_num":81,"has_decoy":false},{"rt":1478.1000000014901,"stimulus":"[A] option 1, [L] option 2, [G] neither","key_press":76,"name":"choice","trial_type":"html-keyboard-response","trial_index":109,"time_elapsed":362094,"internal_node_id":"0.0-109.0","subject":"S1C1202","sona":"41054","block":2,"time":"2021-09-04T23:27:35.195Z","response":"2nd","certainty":"high","char":"L","transposition":-2,"order":["swapped","shifted"],"probe_pitches":[7,9,13,7,11,14,5,12,9,2,13,9],"shifted_pitches":[7,9,13,7,11,14,6,12,9,2,13,9],"swapped_pitches":[7,9,13,7,11,5,14,12,9,2,13,9],"shift_direction":1,"question_num":91,"has_decoy":false},{"rt":13498.5,"stimulus":"[A] option 1, [L] option 2, [G] neither","key_press":76,"name":"choice","trial_type":"html-keyboard-response","trial_index":120,"time_elapsed":396850,"internal_node_id":"0.0-120.0","subject":"S1C1202","sona":"41054","block":2,"time":"2021-09-04T23:27:35.195Z","response":"2nd","certainty":"high","char":"L","transposition":0,"order":["shifted","swapped"],"probe_pitches":[5,9,6,10,14,5,11,7,5,13,4,7],"shifted_pitches":[5,9,6,10,14,5,12,7,5,13,4,7],"swapped_pitches":[5,9,6,10,14,11,5,7,5,13,4,7],"shift_direction":1,"question_num":101,"has_decoy":false},{"rt":152.60000000149012,"stimulus":"[A] option 1, [L] option 2, [G] neither","key_press":65,"name":"choice","trial_type":"html-keyboard-response","trial_index":131,"time_elapsed":422010,"internal_node_id":"0.0-131.0","subject":"S1C1202","sona":"41054","block":2,"time":"2021-09-04T23:27:35.195Z","response":"1st","certainty":"high","char":"A","transposition":-2,"order":["swapped","shifted"],"probe_pitches":[0,5,7,10,5,0,-2,5,-2,5,10,2],"shifted_pitches":[0,5,7,10,5,0,-1,5,-2,5,10,2],"swapped_pitches":[0,5,7,10,5,-2,0,5,-2,5,10,2],"shift_direction":1,"question_num":111,"has_decoy":false},{"rt":3558.5,"stimulus":"[A] option 1, [L] option 2, [G] neither","key_press":76,"name":"choice","trial_type":"html-keyboard-response","trial_index":142,"time_elapsed":444482,"internal_node_id":"0.0-142.0","subject":"S1C1202","sona":"41054","block":2,"time":"2021-09-04T23:27:35.195Z","response":"2nd","certainty":"high","char":"L","transposition":-2,"order":["shifted","swapped"],"probe_pitches":[10,5,1,-2,5,3,8,1,10,-2,3,-2],"shifted_pitches":[10,5,1,-2,5,2,8,1,10,-2,3,-2],"swapped_pitches":[10,5,1,-2,5,8,3,1,10,-2,3,-2],"shift_direction":-1,"question_num":121,"has_decoy":false},{"rt":2394.5,"stimulus":"[A] option 1, [L] option 2, [G] neither","key_press":65,"name":"choice","trial_type":"html-keyboard-response","trial_index":153,"time_elapsed":469041,"internal_node_id":"0.0-153.0","subject":"S1C1202","sona":"41054","block":2,"time":"2021-09-04T23:27:35.195Z","response":"1st","certainty":"high","char":"A","transposition":2,"order":["shifted","swapped"],"probe_pitches":[7,10,7,0,3,0,-2,3,5,7,10,3],"shifted_pitches":[7,10,7,0,3,0,-3,3,5,7,10,3],"swapped_pitches":[7,10,7,0,3,-2,0,3,5,7,10,3],"shift_direction":-1,"question_num":131,"has_decoy":false},{"rt":2255.7000000029802,"stimulus":"[A] option 1, [L] option 2, [G] neither","key_press":76,"name":"choice","trial_type":"html-keyboard-response","trial_index":164,"time_elapsed":492245,"internal_node_id":"0.0-164.0","subject":"S1C1202","sona":"41054","block":2,"time":"2021-09-04T23:27:35.195Z","response":"2nd","certainty":"high","char":"L","transposition":-1,"order":["swapped","shifted"],"probe_pitches":[8,10,8,5,3,-2,0,8,5,3,-2,3],"shifted_pitches":[8,10,8,5,3,-2,1,8,5,3,-2,3],"swapped_pitches":[8,10,8,5,3,0,-2,8,5,3,-2,3],"shift_direction":1,"question_num":141,"has_decoy":false},{"rt":7266,"stimulus":"[A] option 1, [L] option 2, [G] neither","key_press":65,"name":"choice","trial_type":"html-keyboard-response","trial_index":175,"time_elapsed":526583,"internal_node_id":"0.0-175.0","subject":"S1C1202","sona":"41054","block":2,"time":"2021-09-04T23:27:35.195Z","response":"1st","certainty":"high","char":"A","transposition":1,"order":["swapped","shifted"],"probe_pitches":[5,10,5,-2,7,-2,0,10,-2,0,7,3],"shifted_pitches":[5,10,5,-2,7,-2,1,10,-2,0,7,3],"swapped_pitches":[5,10,5,-2,7,0,-2,10,-2,0,7,3],"shift_direction":1,"question_num":151,"has_decoy":false},{"rt":8153.89999999851,"stimulus":"[A] option 1, [L] option 2, [G] neither","key_press":76,"name":"choice","trial_type":"html-keyboard-response","trial_index":186,"time_elapsed":557887,"internal_node_id":"0.0-186.0","subject":"S1C1202","sona":"41054","block":2,"time":"2021-09-04T23:27:35.195Z","response":"2nd","certainty":"high","char":"L","transposition":1,"order":["shifted","swapped"],"probe_pitches":[6,12,7,5,14,10,7,6,2,8,10,7],"shifted_pitches":[6,12,7,5,14,9,7,6,2,8,10,7],"swapped_pitches":[6,12,7,5,14,7,10,6,2,8,10,7],"shift_direction":-1,"question_num":161,"has_decoy":false},{"rt":15837.89999999851,"stimulus":"[A] option 1, [L] option 2, [G] neither","key_press":76,"name":"choice","trial_type":"html-keyboard-response","trial_index":197,"time_elapsed":597933,"internal_node_id":"0.0-197.0","subject":"S1C1202","sona":"41054","block":2,"time":"2021-09-04T23:27:35.195Z","response":"2nd","certainty":"high","char":"L","transposition":0,"order":["shifted","swapped"],"probe_pitches":[-2,2,0,2,5,10,7,0,7,0,-2,0],"shifted_pitches":[-2,2,0,2,5,11,7,0,7,0,-2,0],"swapped_pitches":[-2,2,0,2,5,7,10,0,7,0,-2,0],"shift_direction":1,"question_num":171,"has_decoy":false},{"rt":2813.1999999955297,"stimulus":"[A] option 1, [L] option 2, [G] neither","key_press":65,"name":"choice","trial_type":"html-keyboard-response","trial_index":208,"time_elapsed":623579,"internal_node_id":"0.0-208.0","subject":"S1C1202","sona":"41054","block":2,"time":"2021-09-04T23:27:35.195Z","response":"1st","certainty":"high","char":"A","transposition":-1,"order":["swapped","shifted"],"probe_pitches":[8,3,10,3,8,3,1,10,1,6,3,6],"shifted_pitches":[8,3,10,3,8,3,0,10,1,6,3,6],"swapped_pitches":[8,3,10,3,8,1,3,10,1,6,3,6],"shift_direction":-1,"question_num":181,"has_decoy":false},{"rt":5747,"stimulus":"[A] option 1, [L] option 2, [G] neither","key_press":76,"name":"choice","trial_type":"html-keyboard-response","trial_index":219,"time_elapsed":649606,"internal_node_id":"0.0-219.0","subject":"S1C1202","sona":"41054","block":2,"time":"2021-09-04T23:27:35.195Z","response":"2nd","certainty":"high","char":"L","transposition":3,"order":["swapped","shifted"],"probe_pitches":[11,5,3,9,3,5,11,6,3,14,9,3],"shifted_pitches":[11,5,3,9,3,4,11,6,3,14,9,3],"swapped_pitches":[11,5,3,9,3,11,5,6,3,14,9,3],"shift_direction":-1,"question_num":191,"has_decoy":false}]