[{"rt":13682.80000000447,"stimulus":"[A] option 1, [L] option 2, [G] neither","key_press":76,"name":"choice","trial_type":"html-keyboard-response","trial_index":15,"time_elapsed":344708,"internal_node_id":"0.0-15.0","response":"2nd","certainty":"high","char":"L","transposition":1,"order":["shifted","swapped"],"probe_pitches":[10,6,8,6,-1,8,5,10,9,-2,10,0],"shifted_pitches":[10,6,8,6,-1,7,5,10,9,-2,10,0],"swapped_pitches":[10,6,8,6,-1,5,8,10,9,-2,10,0],"shift_direction":-1,"question_num":1,"has_decoy":false,"subject":"S1C1202","sona":"41054","block":1,"time":"2021-09-04T23:16:37.158Z"},{"rt":2156.2000000029802,"stimulus":"[A] option 1, [L] option 2, [G] neither","key_press":76,"name":"choice","trial_type":"html-keyboard-response","trial_index":26,"time_elapsed":368227,"internal_node_id":"0.0-26.0","response":"2nd","certainty":"high","char":"L","transposition":-3,"order":["swapped","shifted"],"probe_pitches":[7,6,9,7,9,7,6,1,8,10,8,-1],"shifted_pitches":[7,6,9,7,9,7,5,1,8,10,8,-1],"swapped_pitches":[7,6,9,7,9,6,7,1,8,10,8,-1],"shift_direction":-1,"question_num":11,"has_decoy":false,"subject":"S1C1202","sona":"41054","block":1,"time":"2021-09-04T23:16:37.158Z"},{"rt":1567,"stimulus":"[A] option 1, [L] option 2, [G] neither","key_press":65,"name":"choice","trial_type":"html-keyboard-response","trial_index":37,"time_elapsed":395808,"internal_node_id":"0.0-37.0","response":"1st","certainty":"high","char":"A","transposition":0,"order":["shifted","swapped"],"probe_pitches":[9,4,2,4,9,4,0,7,0,-3,0,7],"shifted_pitches":[9,4,2,4,9,5,0,7,0,-3,0,7],"swapped_pitches":[9,4,2,4,9,0,4,7,0,-3,0,7],"shift_direction":1,"question_num":21,"has_decoy":false,"subject":"S1C1202","sona":"41054","block":1,"time":"2021-09-04T23:16:37.158Z"},{"rt":2350.89999999851,"stimulus":"[A] option 1, [L] option 2, [G] neither","key_press":65,"name":"choice","trial_type":"html-keyboard-response","trial_index":48,"time_elapsed":417515,"internal_node_id":"0.0-48.0","response":"1st","certainty":"high","char":"A","transposition":-1,"order":["swapped","shifted"],"probe_pitches":[6,4,2,9,2,9,4,2,-3,-1,-3,6],"shifted_pitches":[6,4,2,9,2,8,4,2,-3,-1,-3,6],"swapped_pitches":[6,4,2,9,2,4,9,2,-3,-1,-3,6],"shift_direction":-1,"question_num":31,"has_decoy":false,"subject":"S1C1202","sona":"41054","block":1,"time":"2021-09-04T23:16:37.158Z"},{"rt":5224.39999999851,"stimulus":"[A] option 1, [L] option 2, [G] neither","key_press":65,"name":"choice","trial_type":"html-keyboard-response","trial_index":59,"time_elapsed":442164,"internal_node_id":"0.0-59.0","response":"1st","certainty":"high","char":"A","transposition":-1,"order":["shifted","swapped"],"probe_pitches":[2,-1,4,-1,2,-1,7,9,-3,2,4,7],"shifted_pitches":[2,-1,4,-1,2,-1,8,9,-3,2,4,7],"swapped_pitches":[2,-1,4,-1,2,7,-1,9,-3,2,4,7],"shift_direction":1,"question_num":41,"has_decoy":false,"subject":"S1C1202","sona":"41054","block":1,"time":"2021-09-04T23:16:37.158Z"},{"rt":9615.29999999702,"stimulus":"[A] option 1, [L] option 2, [G] neither","key_press":71,"name":"choice","trial_type":"html-keyboard-response","trial_index":70,"time_elapsed":472029,"internal_node_id":"0.0-70.0","response":"neither","certainty":"high","char":"G","transposition":-3,"order":["swapped","shifted"],"probe_pitches":[4,6,1,4,-1,1,6,4,9,1,9,-3],"shifted_pitches":[4,6,1,4,-1,1,7,4,9,1,9,-3],"swapped_pitches":[4,6,1,4,-1,6,1,4,9,1,9,-3],"shift_direction":1,"question_num":51,"has_decoy":false,"subject":"S1C1202","sona":"41054","block":1,"time":"2021-09-04T23:16:37.158Z"},{"rt":683.1000000014901,"stimulus":"[A] option 1, [L] option 2, [G] neither","key_press":76,"name":"choice","trial_type":"html-keyboard-response","trial_index":81,"time_elapsed":494082,"internal_node_id":"0.0-81.0","response":"2nd","certainty":"high","char":"L","transposition":-1,"order":["shifted","swapped"],"probe_pitches":[0,4,7,10,5,0,9,8,2,5,-1,8],"shifted_pitches":[0,4,7,10,5,1,9,8,2,5,-1,8],"swapped_pitches":[0,4,7,10,5,9,0,8,2,5,-1,8],"shift_direction":1,"question_num":61,"has_decoy":false,"subject":"S1C1202","sona":"41054","block":1,"time":"2021-09-04T23:16:37.158Z"},{"rt":1174.5999999940395,"stimulus":"[A] option 1, [L] option 2, [G] neither","key_press":71,"name":"choice","trial_type":"html-keyboard-response","trial_index":92,"time_elapsed":514301,"internal_node_id":"0.0-92.0","response":"neither","certainty":"high","char":"G","transposition":-1,"order":["shifted","swapped"],"probe_pitches":[0,2,-2,3,9,5,3,7,-1,8,2,9],"shifted_pitches":[0,2,-2,3,9,6,3,7,-1,8,2,9],"swapped_pitches":[0,2,-2,3,9,3,5,7,-1,8,2,9],"shift_direction":1,"question_num":71,"has_decoy":false,"subject":"S1C1202","sona":"41054","block":1,"time":"2021-09-04T23:16:37.158Z"},{"rt":861,"stimulus":"[A] option 1, [L] option 2, [G] neither","key_press":76,"name":"choice","trial_type":"html-keyboard-response","trial_index":103,"time_elapsed":534340,"internal_node_id":"0.0-103.0","response":"2nd","certainty":"high","char":"L","transposition":-2,"order":["shifted","swapped"],"probe_pitches":[4,-1,4,7,2,-3,7,-1,2,-1,9,-1],"shifted_pitches":[4,-1,4,7,2,-3,8,-1,2,-1,9,-1],"swapped_pitches":[4,-1,4,7,2,7,-3,-1,2,-1,9,-1],"shift_direction":1,"question_num":81,"has_decoy":false,"subject":"S1C1202","sona":"41054","block":1,"time":"2021-09-04T23:16:37.158Z"},{"rt":6561.60000000149,"stimulus":"[A] option 1, [L] option 2, [G] neither","key_press":65,"name":"choice","trial_type":"html-keyboard-response","trial_index":114,"time_elapsed":561064,"internal_node_id":"0.0-114.0","response":"1st","certainty":"high","char":"A","transposition":-3,"order":["swapped","shifted"],"probe_pitches":[7,5,0,7,9,7,-3,0,9,5,2,-3],"shifted_pitches":[7,5,0,7,9,7,-4,0,9,5,2,-3],"swapped_pitches":[7,5,0,7,9,-3,7,0,9,5,2,-3],"shift_direction":-1,"question_num":91,"has_decoy":false,"subject":"S1C1202","sona":"41054","block":1,"time":"2021-09-04T23:16:37.158Z"},{"rt":434.8999999985099,"stimulus":"[A] option 1, [L] option 2, [G] neither","key_press":76,"name":"choice","trial_type":"html-keyboard-response","trial_index":125,"time_elapsed":580607,"internal_node_id":"0.0-125.0","response":"2nd","certainty":"high","char":"L","transposition":2,"order":["swapped","shifted"],"probe_pitches":[-3,2,7,0,4,-3,2,0,-3,7,4,-3],"shifted_pitches":[-3,2,7,0,4,-4,2,0,-3,7,4,-3],"swapped_pitches":[-3,2,7,0,4,2,-3,0,-3,7,4,-3],"shift_direction":-1,"question_num":101,"has_decoy":false,"subject":"S1C1202","sona":"41054","block":1,"time":"2021-09-04T23:16:37.158Z"},{"rt":2132,"stimulus":"[A] option 1, [L] option 2, [G] neither","key_press":76,"name":"choice","trial_type":"html-keyboard-response","trial_index":136,"time_elapsed":601371,"internal_node_id":"0.0-136.0","response":"2nd","certainty":"high","char":"L","transposition":3,"order":["shifted","swapped"],"probe_pitches":[2,0,7,9,5,2,7,0,5,9,-3,5],"shifted_pitches":[2,0,7,9,5,1,7,0,5,9,-3,5],"swapped_pitches":[2,0,7,9,5,7,2,0,5,9,-3,5],"shift_direction":-1,"question_num":111,"has_decoy":false,"subject":"S1C1202","sona":"41054","block":1,"time":"2021-09-04T23:16:37.158Z"},{"rt":593.8000000044703,"stimulus":"[A] option 1, [L] option 2, [G] neither","key_press":71,"name":"choice","trial_type":"html-keyboard-response","trial_index":147,"time_elapsed":620515,"internal_node_id":"0.0-147.0","response":"neither","certainty":"high","char":"G","transposition":3,"order":["swapped","shifted"],"probe_pitches":[-2,3,0,1,5,3,9,6,9,-1,5,10],"shifted_pitches":[-2,3,0,1,5,3,8,6,9,-1,5,10],"swapped_pitches":[-2,3,0,1,5,9,3,6,9,-1,5,10],"shift_direction":-1,"question_num":121,"has_decoy":false,"subject":"S1C1202","sona":"41054","block":1,"time":"2021-09-04T23:16:37.158Z"},{"rt":1286.3999999985099,"stimulus":"[A] option 1, [L] option 2, [G] neither","key_press":65,"name":"choice","trial_type":"html-keyboard-response","trial_index":158,"time_elapsed":641736,"internal_node_id":"0.0-158.0","response":"1st","certainty":"high","char":"A","transposition":1,"order":["swapped","shifted"],"probe_pitches":[-1,2,6,-1,4,-1,6,9,2,6,2,-3],"shifted_pitches":[-1,2,6,-1,4,0,6,9,2,6,2,-3],"swapped_pitches":[-1,2,6,-1,4,6,-1,9,2,6,2,-3],"shift_direction":1,"question_num":131,"has_decoy":false,"subject":"S1C1202","sona":"41054","block":1,"time":"2021-09-04T23:16:37.158Z"},{"rt":1073.7999999970198,"stimulus":"[A] option 1, [L] option 2, [G] neither","key_press":71,"name":"choice","trial_type":"html-keyboard-response","trial_index":169,"time_elapsed":663438,"internal_node_id":"0.0-169.0","response":"neither","certainty":"high","char":"G","transposition":0,"order":["shifted","swapped"],"probe_pitches":[2,3,4,8,1,2,8,1,6,10,8,0],"shifted_pitches":[2,3,4,8,1,2,9,1,6,10,8,0],"swapped_pitches":[2,3,4,8,1,8,2,1,6,10,8,0],"shift_direction":1,"question_num":141,"has_decoy":false,"subject":"S1C1202","sona":"41054","block":1,"time":"2021-09-04T23:16:37.158Z"},{"rt":1224.0999999940395,"stimulus":"[A] option 1, [L] option 2, [G] neither","key_press":65,"name":"choice","trial_type":"html-keyboard-response","trial_index":180,"time_elapsed":683989,"internal_node_id":"0.0-180.0","response":"1st","certainty":"high","char":"A","transposition":-2,"order":["swapped","shifted"],"probe_pitches":[0,2,1,5,2,-2,4,5,1,8,10,0],"shifted_pitches":[0,2,1,5,2,-2,3,5,1,8,10,0],"swapped_pitches":[0,2,1,5,2,4,-2,5,1,8,10,0],"shift_direction":-1,"question_num":151,"has_decoy":false,"subject":"S1C1202","sona":"41054","block":1,"time":"2021-09-04T23:16:37.158Z"},{"rt":1062.2000000029802,"stimulus":"[A] option 1, [L] option 2, [G] neither","key_press":71,"name":"choice","trial_type":"html-keyboard-response","trial_index":191,"time_elapsed":704285,"internal_node_id":"0.0-191.0","response":"neither","certainty":"high","char":"G","transposition":-2,"order":["shifted","swapped"],"probe_pitches":[5,6,5,0,2,10,3,6,-1,7,2,7],"shifted_pitches":[5,6,5,0,2,10,4,6,-1,7,2,7],"swapped_pitches":[5,6,5,0,2,3,10,6,-1,7,2,7],"shift_direction":1,"question_num":161,"has_decoy":false,"subject":"S1C1202","sona":"41054","block":1,"time":"2021-09-04T23:16:37.158Z"},{"rt":1433.2999999970198,"stimulus":"[A] option 1, [L] option 2, [G] neither","key_press":76,"name":"choice","trial_type":"html-keyboard-response","trial_index":202,"time_elapsed":725174,"internal_node_id":"0.0-202.0","response":"2nd","certainty":"high","char":"L","transposition":-2,"order":["shifted","swapped"],"probe_pitches":[1,6,-1,1,-3,6,1,9,-1,4,-3,6],"shifted_pitches":[1,6,-1,1,-3,6,0,9,-1,4,-3,6],"swapped_pitches":[1,6,-1,1,-3,1,6,9,-1,4,-3,6],"shift_direction":-1,"question_num":171,"has_decoy":false,"subject":"S1C1202","sona":"41054","block":1,"time":"2021-09-04T23:16:37.158Z"},{"rt":1997.7999999970198,"stimulus":"[A] option 1, [L] option 2, [G] neither","key_press":71,"name":"choice","trial_type":"html-keyboard-response","trial_index":213,"time_elapsed":745749,"internal_node_id":"0.0-213.0","response":"neither","certainty":"high","char":"G","transposition":-3,"order":["swapped","shifted"],"probe_pitches":[9,7,6,5,-2,3,5,-1,3,8,6,-1],"shifted_pitches":[9,7,6,5,-2,2,5,-1,3,8,6,-1],"swapped_pitches":[9,7,6,5,-2,5,3,-1,3,8,6,-1],"shift_direction":-1,"question_num":181,"has_decoy":false,"subject":"S1C1202","sona":"41054","block":1,"time":"2021-09-04T23:16:37.158Z"},{"rt":1046.2000000029802,"stimulus":"[A] option 1, [L] option 2, [G] neither","key_press":65,"name":"choice","trial_type":"html-keyboard-response","trial_index":224,"time_elapsed":765389,"internal_node_id":"0.0-224.0","response":"1st","certainty":"high","char":"A","transposition":2,"order":["swapped","shifted"],"probe_pitches":[4,3,1,6,7,-1,1,6,9,5,2,7],"shifted_pitches":[4,3,1,6,7,0,1,6,9,5,2,7],"swapped_pitches":[4,3,1,6,7,1,-1,6,9,5,2,7],"shift_direction":1,"question_num":191,"has_decoy":false,"subject":"S1C1202","sona":"41054","block":1,"time":"2021-09-04T23:16:37.158Z"}]