[{"rt":52.899999998509884,"stimulus":"[A] option 1, [L] option 2, [G] neither","key_press":65,"name":"choice","trial_type":"html-keyboard-response","trial_index":10,"time_elapsed":21518,"internal_node_id":"0.0-10.0","subject":"S1C1202","sona":"41054","block":6,"time":"2021-09-05T00:12:40.186Z","response":"1st","certainty":"high","char":"A","transposition":-3,"order":["shifted","swapped"],"probe_pitches":[2,4,-1,2,7,-1,4,7,11,-1,9,7],"shifted_pitches":[2,4,-1,2,7,-1,3,7,11,-1,9,7],"swapped_pitches":[2,4,-1,2,7,4,-1,7,11,-1,9,7],"shift_direction":-1,"question_num":1,"has_decoy":false},{"rt":2422.4000000059605,"stimulus":"[A] option 1, [L] option 2, [G] neither","key_press":76,"name":"choice","trial_type":"html-keyboard-response","trial_index":21,"time_elapsed":43727,"internal_node_id":"0.0-21.0","subject":"S1C1202","sona":"41054","block":6,"time":"2021-09-05T00:12:40.186Z","response":"2nd","certainty":"high","char":"L","transposition":0,"order":["shifted","swapped"],"probe_pitches":[1,0,7,8,10,0,8,1,3,10,0,2],"shifted_pitches":[1,0,7,8,10,0,9,1,3,10,0,2],"swapped_pitches":[1,0,7,8,10,8,0,1,3,10,0,2],"shift_direction":1,"question_num":11,"has_decoy":false},{"rt":14938.59999999404,"stimulus":"[A] option 1, [L] option 2, [G] neither","key_press":76,"name":"choice","trial_type":"html-keyboard-response","trial_index":32,"time_elapsed":77496,"internal_node_id":"0.0-32.0","subject":"S1C1202","sona":"41054","block":6,"time":"2021-09-05T00:12:40.186Z","response":"2nd","certainty":"high","char":"L","transposition":-1,"order":["shifted","swapped"],"probe_pitches":[6,2,4,11,2,-1,4,2,-1,4,11,9],"shifted_pitches":[6,2,4,11,2,-1,5,2,-1,4,11,9],"swapped_pitches":[6,2,4,11,2,4,-1,2,-1,4,11,9],"shift_direction":1,"question_num":21,"has_decoy":false},{"rt":9908.29999999702,"stimulus":"[A] option 1, [L] option 2, [G] neither","key_press":76,"name":"choice","trial_type":"html-keyboard-response","trial_index":43,"time_elapsed":123272,"internal_node_id":"0.0-43.0","subject":"S1C1202","sona":"41054","block":6,"time":"2021-09-05T00:12:40.186Z","response":"2nd","certainty":"high","char":"L","transposition":-2,"order":["shifted","swapped"],"probe_pitches":[2,-1,2,6,9,2,4,-1,2,6,9,6],"shifted_pitches":[2,-1,2,6,9,3,4,-1,2,6,9,6],"swapped_pitches":[2,-1,2,6,9,4,2,-1,2,6,9,6],"shift_direction":1,"question_num":31,"has_decoy":false},{"rt":632.1000000014901,"stimulus":"[A] option 1, [L] option 2, [G] neither","key_press":65,"name":"choice","trial_type":"html-keyboard-response","trial_index":54,"time_elapsed":143899,"internal_node_id":"0.0-54.0","subject":"S1C1202","sona":"41054","block":6,"time":"2021-09-05T00:12:40.186Z","response":"1st","certainty":"high","char":"A","transposition":-1,"order":["swapped","shifted"],"probe_pitches":[10,4,9,10,11,6,2,11,9,3,-1,2],"shifted_pitches":[10,4,9,10,11,7,2,11,9,3,-1,2],"swapped_pitches":[10,4,9,10,11,2,6,11,9,3,-1,2],"shift_direction":1,"question_num":41,"has_decoy":false},{"rt":2749.3000000044703,"stimulus":"[A] option 1, [L] option 2, [G] neither","key_press":76,"name":"choice","trial_type":"html-keyboard-response","trial_index":65,"time_elapsed":166939,"internal_node_id":"0.0-65.0","subject":"S1C1202","sona":"41054","block":6,"time":"2021-09-05T00:12:40.186Z","response":"2nd","certainty":"high","char":"L","transposition":2,"order":["swapped","shifted"],"probe_pitches":[6,11,8,6,8,11,1,-1,4,6,4,1],"shifted_pitches":[6,11,8,6,8,10,1,-1,4,6,4,1],"swapped_pitches":[6,11,8,6,8,1,11,-1,4,6,4,1],"shift_direction":-1,"question_num":51,"has_decoy":false},{"rt":1777.5,"stimulus":"[A] option 1, [L] option 2, [G] neither","key_press":76,"name":"choice","trial_type":"html-keyboard-response","trial_index":76,"time_elapsed":190836,"internal_node_id":"0.0-76.0","subject":"S1C1202","sona":"41054","block":6,"time":"2021-09-05T00:12:40.186Z","response":"2nd","certainty":"high","char":"L","transposition":3,"order":["swapped","shifted"],"probe_pitches":[9,11,7,10,1,7,8,2,1,11,9,2],"shifted_pitches":[9,11,7,10,1,6,8,2,1,11,9,2],"swapped_pitches":[9,11,7,10,1,8,7,2,1,11,9,2],"shift_direction":-1,"question_num":61,"has_decoy":false},{"rt":429.1000000014901,"stimulus":"[A] option 1, [L] option 2, [G] neither","key_press":76,"name":"choice","trial_type":"html-keyboard-response","trial_index":87,"time_elapsed":210927,"internal_node_id":"0.0-87.0","subject":"S1C1202","sona":"41054","block":6,"time":"2021-09-05T00:12:40.186Z","response":"2nd","certainty":"high","char":"L","transposition":-2,"order":["shifted","swapped"],"probe_pitches":[2,7,8,7,1,2,8,6,5,10,8,1],"shifted_pitches":[2,7,8,7,1,3,8,6,5,10,8,1],"swapped_pitches":[2,7,8,7,1,8,2,6,5,10,8,1],"shift_direction":1,"question_num":71,"has_decoy":false},{"rt":2574,"stimulus":"[A] option 1, [L] option 2, [G] neither","key_press":65,"name":"choice","trial_type":"html-keyboard-response","trial_index":98,"time_elapsed":238522,"internal_node_id":"0.0-98.0","subject":"S1C1202","sona":"41054","block":6,"time":"2021-09-05T00:12:40.186Z","response":"1st","certainty":"high","char":"A","transposition":1,"order":["swapped","shifted"],"probe_pitches":[-1,4,6,1,4,11,1,9,-1,6,-1,11],"shifted_pitches":[-1,4,6,1,4,12,1,9,-1,6,-1,11],"swapped_pitches":[-1,4,6,1,4,1,11,9,-1,6,-1,11],"shift_direction":1,"question_num":81,"has_decoy":false},{"rt":3413.7000000029802,"stimulus":"[A] option 1, [L] option 2, [G] neither","key_press":65,"name":"choice","trial_type":"html-keyboard-response","trial_index":109,"time_elapsed":260695,"internal_node_id":"0.0-109.0","subject":"S1C1202","sona":"41054","block":6,"time":"2021-09-05T00:12:40.186Z","response":"1st","certainty":"high","char":"A","transposition":-3,"order":["shifted","swapped"],"probe_pitches":[2,3,5,8,4,2,10,0,8,6,-1,2],"shifted_pitches":[2,3,5,8,4,1,10,0,8,6,-1,2],"swapped_pitches":[2,3,5,8,4,10,2,0,8,6,-1,2],"shift_direction":-1,"question_num":91,"has_decoy":false},{"rt":7476,"stimulus":"[A] option 1, [L] option 2, [G] neither","key_press":76,"name":"choice","trial_type":"html-keyboard-response","trial_index":120,"time_elapsed":316706,"internal_node_id":"0.0-120.0","subject":"S1C1202","sona":"41054","block":6,"time":"2021-09-05T00:12:40.186Z","response":"2nd","certainty":"high","char":"L","transposition":-1,"order":["shifted","swapped"],"probe_pitches":[-1,1,4,9,11,4,-1,1,-1,11,4,6],"shifted_pitches":[-1,1,4,9,11,4,0,1,-1,11,4,6],"swapped_pitches":[-1,1,4,9,11,-1,4,1,-1,11,4,6],"shift_direction":1,"question_num":101,"has_decoy":false},{"rt":553,"stimulus":"[A] option 1, [L] option 2, [G] neither","key_press":65,"name":"choice","trial_type":"html-keyboard-response","trial_index":131,"time_elapsed":344651,"internal_node_id":"0.0-131.0","subject":"S1C1202","sona":"41054","block":6,"time":"2021-09-05T00:12:40.186Z","response":"1st","certainty":"high","char":"A","transposition":-2,"order":["swapped","shifted"],"probe_pitches":[-1,4,11,4,1,6,8,1,11,6,4,6],"shifted_pitches":[-1,4,11,4,1,6,9,1,11,6,4,6],"swapped_pitches":[-1,4,11,4,1,8,6,1,11,6,4,6],"shift_direction":1,"question_num":111,"has_decoy":false},{"rt":3677.7999999970198,"stimulus":"[A] option 1, [L] option 2, [G] neither","key_press":65,"name":"choice","trial_type":"html-keyboard-response","trial_index":142,"time_elapsed":373973,"internal_node_id":"0.0-142.0","subject":"S1C1202","sona":"41054","block":6,"time":"2021-09-05T00:12:40.186Z","response":"1st","certainty":"high","char":"A","transposition":-3,"order":["swapped","shifted"],"probe_pitches":[-1,0,7,8,11,6,4,1,-1,0,1,7],"shifted_pitches":[-1,0,7,8,11,5,4,1,-1,0,1,7],"swapped_pitches":[-1,0,7,8,11,4,6,1,-1,0,1,7],"shift_direction":-1,"question_num":121,"has_decoy":false},{"rt":333.1000000014901,"stimulus":"[A] option 1, [L] option 2, [G] neither","key_press":65,"name":"choice","trial_type":"html-keyboard-response","trial_index":153,"time_elapsed":414993,"internal_node_id":"0.0-153.0","subject":"S1C1202","sona":"41054","block":6,"time":"2021-09-05T00:12:40.186Z","response":"1st","certainty":"high","char":"A","transposition":-1,"order":["swapped","shifted"],"probe_pitches":[7,3,9,5,1,9,5,-1,7,11,10,6],"shifted_pitches":[7,3,9,5,1,9,4,-1,7,11,10,6],"swapped_pitches":[7,3,9,5,1,5,9,-1,7,11,10,6],"shift_direction":-1,"question_num":131,"has_decoy":false},{"rt":6404.5999999940395,"stimulus":"[A] option 1, [L] option 2, [G] neither","key_press":76,"name":"choice","trial_type":"html-keyboard-response","trial_index":164,"time_elapsed":440110,"internal_node_id":"0.0-164.0","subject":"S1C1202","sona":"41054","block":6,"time":"2021-09-05T00:12:40.186Z","response":"2nd","certainty":"high","char":"L","transposition":3,"order":["swapped","shifted"],"probe_pitches":[8,3,-1,6,11,3,6,11,6,1,11,-1],"shifted_pitches":[8,3,-1,6,11,2,6,11,6,1,11,-1],"swapped_pitches":[8,3,-1,6,11,6,3,11,6,1,11,-1],"shift_direction":-1,"question_num":141,"has_decoy":false},{"rt":1738.3000000044703,"stimulus":"[A] option 1, [L] option 2, [G] neither","key_press":76,"name":"choice","trial_type":"html-keyboard-response","trial_index":175,"time_elapsed":464365,"internal_node_id":"0.0-175.0","subject":"S1C1202","sona":"41054","block":6,"time":"2021-09-05T00:12:40.186Z","response":"2nd","certainty":"high","char":"L","transposition":-3,"order":["shifted","swapped"],"probe_pitches":[7,9,11,7,9,11,2,-1,7,11,-1,4],"shifted_pitches":[7,9,11,7,9,10,2,-1,7,11,-1,4],"swapped_pitches":[7,9,11,7,9,2,11,-1,7,11,-1,4],"shift_direction":-1,"question_num":151,"has_decoy":false},{"rt":11187.60000000149,"stimulus":"[A] option 1, [L] option 2, [G] neither","key_press":65,"name":"choice","trial_type":"html-keyboard-response","trial_index":186,"time_elapsed":495367,"internal_node_id":"0.0-186.0","subject":"S1C1202","sona":"41054","block":6,"time":"2021-09-05T00:12:40.186Z","response":"1st","certainty":"high","char":"A","transposition":2,"order":["shifted","swapped"],"probe_pitches":[10,9,8,1,3,11,1,7,1,5,8,3],"shifted_pitches":[10,9,8,1,3,11,2,7,1,5,8,3],"swapped_pitches":[10,9,8,1,3,1,11,7,1,5,8,3],"shift_direction":1,"question_num":161,"has_decoy":false},{"rt":1129.3999999985099,"stimulus":"[A] option 1, [L] option 2, [G] neither","key_press":65,"name":"choice","trial_type":"html-keyboard-response","trial_index":197,"time_elapsed":516743,"internal_node_id":"0.0-197.0","subject":"S1C1202","sona":"41054","block":6,"time":"2021-09-05T00:12:40.186Z","response":"1st","certainty":"high","char":"A","transposition":0,"order":["swapped","shifted"],"probe_pitches":[6,8,1,8,6,8,1,6,-1,6,-1,3],"shifted_pitches":[6,8,1,8,6,8,0,6,-1,6,-1,3],"swapped_pitches":[6,8,1,8,6,1,8,6,-1,6,-1,3],"shift_direction":-1,"question_num":171,"has_decoy":false},{"rt":794,"stimulus":"[A] option 1, [L] option 2, [G] neither","key_press":76,"name":"choice","trial_type":"html-keyboard-response","trial_index":208,"time_elapsed":546636,"internal_node_id":"0.0-208.0","subject":"S1C1202","sona":"41054","block":6,"time":"2021-09-05T00:12:40.186Z","response":"2nd","certainty":"high","char":"L","transposition":-2,"order":["shifted","swapped"],"probe_pitches":[11,9,5,7,8,1,9,2,3,-1,2,11],"shifted_pitches":[11,9,5,7,8,1,10,2,3,-1,2,11],"swapped_pitches":[11,9,5,7,8,9,1,2,3,-1,2,11],"shift_direction":1,"question_num":181,"has_decoy":false},{"rt":226.80000000447035,"stimulus":"[A] option 1, [L] option 2, [G] neither","key_press":76,"name":"choice","trial_type":"html-keyboard-response","trial_index":219,"time_elapsed":580559,"internal_node_id":"0.0-219.0","subject":"S1C1202","sona":"41054","block":6,"time":"2021-09-05T00:12:40.186Z","response":"2nd","certainty":"high","char":"L","transposition":1,"order":["swapped","shifted"],"probe_pitches":[2,5,0,7,11,1,9,-1,3,6,4,0],"shifted_pitches":[2,5,0,7,11,1,8,-1,3,6,4,0],"swapped_pitches":[2,5,0,7,11,9,1,-1,3,6,4,0],"shift_direction":-1,"question_num":191,"has_decoy":false}]