[{"rt":1041.1000000238419,"stimulus":"[A] option 1, [L] option 2, [G] neither","key_press":76,"name":"choice","trial_type":"html-keyboard-response","trial_index":10,"time_elapsed":19051,"internal_node_id":"0.0-10.0","subject":"S1C0811","sona":"41788","block":4,"time":"2021-09-15T15:41:30.795Z","response":"2nd","certainty":"high","char":"L","transposition":0,"order":["swapped","shifted"],"probe_pitches":[7,2,-1,2,4,9,11,7],"shifted_pitches":[7,2,-1,3,4,9,11,7],"swapped_pitches":[7,2,-1,4,2,9,11,7],"shift_direction":1,"question_num":1,"has_decoy":false},{"rt":510,"stimulus":"[A] option 1, [L] option 2, [G] neither","key_press":65,"name":"choice","trial_type":"html-keyboard-response","trial_index":21,"time_elapsed":36664,"internal_node_id":"0.0-21.0","subject":"S1C0811","sona":"41788","block":4,"time":"2021-09-15T15:41:30.795Z","response":"1st","certainty":"high","char":"A","transposition":0,"order":["swapped","shifted"],"probe_pitches":[14,11,5,10,12,7,6,8],"shifted_pitches":[14,11,5,10,13,7,6,8],"swapped_pitches":[14,11,5,12,10,7,6,8],"shift_direction":1,"question_num":11,"has_decoy":false},{"rt":1712,"stimulus":"[A] option 1, [L] option 2, [G] neither","key_press":76,"name":"choice","trial_type":"html-keyboard-response","trial_index":32,"time_elapsed":53582,"internal_node_id":"0.0-32.0","subject":"S1C0811","sona":"41788","block":4,"time":"2021-09-15T15:41:30.795Z","response":"2nd","certainty":"high","char":"L","transposition":-1,"order":["shifted","swapped"],"probe_pitches":[7,6,12,5,14,13,8,10],"shifted_pitches":[7,6,12,4,14,13,8,10],"swapped_pitches":[7,6,12,14,5,13,8,10],"shift_direction":-1,"question_num":21,"has_decoy":false},{"rt":906.2999999523163,"stimulus":"[A] option 1, [L] option 2, [G] neither","key_press":76,"name":"choice","trial_type":"html-keyboard-response","trial_index":43,"time_elapsed":72568,"internal_node_id":"0.0-43.0","subject":"S1C0811","sona":"41788","block":4,"time":"2021-09-15T15:41:30.795Z","response":"2nd","certainty":"high","char":"L","transposition":-2,"order":["swapped","shifted"],"probe_pitches":[-1,1,-1,4,6,-1,9,6],"shifted_pitches":[-1,1,-1,4,5,-1,9,6],"swapped_pitches":[-1,1,-1,6,4,-1,9,6],"shift_direction":-1,"question_num":31,"has_decoy":false},{"rt":1802.8999999761581,"stimulus":"[A] option 1, [L] option 2, [G] neither","key_press":76,"name":"choice","trial_type":"html-keyboard-response","trial_index":54,"time_elapsed":90285,"internal_node_id":"0.0-54.0","subject":"S1C0811","sona":"41788","block":4,"time":"2021-09-15T15:41:30.795Z","response":"2nd","certainty":"high","char":"L","transposition":-2,"order":["swapped","shifted"],"probe_pitches":[-1,1,8,1,-1,4,6,11],"shifted_pitches":[-1,1,8,0,-1,4,6,11],"swapped_pitches":[-1,1,8,-1,1,4,6,11],"shift_direction":-1,"question_num":41,"has_decoy":false},{"rt":3052.7000000476837,"stimulus":"[A] option 1, [L] option 2, [G] neither","key_press":76,"name":"choice","trial_type":"html-keyboard-response","trial_index":65,"time_elapsed":112568,"internal_node_id":"0.0-65.0","subject":"S1C0811","sona":"41788","block":4,"time":"2021-09-15T15:41:30.795Z","response":"2nd","certainty":"high","char":"L","transposition":-3,"order":["shifted","swapped"],"probe_pitches":[6,9,2,4,11,6,2,4],"shifted_pitches":[6,9,2,3,11,6,2,4],"swapped_pitches":[6,9,2,11,4,6,2,4],"shift_direction":-1,"question_num":51,"has_decoy":false},{"rt":643.2999999523163,"stimulus":"[A] option 1, [L] option 2, [G] neither","key_press":71,"name":"choice","trial_type":"html-keyboard-response","trial_index":76,"time_elapsed":128649,"internal_node_id":"0.0-76.0","subject":"S1C0811","sona":"41788","block":4,"time":"2021-09-15T15:41:30.795Z","response":"neither","certainty":"high","char":"G","transposition":-1,"order":["shifted","swapped"],"probe_pitches":[10,7,13,7,4,11,13,14],"shifted_pitches":[10,7,13,6,4,11,13,14],"swapped_pitches":[10,7,13,4,7,11,13,14],"shift_direction":-1,"question_num":61,"has_decoy":false},{"rt":1059.2000000476837,"stimulus":"[A] option 1, [L] option 2, [G] neither","key_press":76,"name":"choice","trial_type":"html-keyboard-response","trial_index":87,"time_elapsed":144702,"internal_node_id":"0.0-87.0","subject":"S1C0811","sona":"41788","block":4,"time":"2021-09-15T15:41:30.795Z","response":"2nd","certainty":"high","char":"L","transposition":-3,"order":["shifted","swapped"],"probe_pitches":[3,5,9,13,10,8,13,2],"shifted_pitches":[3,5,9,12,10,8,13,2],"swapped_pitches":[3,5,9,10,13,8,13,2],"shift_direction":-1,"question_num":71,"has_decoy":false},{"rt":2424.600000023842,"stimulus":"[A] option 1, [L] option 2, [G] neither","key_press":76,"name":"choice","trial_type":"html-keyboard-response","trial_index":98,"time_elapsed":162226,"internal_node_id":"0.0-98.0","subject":"S1C0811","sona":"41788","block":4,"time":"2021-09-15T15:41:30.795Z","response":"2nd","certainty":"high","char":"L","transposition":1,"order":["swapped","shifted"],"probe_pitches":[1,6,4,1,6,-1,8,11],"shifted_pitches":[1,6,4,1,7,-1,8,11],"swapped_pitches":[1,6,4,6,1,-1,8,11],"shift_direction":1,"question_num":81,"has_decoy":false},{"rt":2452.399999976158,"stimulus":"[A] option 1, [L] option 2, [G] neither","key_press":76,"name":"choice","trial_type":"html-keyboard-response","trial_index":109,"time_elapsed":189917,"internal_node_id":"0.0-109.0","subject":"S1C0811","sona":"41788","block":4,"time":"2021-09-15T15:41:30.795Z","response":"2nd","certainty":"high","char":"L","transposition":-2,"order":["swapped","shifted"],"probe_pitches":[2,7,5,7,2,3,7,9],"shifted_pitches":[2,7,5,8,2,3,7,9],"swapped_pitches":[2,7,5,2,7,3,7,9],"shift_direction":1,"question_num":91,"has_decoy":false},{"rt":838.3999999761581,"stimulus":"[A] option 1, [L] option 2, [G] neither","key_press":76,"name":"choice","trial_type":"html-keyboard-response","trial_index":120,"time_elapsed":206643,"internal_node_id":"0.0-120.0","subject":"S1C0811","sona":"41788","block":4,"time":"2021-09-15T15:41:30.795Z","response":"2nd","certainty":"high","char":"L","transposition":1,"order":["shifted","swapped"],"probe_pitches":[4,5,8,3,12,9,10,4],"shifted_pitches":[4,5,8,3,11,9,10,4],"swapped_pitches":[4,5,8,12,3,9,10,4],"shift_direction":-1,"question_num":101,"has_decoy":false},{"rt":333.10000002384186,"stimulus":"[A] option 1, [L] option 2, [G] neither","key_press":76,"name":"choice","trial_type":"html-keyboard-response","trial_index":131,"time_elapsed":222996,"internal_node_id":"0.0-131.0","subject":"S1C0811","sona":"41788","block":4,"time":"2021-09-15T15:41:30.795Z","response":"2nd","certainty":"high","char":"L","transposition":-3,"order":["swapped","shifted"],"probe_pitches":[11,13,8,4,10,2,6,4],"shifted_pitches":[11,13,8,5,10,2,6,4],"swapped_pitches":[11,13,8,10,4,2,6,4],"shift_direction":1,"question_num":111,"has_decoy":false},{"rt":1716.2000000476837,"stimulus":"[A] option 1, [L] option 2, [G] neither","key_press":65,"name":"choice","trial_type":"html-keyboard-response","trial_index":142,"time_elapsed":242511,"internal_node_id":"0.0-142.0","subject":"S1C0811","sona":"41788","block":4,"time":"2021-09-15T15:41:30.795Z","response":"1st","certainty":"high","char":"A","transposition":2,"order":["shifted","swapped"],"probe_pitches":[9,11,9,4,6,1,6,11],"shifted_pitches":[9,11,9,3,6,1,6,11],"swapped_pitches":[9,11,9,6,4,1,6,11],"shift_direction":-1,"question_num":121,"has_decoy":false},{"rt":3080.100000023842,"stimulus":"[A] option 1, [L] option 2, [G] neither","key_press":71,"name":"choice","trial_type":"html-keyboard-response","trial_index":153,"time_elapsed":262397,"internal_node_id":"0.0-153.0","subject":"S1C0811","sona":"41788","block":4,"time":"2021-09-15T15:41:30.795Z","response":"neither","certainty":"high","char":"G","transposition":-1,"order":["shifted","swapped"],"probe_pitches":[4,-1,4,2,-1,7,9,2],"shifted_pitches":[4,-1,4,2,0,7,9,2],"swapped_pitches":[4,-1,4,-1,2,7,9,2],"shift_direction":1,"question_num":131,"has_decoy":false},{"rt":416.2999999523163,"stimulus":"[A] option 1, [L] option 2, [G] neither","key_press":65,"name":"choice","trial_type":"html-keyboard-response","trial_index":164,"time_elapsed":279333,"internal_node_id":"0.0-164.0","subject":"S1C0811","sona":"41788","block":4,"time":"2021-09-15T15:41:30.795Z","response":"1st","certainty":"high","char":"A","transposition":3,"order":["shifted","swapped"],"probe_pitches":[8,3,-1,1,6,11,6,-1],"shifted_pitches":[8,3,-1,1,7,11,6,-1],"swapped_pitches":[8,3,-1,6,1,11,6,-1],"shift_direction":1,"question_num":141,"has_decoy":false},{"rt":1137.9000000953674,"stimulus":"[A] option 1, [L] option 2, [G] neither","key_press":76,"name":"choice","trial_type":"html-keyboard-response","trial_index":175,"time_elapsed":297211,"internal_node_id":"0.0-175.0","subject":"S1C0811","sona":"41788","block":4,"time":"2021-09-15T15:41:30.795Z","response":"2nd","certainty":"high","char":"L","transposition":-3,"order":["swapped","shifted"],"probe_pitches":[6,11,6,1,-1,8,1,3],"shifted_pitches":[6,11,6,1,0,8,1,3],"swapped_pitches":[6,11,6,-1,1,8,1,3],"shift_direction":1,"question_num":151,"has_decoy":false},{"rt":845.6999999284744,"stimulus":"[A] option 1, [L] option 2, [G] neither","key_press":76,"name":"choice","trial_type":"html-keyboard-response","trial_index":186,"time_elapsed":314449,"internal_node_id":"0.0-186.0","subject":"S1C0811","sona":"41788","block":4,"time":"2021-09-15T15:41:30.795Z","response":"2nd","certainty":"high","char":"L","transposition":2,"order":["shifted","swapped"],"probe_pitches":[3,4,11,14,8,2,3,14],"shifted_pitches":[3,4,11,14,9,2,3,14],"swapped_pitches":[3,4,11,8,14,2,3,14],"shift_direction":1,"question_num":161,"has_decoy":false},{"rt":718.5,"stimulus":"[A] option 1, [L] option 2, [G] neither","key_press":65,"name":"choice","trial_type":"html-keyboard-response","trial_index":197,"time_elapsed":330657,"internal_node_id":"0.0-197.0","subject":"S1C0811","sona":"41788","block":4,"time":"2021-09-15T15:41:30.795Z","response":"1st","certainty":"high","char":"A","transposition":-2,"order":["swapped","shifted"],"probe_pitches":[12,11,4,2,6,13,2,11],"shifted_pitches":[12,11,4,2,7,13,2,11],"swapped_pitches":[12,11,4,6,2,13,2,11],"shift_direction":1,"question_num":171,"has_decoy":false},{"rt":1503.0999999046326,"stimulus":"[A] option 1, [L] option 2, [G] neither","key_press":65,"name":"choice","trial_type":"html-keyboard-response","trial_index":208,"time_elapsed":349873,"internal_node_id":"0.0-208.0","subject":"S1C0811","sona":"41788","block":4,"time":"2021-09-15T15:41:30.795Z","response":"1st","certainty":"high","char":"A","transposition":3,"order":["swapped","shifted"],"probe_pitches":[5,3,2,7,11,8,4,9],"shifted_pitches":[5,3,2,7,10,8,4,9],"swapped_pitches":[5,3,2,11,7,8,4,9],"shift_direction":-1,"question_num":181,"has_decoy":false},{"rt":1584.3000000715256,"stimulus":"[A] option 1, [L] option 2, [G] neither","key_press":76,"name":"choice","trial_type":"html-keyboard-response","trial_index":219,"time_elapsed":366629,"internal_node_id":"0.0-219.0","subject":"S1C0811","sona":"41788","block":4,"time":"2021-09-15T15:41:30.795Z","response":"2nd","certainty":"high","char":"L","transposition":-1,"order":["shifted","swapped"],"probe_pitches":[11,9,2,9,4,6,11,4],"shifted_pitches":[11,9,2,8,4,6,11,4],"swapped_pitches":[11,9,2,4,9,6,11,4],"shift_direction":-1,"question_num":191,"has_decoy":false}]