[{"rt":8483.399999976158,"stimulus":"[A] option 1, [L] option 2, [G] neither","key_press":76,"name":"choice","trial_type":"html-keyboard-response","trial_index":15,"time_elapsed":135821,"internal_node_id":"0.0-15.0","response":"2nd","certainty":"high","char":"L","transposition":3,"order":["shifted","swapped"],"probe_pitches":[4,1,8,7,5,8,1,-2],"shifted_pitches":[4,1,8,6,5,8,1,-2],"swapped_pitches":[4,1,8,5,7,8,1,-2],"shift_direction":-1,"question_num":1,"has_decoy":false,"subject":"S1C0811","sona":"41788","block":1,"time":"2021-09-15T15:22:46.395Z"},{"rt":2005.6000000238419,"stimulus":"[A] option 1, [L] option 2, [G] neither","key_press":65,"name":"choice","trial_type":"html-keyboard-response","trial_index":26,"time_elapsed":154284,"internal_node_id":"0.0-26.0","response":"1st","certainty":"high","char":"A","transposition":-1,"order":["shifted","swapped"],"probe_pitches":[0,2,5,-2,0,7,-2,0],"shifted_pitches":[0,2,5,-1,0,7,-2,0],"swapped_pitches":[0,2,5,0,-2,7,-2,0],"shift_direction":1,"question_num":11,"has_decoy":false,"subject":"S1C0811","sona":"41788","block":1,"time":"2021-09-15T15:22:46.395Z"},{"rt":8517.5,"stimulus":"[A] option 1, [L] option 2, [G] neither","key_press":76,"name":"choice","trial_type":"html-keyboard-response","trial_index":37,"time_elapsed":177940,"internal_node_id":"0.0-37.0","response":"2nd","certainty":"high","char":"L","transposition":1,"order":["swapped","shifted"],"probe_pitches":[6,7,6,3,9,0,9,3],"shifted_pitches":[6,7,6,4,9,0,9,3],"swapped_pitches":[6,7,6,9,3,0,9,3],"shift_direction":1,"question_num":21,"has_decoy":false,"subject":"S1C0811","sona":"41788","block":1,"time":"2021-09-15T15:22:46.395Z"},{"rt":2796.1999999284744,"stimulus":"[A] option 1, [L] option 2, [G] neither","key_press":65,"name":"choice","trial_type":"html-keyboard-response","trial_index":48,"time_elapsed":197061,"internal_node_id":"0.0-48.0","response":"1st","certainty":"high","char":"A","transposition":1,"order":["shifted","swapped"],"probe_pitches":[-2,3,7,5,0,-2,5,10],"shifted_pitches":[-2,3,7,5,-1,-2,5,10],"swapped_pitches":[-2,3,7,0,5,-2,5,10],"shift_direction":-1,"question_num":31,"has_decoy":false,"subject":"S1C0811","sona":"41788","block":1,"time":"2021-09-15T15:22:46.395Z"},{"rt":1151.6000000238419,"stimulus":"[A] option 1, [L] option 2, [G] neither","key_press":76,"name":"choice","trial_type":"html-keyboard-response","trial_index":59,"time_elapsed":213154,"internal_node_id":"0.0-59.0","response":"2nd","certainty":"high","char":"L","transposition":-3,"order":["shifted","swapped"],"probe_pitches":[7,3,-2,1,9,3,4,6],"shifted_pitches":[7,3,-2,2,9,3,4,6],"swapped_pitches":[7,3,-2,9,1,3,4,6],"shift_direction":1,"question_num":41,"has_decoy":false,"subject":"S1C0811","sona":"41788","block":1,"time":"2021-09-15T15:22:46.395Z"},{"rt":400.39999997615814,"stimulus":"[A] option 1, [L] option 2, [G] neither","key_press":76,"name":"choice","trial_type":"html-keyboard-response","trial_index":70,"time_elapsed":228475,"internal_node_id":"0.0-70.0","response":"2nd","certainty":"high","char":"L","transposition":-3,"order":["swapped","shifted"],"probe_pitches":[5,2,0,-2,7,10,0,2],"shifted_pitches":[5,2,0,-2,6,10,0,2],"swapped_pitches":[5,2,0,7,-2,10,0,2],"shift_direction":-1,"question_num":51,"has_decoy":false,"subject":"S1C0811","sona":"41788","block":1,"time":"2021-09-15T15:22:46.395Z"},{"rt":675.9000000953674,"stimulus":"[A] option 1, [L] option 2, [G] neither","key_press":65,"name":"choice","trial_type":"html-keyboard-response","trial_index":81,"time_elapsed":244155,"internal_node_id":"0.0-81.0","response":"1st","certainty":"high","char":"A","transposition":3,"order":["shifted","swapped"],"probe_pitches":[8,3,1,8,6,10,6,1],"shifted_pitches":[8,3,1,9,6,10,6,1],"swapped_pitches":[8,3,1,6,8,10,6,1],"shift_direction":1,"question_num":61,"has_decoy":false,"subject":"S1C0811","sona":"41788","block":1,"time":"2021-09-15T15:22:46.395Z"},{"rt":1280.1000000238419,"stimulus":"[A] option 1, [L] option 2, [G] neither","key_press":76,"name":"choice","trial_type":"html-keyboard-response","trial_index":92,"time_elapsed":259772,"internal_node_id":"0.0-92.0","response":"2nd","certainty":"high","char":"L","transposition":-3,"order":["shifted","swapped"],"probe_pitches":[4,3,8,7,-2,6,8,-1],"shifted_pitches":[4,3,8,7,-3,6,8,-1],"swapped_pitches":[4,3,8,-2,7,6,8,-1],"shift_direction":-1,"question_num":71,"has_decoy":false,"subject":"S1C0811","sona":"41788","block":1,"time":"2021-09-15T15:22:46.395Z"},{"rt":992.7999999523163,"stimulus":"[A] option 1, [L] option 2, [G] neither","key_press":65,"name":"choice","trial_type":"html-keyboard-response","trial_index":103,"time_elapsed":277670,"internal_node_id":"0.0-103.0","response":"1st","certainty":"high","char":"A","transposition":-1,"order":["shifted","swapped"],"probe_pitches":[10,5,1,5,3,8,1,8],"shifted_pitches":[10,5,1,6,3,8,1,8],"swapped_pitches":[10,5,1,3,5,8,1,8],"shift_direction":1,"question_num":81,"has_decoy":false,"subject":"S1C0811","sona":"41788","block":1,"time":"2021-09-15T15:22:46.395Z"},{"rt":432.89999997615814,"stimulus":"[A] option 1, [L] option 2, [G] neither","key_press":76,"name":"choice","trial_type":"html-keyboard-response","trial_index":114,"time_elapsed":292624,"internal_node_id":"0.0-114.0","response":"2nd","certainty":"high","char":"L","transposition":-1,"order":["swapped","shifted"],"probe_pitches":[1,0,5,6,10,0,6,2],"shifted_pitches":[1,0,5,7,10,0,6,2],"swapped_pitches":[1,0,5,10,6,0,6,2],"shift_direction":1,"question_num":91,"has_decoy":false,"subject":"S1C0811","sona":"41788","block":1,"time":"2021-09-15T15:22:46.395Z"},{"rt":314,"stimulus":"[A] option 1, [L] option 2, [G] neither","key_press":76,"name":"choice","trial_type":"html-keyboard-response","trial_index":125,"time_elapsed":307321,"internal_node_id":"0.0-125.0","response":"2nd","certainty":"high","char":"L","transposition":0,"order":["swapped","shifted"],"probe_pitches":[-2,0,3,8,0,5,3,8],"shifted_pitches":[-2,0,3,8,-1,5,3,8],"swapped_pitches":[-2,0,3,0,8,5,3,8],"shift_direction":-1,"question_num":101,"has_decoy":false,"subject":"S1C0811","sona":"41788","block":1,"time":"2021-09-15T15:22:46.395Z"},{"rt":320.3000000715256,"stimulus":"[A] option 1, [L] option 2, [G] neither","key_press":76,"name":"choice","trial_type":"html-keyboard-response","trial_index":136,"time_elapsed":321988,"internal_node_id":"0.0-136.0","response":"2nd","certainty":"high","char":"L","transposition":-1,"order":["shifted","swapped"],"probe_pitches":[2,6,2,10,1,-2,-1,3],"shifted_pitches":[2,6,2,10,0,-2,-1,3],"swapped_pitches":[2,6,2,1,10,-2,-1,3],"shift_direction":-1,"question_num":111,"has_decoy":false,"subject":"S1C0811","sona":"41788","block":1,"time":"2021-09-15T15:22:46.395Z"},{"rt":270.60000002384186,"stimulus":"[A] option 1, [L] option 2, [G] neither","key_press":76,"name":"choice","trial_type":"html-keyboard-response","trial_index":147,"time_elapsed":336759,"internal_node_id":"0.0-147.0","response":"2nd","certainty":"high","char":"L","transposition":-2,"order":["swapped","shifted"],"probe_pitches":[3,5,8,10,5,8,0,3],"shifted_pitches":[3,5,8,10,4,8,0,3],"swapped_pitches":[3,5,8,5,10,8,0,3],"shift_direction":-1,"question_num":121,"has_decoy":false,"subject":"S1C0811","sona":"41788","block":1,"time":"2021-09-15T15:22:46.395Z"},{"rt":511.10000002384186,"stimulus":"[A] option 1, [L] option 2, [G] neither","key_press":65,"name":"choice","trial_type":"html-keyboard-response","trial_index":158,"time_elapsed":351650,"internal_node_id":"0.0-158.0","response":"1st","certainty":"high","char":"A","transposition":2,"order":["swapped","shifted"],"probe_pitches":[10,7,1,8,2,4,2,4],"shifted_pitches":[10,7,1,8,3,4,2,4],"swapped_pitches":[10,7,1,2,8,4,2,4],"shift_direction":1,"question_num":131,"has_decoy":false,"subject":"S1C0811","sona":"41788","block":1,"time":"2021-09-15T15:22:46.395Z"},{"rt":457.7999999523163,"stimulus":"[A] option 1, [L] option 2, [G] neither","key_press":65,"name":"choice","trial_type":"html-keyboard-response","trial_index":169,"time_elapsed":366454,"internal_node_id":"0.0-169.0","response":"1st","certainty":"high","char":"A","transposition":-2,"order":["swapped","shifted"],"probe_pitches":[0,2,3,2,4,-1,7,9],"shifted_pitches":[0,2,3,1,4,-1,7,9],"swapped_pitches":[0,2,3,4,2,-1,7,9],"shift_direction":-1,"question_num":141,"has_decoy":false,"subject":"S1C0811","sona":"41788","block":1,"time":"2021-09-15T15:22:46.395Z"},{"rt":512.2000000476837,"stimulus":"[A] option 1, [L] option 2, [G] neither","key_press":76,"name":"choice","trial_type":"html-keyboard-response","trial_index":180,"time_elapsed":386151,"internal_node_id":"0.0-180.0","response":"2nd","certainty":"high","char":"L","transposition":0,"order":["swapped","shifted"],"probe_pitches":[8,9,8,3,4,7,8,2],"shifted_pitches":[8,9,8,3,5,7,8,2],"swapped_pitches":[8,9,8,4,3,7,8,2],"shift_direction":1,"question_num":151,"has_decoy":false,"subject":"S1C0811","sona":"41788","block":1,"time":"2021-09-15T15:22:46.395Z"},{"rt":251.89999997615814,"stimulus":"[A] option 1, [L] option 2, [G] neither","key_press":76,"name":"choice","trial_type":"html-keyboard-response","trial_index":191,"time_elapsed":403692,"internal_node_id":"0.0-191.0","response":"2nd","certainty":"high","char":"L","transposition":-3,"order":["swapped","shifted"],"probe_pitches":[3,6,8,3,-2,1,6,8],"shifted_pitches":[3,6,8,3,-3,1,6,8],"swapped_pitches":[3,6,8,-2,3,1,6,8],"shift_direction":-1,"question_num":161,"has_decoy":false,"subject":"S1C0811","sona":"41788","block":1,"time":"2021-09-15T15:22:46.395Z"},{"rt":321.7000000476837,"stimulus":"[A] option 1, [L] option 2, [G] neither","key_press":76,"name":"choice","trial_type":"html-keyboard-response","trial_index":202,"time_elapsed":418604,"internal_node_id":"0.0-202.0","response":"2nd","certainty":"high","char":"L","transposition":2,"order":["swapped","shifted"],"probe_pitches":[7,3,-2,5,7,0,7,5],"shifted_pitches":[7,3,-2,6,7,0,7,5],"swapped_pitches":[7,3,-2,7,5,0,7,5],"shift_direction":1,"question_num":171,"has_decoy":false,"subject":"S1C0811","sona":"41788","block":1,"time":"2021-09-15T15:22:46.395Z"},{"rt":443.39999997615814,"stimulus":"[A] option 1, [L] option 2, [G] neither","key_press":65,"name":"choice","trial_type":"html-keyboard-response","trial_index":213,"time_elapsed":436042,"internal_node_id":"0.0-213.0","response":"1st","certainty":"high","char":"A","transposition":-2,"order":["shifted","swapped"],"probe_pitches":[-2,1,5,8,3,-2,1,-2],"shifted_pitches":[-2,1,5,9,3,-2,1,-2],"swapped_pitches":[-2,1,5,3,8,-2,1,-2],"shift_direction":1,"question_num":181,"has_decoy":false,"subject":"S1C0811","sona":"41788","block":1,"time":"2021-09-15T15:22:46.395Z"},{"rt":839.3999999761581,"stimulus":"[A] option 1, [L] option 2, [G] neither","key_press":65,"name":"choice","trial_type":"html-keyboard-response","trial_index":224,"time_elapsed":451189,"internal_node_id":"0.0-224.0","response":"1st","certainty":"high","char":"A","transposition":-2,"order":["shifted","swapped"],"probe_pitches":[-2,2,4,1,9,-1,3,1],"shifted_pitches":[-2,2,4,1,8,-1,3,1],"swapped_pitches":[-2,2,4,9,1,-1,3,1],"shift_direction":-1,"question_num":191,"has_decoy":false,"subject":"S1C0811","sona":"41788","block":1,"time":"2021-09-15T15:22:46.395Z"}]