[{"rt":1350.6000000238419,"stimulus":"[A] option 1, [L] option 2, [G] neither","key_press":65,"name":"choice","trial_type":"html-keyboard-response","trial_index":10,"time_elapsed":15919,"internal_node_id":"0.0-10.0","subject":"S1C0811","sona":"41788","block":6,"time":"2021-09-15T15:55:03.018Z","response":"1st","certainty":"high","char":"A","transposition":-1,"order":["swapped","shifted"],"probe_pitches":[4,2,-1,6,9,-1,4,11],"shifted_pitches":[4,2,-1,7,9,-1,4,11],"swapped_pitches":[4,2,-1,9,6,-1,4,11],"shift_direction":1,"question_num":1,"has_decoy":false},{"rt":720.6000000238419,"stimulus":"[A] option 1, [L] option 2, [G] neither","key_press":76,"name":"choice","trial_type":"html-keyboard-response","trial_index":21,"time_elapsed":32238,"internal_node_id":"0.0-21.0","subject":"S1C0811","sona":"41788","block":6,"time":"2021-09-15T15:55:03.018Z","response":"2nd","certainty":"high","char":"L","transposition":-3,"order":["shifted","swapped"],"probe_pitches":[0,4,-2,6,3,-2,6,8],"shifted_pitches":[0,4,-2,6,2,-2,6,8],"swapped_pitches":[0,4,-2,3,6,-2,6,8],"shift_direction":-1,"question_num":11,"has_decoy":false},{"rt":4741.599999904633,"stimulus":"[A] option 1, [L] option 2, [G] neither","key_press":76,"name":"choice","trial_type":"html-keyboard-response","trial_index":32,"time_elapsed":53981,"internal_node_id":"0.0-32.0","subject":"S1C0811","sona":"41788","block":6,"time":"2021-09-15T15:55:03.018Z","response":"2nd","certainty":"high","char":"L","transposition":3,"order":["shifted","swapped"],"probe_pitches":[2,8,1,7,-1,3,7,8],"shifted_pitches":[2,8,1,6,-1,3,7,8],"swapped_pitches":[2,8,1,-1,7,3,7,8],"shift_direction":-1,"question_num":21,"has_decoy":false},{"rt":1646.2000000476837,"stimulus":"[A] option 1, [L] option 2, [G] neither","key_press":76,"name":"choice","trial_type":"html-keyboard-response","trial_index":43,"time_elapsed":76816,"internal_node_id":"0.0-43.0","subject":"S1C0811","sona":"41788","block":6,"time":"2021-09-15T15:55:03.018Z","response":"2nd","certainty":"high","char":"L","transposition":-1,"order":["shifted","swapped"],"probe_pitches":[1,6,1,4,9,1,4,-1],"shifted_pitches":[1,6,1,4,8,1,4,-1],"swapped_pitches":[1,6,1,9,4,1,4,-1],"shift_direction":-1,"question_num":31,"has_decoy":false},{"rt":579.8999999761581,"stimulus":"[A] option 1, [L] option 2, [G] neither","key_press":65,"name":"choice","trial_type":"html-keyboard-response","trial_index":54,"time_elapsed":95780,"internal_node_id":"0.0-54.0","subject":"S1C0811","sona":"41788","block":6,"time":"2021-09-15T15:55:03.018Z","response":"1st","certainty":"high","char":"A","transposition":2,"order":["shifted","swapped"],"probe_pitches":[6,1,8,4,6,11,4,6],"shifted_pitches":[6,1,8,4,5,11,4,6],"swapped_pitches":[6,1,8,6,4,11,4,6],"shift_direction":-1,"question_num":41,"has_decoy":false},{"rt":863,"stimulus":"[A] option 1, [L] option 2, [G] neither","key_press":76,"name":"choice","trial_type":"html-keyboard-response","trial_index":65,"time_elapsed":115215,"internal_node_id":"0.0-65.0","subject":"S1C0811","sona":"41788","block":6,"time":"2021-09-15T15:55:03.018Z","response":"2nd","certainty":"high","char":"L","transposition":1,"order":["swapped","shifted"],"probe_pitches":[11,8,6,1,-1,3,-1,8],"shifted_pitches":[11,8,6,1,-2,3,-1,8],"swapped_pitches":[11,8,6,-1,1,3,-1,8],"shift_direction":-1,"question_num":51,"has_decoy":false},{"rt":2394.100000023842,"stimulus":"[A] option 1, [L] option 2, [G] neither","key_press":65,"name":"choice","trial_type":"html-keyboard-response","trial_index":76,"time_elapsed":132493,"internal_node_id":"0.0-76.0","subject":"S1C0811","sona":"41788","block":6,"time":"2021-09-15T15:55:03.018Z","response":"1st","certainty":"high","char":"A","transposition":0,"order":["shifted","swapped"],"probe_pitches":[4,-1,6,1,-1,9,11,1],"shifted_pitches":[4,-1,6,1,0,9,11,1],"swapped_pitches":[4,-1,6,-1,1,9,11,1],"shift_direction":1,"question_num":61,"has_decoy":false},{"rt":1335.8999999761581,"stimulus":"[A] option 1, [L] option 2, [G] neither","key_press":65,"name":"choice","trial_type":"html-keyboard-response","trial_index":87,"time_elapsed":151457,"internal_node_id":"0.0-87.0","subject":"S1C0811","sona":"41788","block":6,"time":"2021-09-15T15:55:03.018Z","response":"1st","certainty":"high","char":"A","transposition":-3,"order":["shifted","swapped"],"probe_pitches":[11,6,11,8,-1,6,1,3],"shifted_pitches":[11,6,11,9,-1,6,1,3],"swapped_pitches":[11,6,11,-1,8,6,1,3],"shift_direction":1,"question_num":71,"has_decoy":false},{"rt":343.6999999284744,"stimulus":"[A] option 1, [L] option 2, [G] neither","key_press":76,"name":"choice","trial_type":"html-keyboard-response","trial_index":98,"time_elapsed":166688,"internal_node_id":"0.0-98.0","subject":"S1C0811","sona":"41788","block":6,"time":"2021-09-15T15:55:03.018Z","response":"2nd","certainty":"high","char":"L","transposition":-2,"order":["swapped","shifted"],"probe_pitches":[4,9,7,-1,2,11,4,9],"shifted_pitches":[4,9,7,-2,2,11,4,9],"swapped_pitches":[4,9,7,2,-1,11,4,9],"shift_direction":-1,"question_num":81,"has_decoy":false},{"rt":600.2000000476837,"stimulus":"[A] option 1, [L] option 2, [G] neither","key_press":76,"name":"choice","trial_type":"html-keyboard-response","trial_index":109,"time_elapsed":182138,"internal_node_id":"0.0-109.0","subject":"S1C0811","sona":"41788","block":6,"time":"2021-09-15T15:55:03.018Z","response":"2nd","certainty":"high","char":"L","transposition":-2,"order":["swapped","shifted"],"probe_pitches":[2,4,2,6,4,9,2,11],"shifted_pitches":[2,4,2,6,5,9,2,11],"swapped_pitches":[2,4,2,4,6,9,2,11],"shift_direction":1,"question_num":91,"has_decoy":false},{"rt":4084.5,"stimulus":"[A] option 1, [L] option 2, [G] neither","key_press":65,"name":"choice","trial_type":"html-keyboard-response","trial_index":120,"time_elapsed":200987,"internal_node_id":"0.0-120.0","subject":"S1C0811","sona":"41788","block":6,"time":"2021-09-15T15:55:03.018Z","response":"1st","certainty":"high","char":"A","transposition":-3,"order":["swapped","shifted"],"probe_pitches":[9,7,3,0,7,8,6,3],"shifted_pitches":[9,7,3,1,7,8,6,3],"swapped_pitches":[9,7,3,7,0,8,6,3],"shift_direction":1,"question_num":101,"has_decoy":false},{"rt":353.10000002384186,"stimulus":"[A] option 1, [L] option 2, [G] neither","key_press":76,"name":"choice","trial_type":"html-keyboard-response","trial_index":131,"time_elapsed":217180,"internal_node_id":"0.0-131.0","subject":"S1C0811","sona":"41788","block":6,"time":"2021-09-15T15:55:03.018Z","response":"2nd","certainty":"high","char":"L","transposition":-3,"order":["swapped","shifted"],"probe_pitches":[11,9,2,9,7,2,4,-1],"shifted_pitches":[11,9,2,10,7,2,4,-1],"swapped_pitches":[11,9,2,7,9,2,4,-1],"shift_direction":1,"question_num":111,"has_decoy":false},{"rt":2005.5,"stimulus":"[A] option 1, [L] option 2, [G] neither","key_press":65,"name":"choice","trial_type":"html-keyboard-response","trial_index":142,"time_elapsed":234107,"internal_node_id":"0.0-142.0","subject":"S1C0811","sona":"41788","block":6,"time":"2021-09-15T15:55:03.018Z","response":"1st","certainty":"high","char":"A","transposition":0,"order":["shifted","swapped"],"probe_pitches":[-2,1,8,6,-1,9,8,6],"shifted_pitches":[-2,1,8,6,0,9,8,6],"swapped_pitches":[-2,1,8,-1,6,9,8,6],"shift_direction":1,"question_num":121,"has_decoy":false},{"rt":4402.200000047684,"stimulus":"[A] option 1, [L] option 2, [G] neither","key_press":76,"name":"choice","trial_type":"html-keyboard-response","trial_index":153,"time_elapsed":253398,"internal_node_id":"0.0-153.0","subject":"S1C0811","sona":"41788","block":6,"time":"2021-09-15T15:55:03.018Z","response":"2nd","certainty":"high","char":"L","transposition":-2,"order":["swapped","shifted"],"probe_pitches":[6,2,-2,2,5,3,6,10],"shifted_pitches":[6,2,-2,2,4,3,6,10],"swapped_pitches":[6,2,-2,5,2,3,6,10],"shift_direction":-1,"question_num":131,"has_decoy":false},{"rt":656.6000000238419,"stimulus":"[A] option 1, [L] option 2, [G] neither","key_press":76,"name":"choice","trial_type":"html-keyboard-response","trial_index":164,"time_elapsed":268831,"internal_node_id":"0.0-164.0","subject":"S1C0811","sona":"41788","block":6,"time":"2021-09-15T15:55:03.018Z","response":"2nd","certainty":"high","char":"L","transposition":2,"order":["swapped","shifted"],"probe_pitches":[5,1,4,-1,8,0,5,0],"shifted_pitches":[5,1,4,-1,9,0,5,0],"swapped_pitches":[5,1,4,8,-1,0,5,0],"shift_direction":1,"question_num":141,"has_decoy":false},{"rt":749.0999999046326,"stimulus":"[A] option 1, [L] option 2, [G] neither","key_press":71,"name":"choice","trial_type":"html-keyboard-response","trial_index":175,"time_elapsed":284287,"internal_node_id":"0.0-175.0","subject":"S1C0811","sona":"41788","block":6,"time":"2021-09-15T15:55:03.018Z","response":"neither","certainty":"high","char":"G","transposition":1,"order":["shifted","swapped"],"probe_pitches":[1,-1,-2,4,1,8,6,2],"shifted_pitches":[1,-1,-2,3,1,8,6,2],"swapped_pitches":[1,-1,-2,1,4,8,6,2],"shift_direction":-1,"question_num":151,"has_decoy":false},{"rt":569.2999999523163,"stimulus":"[A] option 1, [L] option 2, [G] neither","key_press":65,"name":"choice","trial_type":"html-keyboard-response","trial_index":186,"time_elapsed":299499,"internal_node_id":"0.0-186.0","subject":"S1C0811","sona":"41788","block":6,"time":"2021-09-15T15:55:03.018Z","response":"1st","certainty":"high","char":"A","transposition":3,"order":["shifted","swapped"],"probe_pitches":[-1,4,6,1,-1,4,-1,8],"shifted_pitches":[-1,4,6,0,-1,4,-1,8],"swapped_pitches":[-1,4,6,-1,1,4,-1,8],"shift_direction":-1,"question_num":161,"has_decoy":false},{"rt":1045.1000000238419,"stimulus":"[A] option 1, [L] option 2, [G] neither","key_press":76,"name":"choice","trial_type":"html-keyboard-response","trial_index":197,"time_elapsed":315212,"internal_node_id":"0.0-197.0","subject":"S1C0811","sona":"41788","block":6,"time":"2021-09-15T15:55:03.018Z","response":"2nd","certainty":"high","char":"L","transposition":-1,"order":["shifted","swapped"],"probe_pitches":[6,3,6,5,9,0,1,-2],"shifted_pitches":[6,3,6,5,8,0,1,-2],"swapped_pitches":[6,3,6,9,5,0,1,-2],"shift_direction":-1,"question_num":171,"has_decoy":false},{"rt":327.60000002384186,"stimulus":"[A] option 1, [L] option 2, [G] neither","key_press":76,"name":"choice","trial_type":"html-keyboard-response","trial_index":208,"time_elapsed":364270,"internal_node_id":"0.0-208.0","subject":"S1C0811","sona":"41788","block":6,"time":"2021-09-15T15:55:03.018Z","response":"2nd","certainty":"high","char":"L","transposition":-2,"order":["swapped","shifted"],"probe_pitches":[4,6,-1,4,-2,8,1,-2],"shifted_pitches":[4,6,-1,5,-2,8,1,-2],"swapped_pitches":[4,6,-1,-2,4,8,1,-2],"shift_direction":1,"question_num":181,"has_decoy":false},{"rt":1794.6000000238419,"stimulus":"[A] option 1, [L] option 2, [G] neither","key_press":65,"name":"choice","trial_type":"html-keyboard-response","trial_index":219,"time_elapsed":381072,"internal_node_id":"0.0-219.0","subject":"S1C0811","sona":"41788","block":6,"time":"2021-09-15T15:55:03.018Z","response":"1st","certainty":"high","char":"A","transposition":-1,"order":["swapped","shifted"],"probe_pitches":[1,2,8,6,3,5,6,-1],"shifted_pitches":[1,2,8,7,3,5,6,-1],"swapped_pitches":[1,2,8,3,6,5,6,-1],"shift_direction":1,"question_num":191,"has_decoy":false}]