[{"rt":84.60000002384186,"stimulus":"[A] option 1, [L] option 2, [G] neither","key_press":76,"name":"choice","trial_type":"html-keyboard-response","trial_index":10,"time_elapsed":19507,"internal_node_id":"0.0-10.0","subject":"S1C0811","sona":"41788","block":5,"time":"2021-09-15T15:48:38.379Z","response":"2nd","certainty":"high","char":"L","transposition":0,"order":["swapped","shifted"],"probe_pitches":[13,8,3,5,10,13,3,8],"shifted_pitches":[13,8,3,5,11,13,3,8],"swapped_pitches":[13,8,3,10,5,13,3,8],"shift_direction":1,"question_num":1,"has_decoy":false},{"rt":3859.600000023842,"stimulus":"[A] option 1, [L] option 2, [G] neither","key_press":76,"name":"choice","trial_type":"html-keyboard-response","trial_index":21,"time_elapsed":40439,"internal_node_id":"0.0-21.0","subject":"S1C0811","sona":"41788","block":5,"time":"2021-09-15T15:48:38.379Z","response":"2nd","certainty":"high","char":"L","transposition":-2,"order":["shifted","swapped"],"probe_pitches":[5,10,8,12,4,7,14,6],"shifted_pitches":[5,10,8,11,4,7,14,6],"swapped_pitches":[5,10,8,4,12,7,14,6],"shift_direction":-1,"question_num":11,"has_decoy":false},{"rt":684.1999999284744,"stimulus":"[A] option 1, [L] option 2, [G] neither","key_press":65,"name":"choice","trial_type":"html-keyboard-response","trial_index":32,"time_elapsed":74909,"internal_node_id":"0.0-32.0","subject":"S1C0811","sona":"41788","block":5,"time":"2021-09-15T15:48:38.379Z","response":"1st","certainty":"high","char":"A","transposition":3,"order":["shifted","swapped"],"probe_pitches":[10,8,3,1,8,6,13,10],"shifted_pitches":[10,8,3,0,8,6,13,10],"swapped_pitches":[10,8,3,8,1,6,13,10],"shift_direction":-1,"question_num":21,"has_decoy":false},{"rt":3169.7000000476837,"stimulus":"[A] option 1, [L] option 2, [G] neither","key_press":65,"name":"choice","trial_type":"html-keyboard-response","trial_index":43,"time_elapsed":95224,"internal_node_id":"0.0-43.0","subject":"S1C0811","sona":"41788","block":5,"time":"2021-09-15T15:48:38.379Z","response":"1st","certainty":"high","char":"A","transposition":-2,"order":["shifted","swapped"],"probe_pitches":[6,1,4,8,6,11,13,1],"shifted_pitches":[6,1,4,7,6,11,13,1],"swapped_pitches":[6,1,4,6,8,11,13,1],"shift_direction":-1,"question_num":31,"has_decoy":false},{"rt":378.7999999523163,"stimulus":"[A] option 1, [L] option 2, [G] neither","key_press":76,"name":"choice","trial_type":"html-keyboard-response","trial_index":54,"time_elapsed":120773,"internal_node_id":"0.0-54.0","subject":"S1C0811","sona":"41788","block":5,"time":"2021-09-15T15:48:38.379Z","response":"2nd","certainty":"high","char":"L","transposition":-1,"order":["swapped","shifted"],"probe_pitches":[9,4,9,4,6,11,4,1],"shifted_pitches":[9,4,9,4,7,11,4,1],"swapped_pitches":[9,4,9,6,4,11,4,1],"shift_direction":1,"question_num":41,"has_decoy":false},{"rt":873.5999999046326,"stimulus":"[A] option 1, [L] option 2, [G] neither","key_press":71,"name":"choice","trial_type":"html-keyboard-response","trial_index":65,"time_elapsed":139464,"internal_node_id":"0.0-65.0","subject":"S1C0811","sona":"41788","block":5,"time":"2021-09-15T15:48:38.379Z","response":"neither","certainty":"high","char":"G","transposition":2,"order":["shifted","swapped"],"probe_pitches":[4,6,13,8,1,11,6,13],"shifted_pitches":[4,6,13,9,1,11,6,13],"swapped_pitches":[4,6,13,1,8,11,6,13],"shift_direction":1,"question_num":51,"has_decoy":false},{"rt":4044.5,"stimulus":"[A] option 1, [L] option 2, [G] neither","key_press":76,"name":"choice","trial_type":"html-keyboard-response","trial_index":76,"time_elapsed":163183,"internal_node_id":"0.0-76.0","subject":"S1C0811","sona":"41788","block":5,"time":"2021-09-15T15:48:38.379Z","response":"2nd","certainty":"high","char":"L","transposition":-3,"order":["swapped","shifted"],"probe_pitches":[5,8,6,12,9,8,3,13],"shifted_pitches":[5,8,6,12,10,8,3,13],"swapped_pitches":[5,8,6,9,12,8,3,13],"shift_direction":1,"question_num":61,"has_decoy":false},{"rt":3499,"stimulus":"[A] option 1, [L] option 2, [G] neither","key_press":76,"name":"choice","trial_type":"html-keyboard-response","trial_index":87,"time_elapsed":184893,"internal_node_id":"0.0-87.0","subject":"S1C0811","sona":"41788","block":5,"time":"2021-09-15T15:48:38.379Z","response":"2nd","certainty":"high","char":"L","transposition":-3,"order":["swapped","shifted"],"probe_pitches":[3,1,8,1,6,8,3,11],"shifted_pitches":[3,1,8,0,6,8,3,11],"swapped_pitches":[3,1,8,6,1,8,3,11],"shift_direction":-1,"question_num":71,"has_decoy":false},{"rt":1549.8000000715256,"stimulus":"[A] option 1, [L] option 2, [G] neither","key_press":76,"name":"choice","trial_type":"html-keyboard-response","trial_index":98,"time_elapsed":205002,"internal_node_id":"0.0-98.0","subject":"S1C0811","sona":"41788","block":5,"time":"2021-09-15T15:48:38.379Z","response":"2nd","certainty":"high","char":"L","transposition":-2,"order":["shifted","swapped"],"probe_pitches":[13,9,6,11,4,6,11,4],"shifted_pitches":[13,9,6,10,4,6,11,4],"swapped_pitches":[13,9,6,4,11,6,11,4],"shift_direction":-1,"question_num":81,"has_decoy":false},{"rt":656.1000000238419,"stimulus":"[A] option 1, [L] option 2, [G] neither","key_press":76,"name":"choice","trial_type":"html-keyboard-response","trial_index":109,"time_elapsed":223227,"internal_node_id":"0.0-109.0","subject":"S1C0811","sona":"41788","block":5,"time":"2021-09-15T15:48:38.379Z","response":"2nd","certainty":"high","char":"L","transposition":-1,"order":["shifted","swapped"],"probe_pitches":[10,6,8,11,14,13,6,11],"shifted_pitches":[10,6,8,12,14,13,6,11],"swapped_pitches":[10,6,8,14,11,13,6,11],"shift_direction":1,"question_num":91,"has_decoy":false},{"rt":3949.5999999046326,"stimulus":"[A] option 1, [L] option 2, [G] neither","key_press":65,"name":"choice","trial_type":"html-keyboard-response","trial_index":120,"time_elapsed":254348,"internal_node_id":"0.0-120.0","subject":"S1C0811","sona":"41788","block":5,"time":"2021-09-15T15:48:38.379Z","response":"1st","certainty":"high","char":"A","transposition":-3,"order":["swapped","shifted"],"probe_pitches":[11,6,3,1,8,6,13,6],"shifted_pitches":[11,6,3,1,7,6,13,6],"swapped_pitches":[11,6,3,8,1,6,13,6],"shift_direction":-1,"question_num":101,"has_decoy":false},{"rt":1908.3000000715256,"stimulus":"[A] option 1, [L] option 2, [G] neither","key_press":71,"name":"choice","trial_type":"html-keyboard-response","trial_index":131,"time_elapsed":277395,"internal_node_id":"0.0-131.0","subject":"S1C0811","sona":"41788","block":5,"time":"2021-09-15T15:48:38.379Z","response":"neither","certainty":"high","char":"G","transposition":-2,"order":["swapped","shifted"],"probe_pitches":[2,6,3,8,6,14,6,5],"shifted_pitches":[2,6,3,9,6,14,6,5],"swapped_pitches":[2,6,3,6,8,14,6,5],"shift_direction":1,"question_num":111,"has_decoy":false},{"rt":734.2999999523163,"stimulus":"[A] option 1, [L] option 2, [G] neither","key_press":71,"name":"choice","trial_type":"html-keyboard-response","trial_index":142,"time_elapsed":294460,"internal_node_id":"0.0-142.0","subject":"S1C0811","sona":"41788","block":5,"time":"2021-09-15T15:48:38.379Z","response":"neither","certainty":"high","char":"G","transposition":-1,"order":["shifted","swapped"],"probe_pitches":[3,1,6,1,8,13,10,1],"shifted_pitches":[3,1,6,1,9,13,10,1],"swapped_pitches":[3,1,6,8,1,13,10,1],"shift_direction":1,"question_num":121,"has_decoy":false},{"rt":3132.7999999523163,"stimulus":"[A] option 1, [L] option 2, [G] neither","key_press":65,"name":"choice","trial_type":"html-keyboard-response","trial_index":153,"time_elapsed":313998,"internal_node_id":"0.0-153.0","subject":"S1C0811","sona":"41788","block":5,"time":"2021-09-15T15:48:38.379Z","response":"1st","certainty":"high","char":"A","transposition":0,"order":["shifted","swapped"],"probe_pitches":[3,5,7,14,9,8,2,6],"shifted_pitches":[3,5,7,13,9,8,2,6],"swapped_pitches":[3,5,7,9,14,8,2,6],"shift_direction":-1,"question_num":131,"has_decoy":false},{"rt":683.4000000953674,"stimulus":"[A] option 1, [L] option 2, [G] neither","key_press":76,"name":"choice","trial_type":"html-keyboard-response","trial_index":164,"time_elapsed":330305,"internal_node_id":"0.0-164.0","subject":"S1C0811","sona":"41788","block":5,"time":"2021-09-15T15:48:38.379Z","response":"2nd","certainty":"high","char":"L","transposition":-3,"order":["shifted","swapped"],"probe_pitches":[12,11,6,10,9,2,5,14],"shifted_pitches":[12,11,6,10,8,2,5,14],"swapped_pitches":[12,11,6,9,10,2,5,14],"shift_direction":-1,"question_num":141,"has_decoy":false},{"rt":2845.399999976158,"stimulus":"[A] option 1, [L] option 2, [G] neither","key_press":65,"name":"choice","trial_type":"html-keyboard-response","trial_index":175,"time_elapsed":350521,"internal_node_id":"0.0-175.0","subject":"S1C0811","sona":"41788","block":5,"time":"2021-09-15T15:48:38.379Z","response":"1st","certainty":"high","char":"A","transposition":3,"order":["shifted","swapped"],"probe_pitches":[13,7,11,13,5,12,5,8],"shifted_pitches":[13,7,11,13,6,12,5,8],"swapped_pitches":[13,7,11,5,13,12,5,8],"shift_direction":1,"question_num":151,"has_decoy":false},{"rt":2068.2999999523163,"stimulus":"[A] option 1, [L] option 2, [G] neither","key_press":65,"name":"choice","trial_type":"html-keyboard-response","trial_index":186,"time_elapsed":370142,"internal_node_id":"0.0-186.0","subject":"S1C0811","sona":"41788","block":5,"time":"2021-09-15T15:48:38.379Z","response":"1st","certainty":"high","char":"A","transposition":-1,"order":["swapped","shifted"],"probe_pitches":[12,14,12,4,13,10,6,3],"shifted_pitches":[12,14,12,5,13,10,6,3],"swapped_pitches":[12,14,12,13,4,10,6,3],"shift_direction":1,"question_num":161,"has_decoy":false},{"rt":1226.3000000715256,"stimulus":"[A] option 1, [L] option 2, [G] neither","key_press":71,"name":"choice","trial_type":"html-keyboard-response","trial_index":197,"time_elapsed":388862,"internal_node_id":"0.0-197.0","subject":"S1C0811","sona":"41788","block":5,"time":"2021-09-15T15:48:38.379Z","response":"neither","certainty":"high","char":"G","transposition":1,"order":["swapped","shifted"],"probe_pitches":[11,14,12,13,8,6,3,13],"shifted_pitches":[11,14,12,13,7,6,3,13],"swapped_pitches":[11,14,12,8,13,6,3,13],"shift_direction":-1,"question_num":171,"has_decoy":false},{"rt":1015.4000000953674,"stimulus":"[A] option 1, [L] option 2, [G] neither","key_press":65,"name":"choice","trial_type":"html-keyboard-response","trial_index":208,"time_elapsed":405109,"internal_node_id":"0.0-208.0","subject":"S1C0811","sona":"41788","block":5,"time":"2021-09-15T15:48:38.379Z","response":"1st","certainty":"high","char":"A","transposition":2,"order":["swapped","shifted"],"probe_pitches":[7,6,8,2,5,13,2,8],"shifted_pitches":[7,6,8,2,4,13,2,8],"swapped_pitches":[7,6,8,5,2,13,2,8],"shift_direction":-1,"question_num":181,"has_decoy":false},{"rt":2158.8000000715256,"stimulus":"[A] option 1, [L] option 2, [G] neither","key_press":65,"name":"choice","trial_type":"html-keyboard-response","trial_index":219,"time_elapsed":424054,"internal_node_id":"0.0-219.0","subject":"S1C0811","sona":"41788","block":5,"time":"2021-09-15T15:48:38.379Z","response":"1st","certainty":"high","char":"A","transposition":1,"order":["swapped","shifted"],"probe_pitches":[1,3,8,10,5,8,1,13],"shifted_pitches":[1,3,8,10,6,8,1,13],"swapped_pitches":[1,3,8,5,10,8,1,13],"shift_direction":1,"question_num":191,"has_decoy":false}]