[{"rt":844.2000000476837,"stimulus":"[A] option 1, [L] option 2, [G] neither","key_press":76,"name":"choice","trial_type":"html-keyboard-response","trial_index":10,"time_elapsed":15160,"internal_node_id":"0.0-10.0","subject":"S1C0811","sona":"41788","block":3,"time":"2021-09-15T15:35:20.901Z","response":"2nd","certainty":"high","char":"L","transposition":-1,"order":["shifted","swapped"],"probe_pitches":[10,6,2,4,0,2,1,8],"shifted_pitches":[10,6,2,5,0,2,1,8],"swapped_pitches":[10,6,2,0,4,2,1,8],"shift_direction":1,"question_num":1,"has_decoy":false},{"rt":730.7999999523163,"stimulus":"[A] option 1, [L] option 2, [G] neither","key_press":76,"name":"choice","trial_type":"html-keyboard-response","trial_index":21,"time_elapsed":32406,"internal_node_id":"0.0-21.0","subject":"S1C0811","sona":"41788","block":3,"time":"2021-09-15T15:35:20.901Z","response":"2nd","certainty":"high","char":"L","transposition":-3,"order":["shifted","swapped"],"probe_pitches":[10,9,3,2,5,10,-1,10],"shifted_pitches":[10,9,3,2,6,10,-1,10],"swapped_pitches":[10,9,3,5,2,10,-1,10],"shift_direction":1,"question_num":11,"has_decoy":false},{"rt":1336,"stimulus":"[A] option 1, [L] option 2, [G] neither","key_press":65,"name":"choice","trial_type":"html-keyboard-response","trial_index":32,"time_elapsed":50152,"internal_node_id":"0.0-32.0","subject":"S1C0811","sona":"41788","block":3,"time":"2021-09-15T15:35:20.901Z","response":"1st","certainty":"high","char":"A","transposition":-2,"order":["swapped","shifted"],"probe_pitches":[3,8,10,5,-2,3,0,5],"shifted_pitches":[3,8,10,6,-2,3,0,5],"swapped_pitches":[3,8,10,-2,5,3,0,5],"shift_direction":1,"question_num":21,"has_decoy":false},{"rt":341.39999997615814,"stimulus":"[A] option 1, [L] option 2, [G] neither","key_press":65,"name":"choice","trial_type":"html-keyboard-response","trial_index":43,"time_elapsed":67124,"internal_node_id":"0.0-43.0","subject":"S1C0811","sona":"41788","block":3,"time":"2021-09-15T15:35:20.901Z","response":"1st","certainty":"high","char":"A","transposition":2,"order":["swapped","shifted"],"probe_pitches":[7,6,8,0,4,11,8,7],"shifted_pitches":[7,6,8,0,3,11,8,7],"swapped_pitches":[7,6,8,4,0,11,8,7],"shift_direction":-1,"question_num":31,"has_decoy":false},{"rt":550.9000000953674,"stimulus":"[A] option 1, [L] option 2, [G] neither","key_press":65,"name":"choice","trial_type":"html-keyboard-response","trial_index":54,"time_elapsed":82848,"internal_node_id":"0.0-54.0","subject":"S1C0811","sona":"41788","block":3,"time":"2021-09-15T15:35:20.901Z","response":"1st","certainty":"high","char":"A","transposition":-3,"order":["shifted","swapped"],"probe_pitches":[10,7,3,10,5,7,0,3],"shifted_pitches":[10,7,3,9,5,7,0,3],"swapped_pitches":[10,7,3,5,10,7,0,3],"shift_direction":-1,"question_num":41,"has_decoy":false},{"rt":672.6000000238419,"stimulus":"[A] option 1, [L] option 2, [G] neither","key_press":76,"name":"choice","trial_type":"html-keyboard-response","trial_index":65,"time_elapsed":98750,"internal_node_id":"0.0-65.0","subject":"S1C0811","sona":"41788","block":3,"time":"2021-09-15T15:35:20.901Z","response":"2nd","certainty":"high","char":"L","transposition":-3,"order":["swapped","shifted"],"probe_pitches":[3,5,6,10,3,5,11,-1],"shifted_pitches":[3,5,6,9,3,5,11,-1],"swapped_pitches":[3,5,6,3,10,5,11,-1],"shift_direction":-1,"question_num":51,"has_decoy":false},{"rt":2066.3000000715256,"stimulus":"[A] option 1, [L] option 2, [G] neither","key_press":71,"name":"choice","trial_type":"html-keyboard-response","trial_index":76,"time_elapsed":116164,"internal_node_id":"0.0-76.0","subject":"S1C0811","sona":"41788","block":3,"time":"2021-09-15T15:35:20.901Z","response":"neither","certainty":"high","char":"G","transposition":1,"order":["swapped","shifted"],"probe_pitches":[8,5,6,7,9,-1,7,-1],"shifted_pitches":[8,5,6,7,10,-1,7,-1],"swapped_pitches":[8,5,6,9,7,-1,7,-1],"shift_direction":1,"question_num":61,"has_decoy":false},{"rt":518.6000000238419,"stimulus":"[A] option 1, [L] option 2, [G] neither","key_press":76,"name":"choice","trial_type":"html-keyboard-response","trial_index":87,"time_elapsed":131448,"internal_node_id":"0.0-87.0","subject":"S1C0811","sona":"41788","block":3,"time":"2021-09-15T15:35:20.901Z","response":"2nd","certainty":"high","char":"L","transposition":0,"order":["swapped","shifted"],"probe_pitches":[8,10,3,8,0,10,5,0],"shifted_pitches":[8,10,3,8,1,10,5,0],"swapped_pitches":[8,10,3,0,8,10,5,0],"shift_direction":1,"question_num":71,"has_decoy":false},{"rt":1820,"stimulus":"[A] option 1, [L] option 2, [G] neither","key_press":65,"name":"choice","trial_type":"html-keyboard-response","trial_index":98,"time_elapsed":149853,"internal_node_id":"0.0-98.0","subject":"S1C0811","sona":"41788","block":3,"time":"2021-09-15T15:35:20.901Z","response":"1st","certainty":"high","char":"A","transposition":0,"order":["shifted","swapped"],"probe_pitches":[-1,1,-1,1,0,7,3,4],"shifted_pitches":[-1,1,-1,2,0,7,3,4],"swapped_pitches":[-1,1,-1,0,1,7,3,4],"shift_direction":1,"question_num":81,"has_decoy":false},{"rt":2447.100000023842,"stimulus":"[A] option 1, [L] option 2, [G] neither","key_press":65,"name":"choice","trial_type":"html-keyboard-response","trial_index":109,"time_elapsed":168292,"internal_node_id":"0.0-109.0","subject":"S1C0811","sona":"41788","block":3,"time":"2021-09-15T15:35:20.901Z","response":"1st","certainty":"high","char":"A","transposition":-1,"order":["swapped","shifted"],"probe_pitches":[3,-2,5,8,1,-2,3,10],"shifted_pitches":[3,-2,5,9,1,-2,3,10],"swapped_pitches":[3,-2,5,1,8,-2,3,10],"shift_direction":1,"question_num":91,"has_decoy":false},{"rt":1651.1000000238419,"stimulus":"[A] option 1, [L] option 2, [G] neither","key_press":76,"name":"choice","trial_type":"html-keyboard-response","trial_index":120,"time_elapsed":185106,"internal_node_id":"0.0-120.0","subject":"S1C0811","sona":"41788","block":3,"time":"2021-09-15T15:35:20.901Z","response":"2nd","certainty":"high","char":"L","transposition":-3,"order":["shifted","swapped"],"probe_pitches":[10,8,6,10,1,6,8,3],"shifted_pitches":[10,8,6,10,0,6,8,3],"swapped_pitches":[10,8,6,1,10,6,8,3],"shift_direction":-1,"question_num":101,"has_decoy":false},{"rt":286.60000002384186,"stimulus":"[A] option 1, [L] option 2, [G] neither","key_press":76,"name":"choice","trial_type":"html-keyboard-response","trial_index":131,"time_elapsed":200813,"internal_node_id":"0.0-131.0","subject":"S1C0811","sona":"41788","block":3,"time":"2021-09-15T15:35:20.901Z","response":"2nd","certainty":"high","char":"L","transposition":-2,"order":["shifted","swapped"],"probe_pitches":[10,7,10,5,-1,7,8,2],"shifted_pitches":[10,7,10,4,-1,7,8,2],"swapped_pitches":[10,7,10,-1,5,7,8,2],"shift_direction":-1,"question_num":111,"has_decoy":false},{"rt":2616.3000000715256,"stimulus":"[A] option 1, [L] option 2, [G] neither","key_press":65,"name":"choice","trial_type":"html-keyboard-response","trial_index":142,"time_elapsed":217931,"internal_node_id":"0.0-142.0","subject":"S1C0811","sona":"41788","block":3,"time":"2021-09-15T15:35:20.901Z","response":"1st","certainty":"high","char":"A","transposition":-1,"order":["swapped","shifted"],"probe_pitches":[2,3,2,10,9,4,-1,0],"shifted_pitches":[2,3,2,10,8,4,-1,0],"swapped_pitches":[2,3,2,9,10,4,-1,0],"shift_direction":-1,"question_num":121,"has_decoy":false},{"rt":4356.5,"stimulus":"[A] option 1, [L] option 2, [G] neither","key_press":76,"name":"choice","trial_type":"html-keyboard-response","trial_index":153,"time_elapsed":237164,"internal_node_id":"0.0-153.0","subject":"S1C0811","sona":"41788","block":3,"time":"2021-09-15T15:35:20.901Z","response":"2nd","certainty":"high","char":"L","transposition":2,"order":["shifted","swapped"],"probe_pitches":[1,-2,3,10,8,6,10,6],"shifted_pitches":[1,-2,3,10,9,6,10,6],"swapped_pitches":[1,-2,3,8,10,6,10,6],"shift_direction":1,"question_num":131,"has_decoy":false},{"rt":775.6000000238419,"stimulus":"[A] option 1, [L] option 2, [G] neither","key_press":65,"name":"choice","trial_type":"html-keyboard-response","trial_index":164,"time_elapsed":253844,"internal_node_id":"0.0-164.0","subject":"S1C0811","sona":"41788","block":3,"time":"2021-09-15T15:35:20.901Z","response":"1st","certainty":"high","char":"A","transposition":3,"order":["shifted","swapped"],"probe_pitches":[2,-2,0,5,7,2,10,5],"shifted_pitches":[2,-2,0,5,6,2,10,5],"swapped_pitches":[2,-2,0,7,5,2,10,5],"shift_direction":-1,"question_num":141,"has_decoy":false},{"rt":2487.600000023842,"stimulus":"[A] option 1, [L] option 2, [G] neither","key_press":76,"name":"choice","trial_type":"html-keyboard-response","trial_index":175,"time_elapsed":270803,"internal_node_id":"0.0-175.0","subject":"S1C0811","sona":"41788","block":3,"time":"2021-09-15T15:35:20.901Z","response":"2nd","certainty":"high","char":"L","transposition":-2,"order":["shifted","swapped"],"probe_pitches":[4,10,5,0,8,4,-1,7],"shifted_pitches":[4,10,5,1,8,4,-1,7],"swapped_pitches":[4,10,5,8,0,4,-1,7],"shift_direction":1,"question_num":151,"has_decoy":false},{"rt":991.7000000476837,"stimulus":"[A] option 1, [L] option 2, [G] neither","key_press":76,"name":"choice","trial_type":"html-keyboard-response","trial_index":186,"time_elapsed":287072,"internal_node_id":"0.0-186.0","subject":"S1C0811","sona":"41788","block":3,"time":"2021-09-15T15:35:20.901Z","response":"2nd","certainty":"high","char":"L","transposition":1,"order":["shifted","swapped"],"probe_pitches":[1,5,3,10,8,1,5,8],"shifted_pitches":[1,5,3,11,8,1,5,8],"swapped_pitches":[1,5,3,8,10,1,5,8],"shift_direction":1,"question_num":161,"has_decoy":false},{"rt":1395.7000000476837,"stimulus":"[A] option 1, [L] option 2, [G] neither","key_press":76,"name":"choice","trial_type":"html-keyboard-response","trial_index":197,"time_elapsed":305646,"internal_node_id":"0.0-197.0","subject":"S1C0811","sona":"41788","block":3,"time":"2021-09-15T15:35:20.901Z","response":"2nd","certainty":"high","char":"L","transposition":-1,"order":["swapped","shifted"],"probe_pitches":[2,7,10,5,2,7,0,-2],"shifted_pitches":[2,7,10,4,2,7,0,-2],"swapped_pitches":[2,7,10,2,5,7,0,-2],"shift_direction":-1,"question_num":171,"has_decoy":false},{"rt":888.1999999284744,"stimulus":"[A] option 1, [L] option 2, [G] neither","key_press":76,"name":"choice","trial_type":"html-keyboard-response","trial_index":208,"time_elapsed":326337,"internal_node_id":"0.0-208.0","subject":"S1C0811","sona":"41788","block":3,"time":"2021-09-15T15:35:20.901Z","response":"2nd","certainty":"high","char":"L","transposition":-2,"order":["swapped","shifted"],"probe_pitches":[3,5,-2,0,5,7,10,-2],"shifted_pitches":[3,5,-2,0,4,7,10,-2],"swapped_pitches":[3,5,-2,5,0,7,10,-2],"shift_direction":-1,"question_num":181,"has_decoy":false},{"rt":1056.2000000476837,"stimulus":"[A] option 1, [L] option 2, [G] neither","key_press":76,"name":"choice","trial_type":"html-keyboard-response","trial_index":219,"time_elapsed":342445,"internal_node_id":"0.0-219.0","subject":"S1C0811","sona":"41788","block":3,"time":"2021-09-15T15:35:20.901Z","response":"2nd","certainty":"high","char":"L","transposition":3,"order":["swapped","shifted"],"probe_pitches":[0,5,3,-1,8,1,3,6],"shifted_pitches":[0,5,3,-1,7,1,3,6],"swapped_pitches":[0,5,3,8,-1,1,3,6],"shift_direction":-1,"question_num":191,"has_decoy":false}]