[{"rt":348.59999990463257,"stimulus":"[A] option 1, [L] option 2, [G] neither","key_press":76,"name":"choice","trial_type":"html-keyboard-response","trial_index":10,"time_elapsed":16157,"internal_node_id":"0.0-10.0","subject":"S1C0811","sona":"41788","block":2,"time":"2021-09-15T15:29:32.849Z","response":"2nd","certainty":"high","char":"L","transposition":1,"order":["swapped","shifted"],"probe_pitches":[9,10,9,2,5,7,5,3],"shifted_pitches":[9,10,9,2,6,7,5,3],"swapped_pitches":[9,10,9,5,2,7,5,3],"shift_direction":1,"question_num":1,"has_decoy":false},{"rt":1931.7999999523163,"stimulus":"[A] option 1, [L] option 2, [G] neither","key_press":76,"name":"choice","trial_type":"html-keyboard-response","trial_index":21,"time_elapsed":33228,"internal_node_id":"0.0-21.0","subject":"S1C0811","sona":"41788","block":2,"time":"2021-09-15T15:29:32.849Z","response":"2nd","certainty":"high","char":"L","transposition":-3,"order":["swapped","shifted"],"probe_pitches":[-2,2,7,0,2,-2,5,7],"shifted_pitches":[-2,2,7,0,3,-2,5,7],"swapped_pitches":[-2,2,7,2,0,-2,5,7],"shift_direction":1,"question_num":11,"has_decoy":false},{"rt":47785.5,"stimulus":"[A] option 1, [L] option 2, [G] neither","key_press":76,"name":"choice","trial_type":"html-keyboard-response","trial_index":32,"time_elapsed":95383,"internal_node_id":"0.0-32.0","subject":"S1C0811","sona":"41788","block":2,"time":"2021-09-15T15:29:32.849Z","response":"2nd","certainty":"high","char":"L","transposition":-2,"order":["shifted","swapped"],"probe_pitches":[9,7,3,1,4,5,12,11],"shifted_pitches":[9,7,3,2,4,5,12,11],"swapped_pitches":[9,7,3,4,1,5,12,11],"shift_direction":1,"question_num":21,"has_decoy":false},{"rt":2543.5,"stimulus":"[A] option 1, [L] option 2, [G] neither","key_press":76,"name":"choice","trial_type":"html-keyboard-response","trial_index":43,"time_elapsed":114665,"internal_node_id":"0.0-43.0","subject":"S1C0811","sona":"41788","block":2,"time":"2021-09-15T15:29:32.849Z","response":"2nd","certainty":"high","char":"L","transposition":-1,"order":["swapped","shifted"],"probe_pitches":[11,7,6,3,9,6,10,1],"shifted_pitches":[11,7,6,3,8,6,10,1],"swapped_pitches":[11,7,6,9,3,6,10,1],"shift_direction":-1,"question_num":31,"has_decoy":false},{"rt":437.10000002384186,"stimulus":"[A] option 1, [L] option 2, [G] neither","key_press":76,"name":"choice","trial_type":"html-keyboard-response","trial_index":54,"time_elapsed":132634,"internal_node_id":"0.0-54.0","subject":"S1C0811","sona":"41788","block":2,"time":"2021-09-15T15:29:32.849Z","response":"2nd","certainty":"high","char":"L","transposition":3,"order":["shifted","swapped"],"probe_pitches":[4,3,9,4,8,12,10,3],"shifted_pitches":[4,3,9,4,7,12,10,3],"swapped_pitches":[4,3,9,8,4,12,10,3],"shift_direction":-1,"question_num":41,"has_decoy":false},{"rt":542.3999999761581,"stimulus":"[A] option 1, [L] option 2, [G] neither","key_press":76,"name":"choice","trial_type":"html-keyboard-response","trial_index":65,"time_elapsed":148617,"internal_node_id":"0.0-65.0","subject":"S1C0811","sona":"41788","block":2,"time":"2021-09-15T15:29:32.849Z","response":"2nd","certainty":"high","char":"L","transposition":0,"order":["swapped","shifted"],"probe_pitches":[6,1,6,5,0,10,5,1],"shifted_pitches":[6,1,6,4,0,10,5,1],"swapped_pitches":[6,1,6,0,5,10,5,1],"shift_direction":-1,"question_num":51,"has_decoy":false},{"rt":10575.800000071526,"stimulus":"[A] option 1, [L] option 2, [G] neither","key_press":76,"name":"choice","trial_type":"html-keyboard-response","trial_index":76,"time_elapsed":174119,"internal_node_id":"0.0-76.0","subject":"S1C0811","sona":"41788","block":2,"time":"2021-09-15T15:29:32.849Z","response":"2nd","certainty":"high","char":"L","transposition":-1,"order":["shifted","swapped"],"probe_pitches":[4,10,5,12,10,3,2,1],"shifted_pitches":[4,10,5,12,9,3,2,1],"swapped_pitches":[4,10,5,10,12,3,2,1],"shift_direction":-1,"question_num":61,"has_decoy":false},{"rt":2023.5,"stimulus":"[A] option 1, [L] option 2, [G] neither","key_press":65,"name":"choice","trial_type":"html-keyboard-response","trial_index":87,"time_elapsed":191501,"internal_node_id":"0.0-87.0","subject":"S1C0811","sona":"41788","block":2,"time":"2021-09-15T15:29:32.849Z","response":"1st","certainty":"high","char":"A","transposition":-3,"order":["shifted","swapped"],"probe_pitches":[9,8,6,9,4,0,6,9],"shifted_pitches":[9,8,6,10,4,0,6,9],"swapped_pitches":[9,8,6,4,9,0,6,9],"shift_direction":1,"question_num":71,"has_decoy":false},{"rt":561.7999999523163,"stimulus":"[A] option 1, [L] option 2, [G] neither","key_press":76,"name":"choice","trial_type":"html-keyboard-response","trial_index":98,"time_elapsed":213505,"internal_node_id":"0.0-98.0","subject":"S1C0811","sona":"41788","block":2,"time":"2021-09-15T15:29:32.849Z","response":"2nd","certainty":"high","char":"L","transposition":1,"order":["shifted","swapped"],"probe_pitches":[7,10,7,5,-2,0,7,2],"shifted_pitches":[7,10,7,6,-2,0,7,2],"swapped_pitches":[7,10,7,-2,5,0,7,2],"shift_direction":1,"question_num":81,"has_decoy":false},{"rt":3791.3000000715256,"stimulus":"[A] option 1, [L] option 2, [G] neither","key_press":65,"name":"choice","trial_type":"html-keyboard-response","trial_index":109,"time_elapsed":233044,"internal_node_id":"0.0-109.0","subject":"S1C0811","sona":"41788","block":2,"time":"2021-09-15T15:29:32.849Z","response":"1st","certainty":"high","char":"A","transposition":-2,"order":["shifted","swapped"],"probe_pitches":[5,3,5,-2,0,7,10,5],"shifted_pitches":[5,3,5,-3,0,7,10,5],"swapped_pitches":[5,3,5,0,-2,7,10,5],"shift_direction":-1,"question_num":91,"has_decoy":false},{"rt":1164.7000000476837,"stimulus":"[A] option 1, [L] option 2, [G] neither","key_press":76,"name":"choice","trial_type":"html-keyboard-response","trial_index":120,"time_elapsed":252182,"internal_node_id":"0.0-120.0","subject":"S1C0811","sona":"41788","block":2,"time":"2021-09-15T15:29:32.849Z","response":"2nd","certainty":"high","char":"L","transposition":-3,"order":["swapped","shifted"],"probe_pitches":[5,11,9,4,2,5,6,5],"shifted_pitches":[5,11,9,3,2,5,6,5],"swapped_pitches":[5,11,9,2,4,5,6,5],"shift_direction":-1,"question_num":101,"has_decoy":false},{"rt":418.10000002384186,"stimulus":"[A] option 1, [L] option 2, [G] neither","key_press":76,"name":"choice","trial_type":"html-keyboard-response","trial_index":131,"time_elapsed":268331,"internal_node_id":"0.0-131.0","subject":"S1C0811","sona":"41788","block":2,"time":"2021-09-15T15:29:32.849Z","response":"2nd","certainty":"high","char":"L","transposition":-2,"order":["swapped","shifted"],"probe_pitches":[3,8,5,3,10,1,10,5],"shifted_pitches":[3,8,5,3,11,1,10,5],"swapped_pitches":[3,8,5,10,3,1,10,5],"shift_direction":1,"question_num":111,"has_decoy":false},{"rt":393.59999990463257,"stimulus":"[A] option 1, [L] option 2, [G] neither","key_press":76,"name":"choice","trial_type":"html-keyboard-response","trial_index":142,"time_elapsed":283137,"internal_node_id":"0.0-142.0","subject":"S1C0811","sona":"41788","block":2,"time":"2021-09-15T15:29:32.849Z","response":"2nd","certainty":"high","char":"L","transposition":2,"order":["shifted","swapped"],"probe_pitches":[3,9,7,10,6,2,1,4],"shifted_pitches":[3,9,7,11,6,2,1,4],"swapped_pitches":[3,9,7,6,10,2,1,4],"shift_direction":1,"question_num":121,"has_decoy":false},{"rt":2316.2999999523163,"stimulus":"[A] option 1, [L] option 2, [G] neither","key_press":76,"name":"choice","trial_type":"html-keyboard-response","trial_index":153,"time_elapsed":300462,"internal_node_id":"0.0-153.0","subject":"S1C0811","sona":"41788","block":2,"time":"2021-09-15T15:29:32.849Z","response":"2nd","certainty":"high","char":"L","transposition":0,"order":["shifted","swapped"],"probe_pitches":[3,1,8,1,10,5,3,1],"shifted_pitches":[3,1,8,1,9,5,3,1],"swapped_pitches":[3,1,8,10,1,5,3,1],"shift_direction":-1,"question_num":131,"has_decoy":false},{"rt":1671.5,"stimulus":"[A] option 1, [L] option 2, [G] neither","key_press":65,"name":"choice","trial_type":"html-keyboard-response","trial_index":164,"time_elapsed":319107,"internal_node_id":"0.0-164.0","subject":"S1C0811","sona":"41788","block":2,"time":"2021-09-15T15:29:32.849Z","response":"1st","certainty":"high","char":"A","transposition":-1,"order":["shifted","swapped"],"probe_pitches":[0,5,-2,0,7,10,7,3],"shifted_pitches":[0,5,-2,0,6,10,7,3],"swapped_pitches":[0,5,-2,7,0,10,7,3],"shift_direction":-1,"question_num":141,"has_decoy":false},{"rt":782.1999999284744,"stimulus":"[A] option 1, [L] option 2, [G] neither","key_press":76,"name":"choice","trial_type":"html-keyboard-response","trial_index":175,"time_elapsed":337199,"internal_node_id":"0.0-175.0","subject":"S1C0811","sona":"41788","block":2,"time":"2021-09-15T15:29:32.849Z","response":"2nd","certainty":"high","char":"L","transposition":2,"order":["swapped","shifted"],"probe_pitches":[3,8,5,0,-2,5,3,-2],"shifted_pitches":[3,8,5,-1,-2,5,3,-2],"swapped_pitches":[3,8,5,-2,0,5,3,-2],"shift_direction":-1,"question_num":151,"has_decoy":false},{"rt":1739.6999999284744,"stimulus":"[A] option 1, [L] option 2, [G] neither","key_press":76,"name":"choice","trial_type":"html-keyboard-response","trial_index":186,"time_elapsed":353494,"internal_node_id":"0.0-186.0","subject":"S1C0811","sona":"41788","block":2,"time":"2021-09-15T15:29:32.849Z","response":"2nd","certainty":"high","char":"L","transposition":3,"order":["swapped","shifted"],"probe_pitches":[0,-2,0,3,8,5,10,3],"shifted_pitches":[0,-2,0,3,9,5,10,3],"swapped_pitches":[0,-2,0,8,3,5,10,3],"shift_direction":1,"question_num":161,"has_decoy":false},{"rt":3350.100000023842,"stimulus":"[A] option 1, [L] option 2, [G] neither","key_press":71,"name":"choice","trial_type":"html-keyboard-response","trial_index":197,"time_elapsed":371274,"internal_node_id":"0.0-197.0","subject":"S1C0811","sona":"41788","block":2,"time":"2021-09-15T15:29:32.849Z","response":"neither","certainty":"high","char":"G","transposition":-2,"order":["swapped","shifted"],"probe_pitches":[12,6,2,1,4,8,12,6],"shifted_pitches":[12,6,2,1,5,8,12,6],"swapped_pitches":[12,6,2,4,1,8,12,6],"shift_direction":1,"question_num":171,"has_decoy":false},{"rt":791.5999999046326,"stimulus":"[A] option 1, [L] option 2, [G] neither","key_press":65,"name":"choice","trial_type":"html-keyboard-response","trial_index":208,"time_elapsed":387302,"internal_node_id":"0.0-208.0","subject":"S1C0811","sona":"41788","block":2,"time":"2021-09-15T15:29:32.849Z","response":"1st","certainty":"high","char":"A","transposition":-1,"order":["shifted","swapped"],"probe_pitches":[8,3,-2,6,3,8,1,-2],"shifted_pitches":[8,3,-2,5,3,8,1,-2],"swapped_pitches":[8,3,-2,3,6,8,1,-2],"shift_direction":-1,"question_num":181,"has_decoy":false},{"rt":301.7000000476837,"stimulus":"[A] option 1, [L] option 2, [G] neither","key_press":76,"name":"choice","trial_type":"html-keyboard-response","trial_index":219,"time_elapsed":403648,"internal_node_id":"0.0-219.0","subject":"S1C0811","sona":"41788","block":2,"time":"2021-09-15T15:29:32.849Z","response":"2nd","certainty":"high","char":"L","transposition":-3,"order":["swapped","shifted"],"probe_pitches":[1,6,10,6,-2,8,3,6],"shifted_pitches":[1,6,10,7,-2,8,3,6],"swapped_pitches":[1,6,10,-2,6,8,3,6],"shift_direction":1,"question_num":191,"has_decoy":false}]