[{"rt":952.5999999642372,"stimulus":"[A] option 1, [L] option 2, [G] neither","key_press":65,"name":"choice","trial_type":"html-keyboard-response","trial_index":10,"time_elapsed":18246,"internal_node_id":"0.0-10.0","subject":"S1C0812","sona":"41505","block":6,"time":"2021-09-15T15:59:18.290Z","response":"1st","certainty":"high","char":"A","transposition":0,"order":["swapped","shifted"],"probe_pitches":[4,-1,2,9,6,4,6,4],"shifted_pitches":[4,-1,2,9,5,4,6,4],"swapped_pitches":[4,-1,2,6,9,4,6,4],"shift_direction":-1,"question_num":1,"has_decoy":false},{"rt":1204.6000000238419,"stimulus":"[A] option 1, [L] option 2, [G] neither","key_press":76,"name":"choice","trial_type":"html-keyboard-response","trial_index":21,"time_elapsed":35352,"internal_node_id":"0.0-21.0","subject":"S1C0812","sona":"41505","block":6,"time":"2021-09-15T15:59:18.290Z","response":"2nd","certainty":"high","char":"L","transposition":-2,"order":["shifted","swapped"],"probe_pitches":[9,4,-1,2,7,11,9,4],"shifted_pitches":[9,4,-1,1,7,11,9,4],"swapped_pitches":[9,4,-1,7,2,11,9,4],"shift_direction":-1,"question_num":11,"has_decoy":false},{"rt":767.9000000357628,"stimulus":"[A] option 1, [L] option 2, [G] neither","key_press":65,"name":"choice","trial_type":"html-keyboard-response","trial_index":32,"time_elapsed":56281,"internal_node_id":"0.0-32.0","subject":"S1C0812","sona":"41505","block":6,"time":"2021-09-15T15:59:18.290Z","response":"1st","certainty":"high","char":"A","transposition":-3,"order":["swapped","shifted"],"probe_pitches":[7,9,13,7,4,8,3,9],"shifted_pitches":[7,9,13,7,5,8,3,9],"swapped_pitches":[7,9,13,4,7,8,3,9],"shift_direction":1,"question_num":21,"has_decoy":false},{"rt":740.6000000238419,"stimulus":"[A] option 1, [L] option 2, [G] neither","key_press":65,"name":"choice","trial_type":"html-keyboard-response","trial_index":43,"time_elapsed":72228,"internal_node_id":"0.0-43.0","subject":"S1C0812","sona":"41505","block":6,"time":"2021-09-15T15:59:18.290Z","response":"1st","certainty":"high","char":"A","transposition":-1,"order":["swapped","shifted"],"probe_pitches":[1,-1,3,6,1,11,3,8],"shifted_pitches":[1,-1,3,5,1,11,3,8],"swapped_pitches":[1,-1,3,1,6,11,3,8],"shift_direction":-1,"question_num":31,"has_decoy":false},{"rt":447.60000002384186,"stimulus":"[A] option 1, [L] option 2, [G] neither","key_press":65,"name":"choice","trial_type":"html-keyboard-response","trial_index":54,"time_elapsed":87422,"internal_node_id":"0.0-54.0","subject":"S1C0812","sona":"41505","block":6,"time":"2021-09-15T15:59:18.290Z","response":"1st","certainty":"high","char":"A","transposition":3,"order":["shifted","swapped"],"probe_pitches":[11,9,2,7,11,9,4,-1],"shifted_pitches":[11,9,2,7,12,9,4,-1],"swapped_pitches":[11,9,2,11,7,9,4,-1],"shift_direction":1,"question_num":41,"has_decoy":false},{"rt":3830.399999976158,"stimulus":"[A] option 1, [L] option 2, [G] neither","key_press":65,"name":"choice","trial_type":"html-keyboard-response","trial_index":65,"time_elapsed":107468,"internal_node_id":"0.0-65.0","subject":"S1C0812","sona":"41505","block":6,"time":"2021-09-15T15:59:18.290Z","response":"1st","certainty":"high","char":"A","transposition":1,"order":["swapped","shifted"],"probe_pitches":[4,5,3,10,9,12,10,15],"shifted_pitches":[4,5,3,10,8,12,10,15],"swapped_pitches":[4,5,3,9,10,12,10,15],"shift_direction":-1,"question_num":51,"has_decoy":false},{"rt":1275.699999988079,"stimulus":"[A] option 1, [L] option 2, [G] neither","key_press":76,"name":"choice","trial_type":"html-keyboard-response","trial_index":76,"time_elapsed":124021,"internal_node_id":"0.0-76.0","subject":"S1C0812","sona":"41505","block":6,"time":"2021-09-15T15:59:18.290Z","response":"2nd","certainty":"high","char":"L","transposition":-3,"order":["shifted","swapped"],"probe_pitches":[1,-1,6,11,4,-1,9,4],"shifted_pitches":[1,-1,6,10,4,-1,9,4],"swapped_pitches":[1,-1,6,4,11,-1,9,4],"shift_direction":-1,"question_num":61,"has_decoy":false},{"rt":910.8999999761581,"stimulus":"[A] option 1, [L] option 2, [G] neither","key_press":76,"name":"choice","trial_type":"html-keyboard-response","trial_index":87,"time_elapsed":143933,"internal_node_id":"0.0-87.0","subject":"S1C0812","sona":"41505","block":6,"time":"2021-09-15T15:59:18.290Z","response":"2nd","certainty":"high","char":"L","transposition":2,"order":["shifted","swapped"],"probe_pitches":[11,13,9,5,13,11,9,5],"shifted_pitches":[11,13,9,6,13,11,9,5],"swapped_pitches":[11,13,9,13,5,11,9,5],"shift_direction":1,"question_num":71,"has_decoy":false},{"rt":1353.199999988079,"stimulus":"[A] option 1, [L] option 2, [G] neither","key_press":65,"name":"choice","trial_type":"html-keyboard-response","trial_index":98,"time_elapsed":160384,"internal_node_id":"0.0-98.0","subject":"S1C0812","sona":"41505","block":6,"time":"2021-09-15T15:59:18.290Z","response":"1st","certainty":"high","char":"A","transposition":0,"order":["swapped","shifted"],"probe_pitches":[7,5,4,12,9,5,3,14],"shifted_pitches":[7,5,4,12,10,5,3,14],"swapped_pitches":[7,5,4,9,12,5,3,14],"shift_direction":1,"question_num":81,"has_decoy":false},{"rt":1783.2000000476837,"stimulus":"[A] option 1, [L] option 2, [G] neither","key_press":65,"name":"choice","trial_type":"html-keyboard-response","trial_index":109,"time_elapsed":178369,"internal_node_id":"0.0-109.0","subject":"S1C0812","sona":"41505","block":6,"time":"2021-09-15T15:59:18.290Z","response":"1st","certainty":"high","char":"A","transposition":-1,"order":["swapped","shifted"],"probe_pitches":[9,6,11,6,9,2,4,-1],"shifted_pitches":[9,6,11,6,8,2,4,-1],"swapped_pitches":[9,6,11,9,6,2,4,-1],"shift_direction":-1,"question_num":91,"has_decoy":false},{"rt":678.5,"stimulus":"[A] option 1, [L] option 2, [G] neither","key_press":65,"name":"choice","trial_type":"html-keyboard-response","trial_index":120,"time_elapsed":194675,"internal_node_id":"0.0-120.0","subject":"S1C0812","sona":"41505","block":6,"time":"2021-09-15T15:59:18.290Z","response":"1st","certainty":"high","char":"A","transposition":-1,"order":["shifted","swapped"],"probe_pitches":[6,11,12,8,7,11,10,15],"shifted_pitches":[6,11,12,9,7,11,10,15],"swapped_pitches":[6,11,12,7,8,11,10,15],"shift_direction":1,"question_num":101,"has_decoy":false},{"rt":2028.4000000357628,"stimulus":"[A] option 1, [L] option 2, [G] neither","key_press":71,"name":"choice","trial_type":"html-keyboard-response","trial_index":131,"time_elapsed":215526,"internal_node_id":"0.0-131.0","subject":"S1C0812","sona":"41505","block":6,"time":"2021-09-15T15:59:18.290Z","response":"neither","certainty":"high","char":"G","transposition":-3,"order":["swapped","shifted"],"probe_pitches":[-1,1,-1,4,8,6,11,8],"shifted_pitches":[-1,1,-1,4,9,6,11,8],"swapped_pitches":[-1,1,-1,8,4,6,11,8],"shift_direction":1,"question_num":111,"has_decoy":false},{"rt":669.8000000119209,"stimulus":"[A] option 1, [L] option 2, [G] neither","key_press":65,"name":"choice","trial_type":"html-keyboard-response","trial_index":142,"time_elapsed":232591,"internal_node_id":"0.0-142.0","subject":"S1C0812","sona":"41505","block":6,"time":"2021-09-15T15:59:18.290Z","response":"1st","certainty":"high","char":"A","transposition":3,"order":["swapped","shifted"],"probe_pitches":[6,10,15,8,14,15,8,9],"shifted_pitches":[6,10,15,7,14,15,8,9],"swapped_pitches":[6,10,15,14,8,15,8,9],"shift_direction":-1,"question_num":121,"has_decoy":false},{"rt":2505.7999999523163,"stimulus":"[A] option 1, [L] option 2, [G] neither","key_press":65,"name":"choice","trial_type":"html-keyboard-response","trial_index":153,"time_elapsed":250714,"internal_node_id":"0.0-153.0","subject":"S1C0812","sona":"41505","block":6,"time":"2021-09-15T15:59:18.290Z","response":"1st","certainty":"high","char":"A","transposition":-1,"order":["shifted","swapped"],"probe_pitches":[3,7,11,13,9,7,5,15],"shifted_pitches":[3,7,11,12,9,7,5,15],"swapped_pitches":[3,7,11,9,13,7,5,15],"shift_direction":-1,"question_num":131,"has_decoy":false},{"rt":1176.4000000357628,"stimulus":"[A] option 1, [L] option 2, [G] neither","key_press":76,"name":"choice","trial_type":"html-keyboard-response","trial_index":164,"time_elapsed":266759,"internal_node_id":"0.0-164.0","subject":"S1C0812","sona":"41505","block":6,"time":"2021-09-15T15:59:18.290Z","response":"2nd","certainty":"high","char":"L","transposition":-2,"order":["shifted","swapped"],"probe_pitches":[12,7,6,14,12,8,4,7],"shifted_pitches":[12,7,6,13,12,8,4,7],"swapped_pitches":[12,7,6,12,14,8,4,7],"shift_direction":-1,"question_num":141,"has_decoy":false},{"rt":617.1000000238419,"stimulus":"[A] option 1, [L] option 2, [G] neither","key_press":76,"name":"choice","trial_type":"html-keyboard-response","trial_index":175,"time_elapsed":281925,"internal_node_id":"0.0-175.0","subject":"S1C0812","sona":"41505","block":6,"time":"2021-09-15T15:59:18.290Z","response":"2nd","certainty":"high","char":"L","transposition":-3,"order":["shifted","swapped"],"probe_pitches":[10,8,9,4,10,14,4,9],"shifted_pitches":[10,8,9,4,11,14,4,9],"swapped_pitches":[10,8,9,10,4,14,4,9],"shift_direction":1,"question_num":151,"has_decoy":false},{"rt":587.8999999761581,"stimulus":"[A] option 1, [L] option 2, [G] neither","key_press":65,"name":"choice","trial_type":"html-keyboard-response","trial_index":186,"time_elapsed":297980,"internal_node_id":"0.0-186.0","subject":"S1C0812","sona":"41505","block":6,"time":"2021-09-15T15:59:18.290Z","response":"1st","certainty":"high","char":"A","transposition":2,"order":["shifted","swapped"],"probe_pitches":[1,3,-1,6,8,-1,8,-1],"shifted_pitches":[1,3,-1,7,8,-1,8,-1],"swapped_pitches":[1,3,-1,8,6,-1,8,-1],"shift_direction":1,"question_num":161,"has_decoy":false},{"rt":1867.699999988079,"stimulus":"[A] option 1, [L] option 2, [G] neither","key_press":65,"name":"choice","trial_type":"html-keyboard-response","trial_index":197,"time_elapsed":314985,"internal_node_id":"0.0-197.0","subject":"S1C0812","sona":"41505","block":6,"time":"2021-09-15T15:59:18.290Z","response":"1st","certainty":"high","char":"A","transposition":-2,"order":["shifted","swapped"],"probe_pitches":[6,1,8,4,11,8,-1,1],"shifted_pitches":[6,1,8,5,11,8,-1,1],"swapped_pitches":[6,1,8,11,4,8,-1,1],"shift_direction":1,"question_num":171,"has_decoy":false},{"rt":645.9000000357628,"stimulus":"[A] option 1, [L] option 2, [G] neither","key_press":76,"name":"choice","trial_type":"html-keyboard-response","trial_index":208,"time_elapsed":331040,"internal_node_id":"0.0-208.0","subject":"S1C0812","sona":"41505","block":6,"time":"2021-09-15T15:59:18.290Z","response":"2nd","certainty":"high","char":"L","transposition":-2,"order":["swapped","shifted"],"probe_pitches":[6,12,13,11,15,5,7,5],"shifted_pitches":[6,12,13,11,14,5,7,5],"swapped_pitches":[6,12,13,15,11,5,7,5],"shift_direction":-1,"question_num":181,"has_decoy":false},{"rt":1216.5,"stimulus":"[A] option 1, [L] option 2, [G] neither","key_press":65,"name":"choice","trial_type":"html-keyboard-response","trial_index":219,"time_elapsed":348135,"internal_node_id":"0.0-219.0","subject":"S1C0812","sona":"41505","block":6,"time":"2021-09-15T15:59:18.290Z","response":"1st","certainty":"high","char":"A","transposition":1,"order":["swapped","shifted"],"probe_pitches":[1,-1,1,4,-1,6,9,4],"shifted_pitches":[1,-1,1,4,0,6,9,4],"swapped_pitches":[1,-1,1,-1,4,6,9,4],"shift_direction":1,"question_num":191,"has_decoy":false}]