[{"rt":822.5999999642372,"stimulus":"[A] option 1, [L] option 2, [G] neither","key_press":76,"name":"choice","trial_type":"html-keyboard-response","trial_index":10,"time_elapsed":17933,"internal_node_id":"0.0-10.0","subject":"S1C0812","sona":"41505","block":3,"time":"2021-09-15T15:41:17.784Z","response":"2nd","certainty":"high","char":"L","transposition":-2,"order":["shifted","swapped"],"probe_pitches":[7,9,10,11,5,10,4,7],"shifted_pitches":[7,9,10,12,5,10,4,7],"swapped_pitches":[7,9,10,5,11,10,4,7],"shift_direction":1,"question_num":1,"has_decoy":false},{"rt":1829.300000011921,"stimulus":"[A] option 1, [L] option 2, [G] neither","key_press":76,"name":"choice","trial_type":"html-keyboard-response","trial_index":21,"time_elapsed":36349,"internal_node_id":"0.0-21.0","subject":"S1C0812","sona":"41505","block":3,"time":"2021-09-15T15:41:17.784Z","response":"2nd","certainty":"high","char":"L","transposition":-3,"order":["shifted","swapped"],"probe_pitches":[11,5,7,9,3,5,2,10],"shifted_pitches":[11,5,7,9,4,5,2,10],"swapped_pitches":[11,5,7,3,9,5,2,10],"shift_direction":1,"question_num":11,"has_decoy":false},{"rt":2608.100000023842,"stimulus":"[A] option 1, [L] option 2, [G] neither","key_press":71,"name":"choice","trial_type":"html-keyboard-response","trial_index":32,"time_elapsed":55396,"internal_node_id":"0.0-32.0","subject":"S1C0812","sona":"41505","block":3,"time":"2021-09-15T15:41:17.784Z","response":"neither","certainty":"high","char":"G","transposition":-1,"order":["swapped","shifted"],"probe_pitches":[8,4,2,9,3,2,12,4],"shifted_pitches":[8,4,2,10,3,2,12,4],"swapped_pitches":[8,4,2,3,9,2,12,4],"shift_direction":1,"question_num":21,"has_decoy":false},{"rt":558.1999999880791,"stimulus":"[A] option 1, [L] option 2, [G] neither","key_press":65,"name":"choice","trial_type":"html-keyboard-response","trial_index":43,"time_elapsed":74023,"internal_node_id":"0.0-43.0","subject":"S1C0812","sona":"41505","block":3,"time":"2021-09-15T15:41:17.784Z","response":"1st","certainty":"high","char":"A","transposition":1,"order":["swapped","shifted"],"probe_pitches":[7,11,7,3,6,9,13,9],"shifted_pitches":[7,11,7,3,5,9,13,9],"swapped_pitches":[7,11,7,6,3,9,13,9],"shift_direction":-1,"question_num":31,"has_decoy":false},{"rt":698.7999999523163,"stimulus":"[A] option 1, [L] option 2, [G] neither","key_press":65,"name":"choice","trial_type":"html-keyboard-response","trial_index":54,"time_elapsed":92037,"internal_node_id":"0.0-54.0","subject":"S1C0812","sona":"41505","block":3,"time":"2021-09-15T15:41:17.784Z","response":"1st","certainty":"high","char":"A","transposition":3,"order":["swapped","shifted"],"probe_pitches":[8,9,10,9,14,5,9,3],"shifted_pitches":[8,9,10,9,13,5,9,3],"swapped_pitches":[8,9,10,14,9,5,9,3],"shift_direction":-1,"question_num":41,"has_decoy":false},{"rt":3617.300000011921,"stimulus":"[A] option 1, [L] option 2, [G] neither","key_press":71,"name":"choice","trial_type":"html-keyboard-response","trial_index":65,"time_elapsed":111149,"internal_node_id":"0.0-65.0","subject":"S1C0812","sona":"41505","block":3,"time":"2021-09-15T15:41:17.784Z","response":"neither","certainty":"high","char":"G","transposition":-2,"order":["swapped","shifted"],"probe_pitches":[12,13,12,10,9,2,10,3],"shifted_pitches":[12,13,12,11,9,2,10,3],"swapped_pitches":[12,13,12,9,10,2,10,3],"shift_direction":1,"question_num":51,"has_decoy":false},{"rt":4940.5,"stimulus":"[A] option 1, [L] option 2, [G] neither","key_press":65,"name":"choice","trial_type":"html-keyboard-response","trial_index":76,"time_elapsed":131331,"internal_node_id":"0.0-76.0","subject":"S1C0812","sona":"41505","block":3,"time":"2021-09-15T15:41:17.784Z","response":"1st","certainty":"high","char":"A","transposition":2,"order":["swapped","shifted"],"probe_pitches":[3,8,4,7,11,10,13,11],"shifted_pitches":[3,8,4,6,11,10,13,11],"swapped_pitches":[3,8,4,11,7,10,13,11],"shift_direction":-1,"question_num":61,"has_decoy":false},{"rt":1566.1000000238419,"stimulus":"[A] option 1, [L] option 2, [G] neither","key_press":65,"name":"choice","trial_type":"html-keyboard-response","trial_index":87,"time_elapsed":148876,"internal_node_id":"0.0-87.0","subject":"S1C0812","sona":"41505","block":3,"time":"2021-09-15T15:41:17.784Z","response":"1st","certainty":"high","char":"A","transposition":-3,"order":["shifted","swapped"],"probe_pitches":[14,8,6,8,10,4,8,12],"shifted_pitches":[14,8,6,9,10,4,8,12],"swapped_pitches":[14,8,6,10,8,4,8,12],"shift_direction":1,"question_num":71,"has_decoy":false},{"rt":2104.300000011921,"stimulus":"[A] option 1, [L] option 2, [G] neither","key_press":76,"name":"choice","trial_type":"html-keyboard-response","trial_index":98,"time_elapsed":166906,"internal_node_id":"0.0-98.0","subject":"S1C0812","sona":"41505","block":3,"time":"2021-09-15T15:41:17.784Z","response":"2nd","certainty":"high","char":"L","transposition":-3,"order":["shifted","swapped"],"probe_pitches":[-1,4,11,4,9,11,1,6],"shifted_pitches":[-1,4,11,4,8,11,1,6],"swapped_pitches":[-1,4,11,9,4,11,1,6],"shift_direction":-1,"question_num":81,"has_decoy":false},{"rt":1480.5,"stimulus":"[A] option 1, [L] option 2, [G] neither","key_press":76,"name":"choice","trial_type":"html-keyboard-response","trial_index":109,"time_elapsed":185199,"internal_node_id":"0.0-109.0","subject":"S1C0812","sona":"41505","block":3,"time":"2021-09-15T15:41:17.784Z","response":"2nd","certainty":"high","char":"L","transposition":-1,"order":["swapped","shifted"],"probe_pitches":[4,8,1,8,-1,4,6,-1],"shifted_pitches":[4,8,1,9,-1,4,6,-1],"swapped_pitches":[4,8,1,-1,8,4,6,-1],"shift_direction":1,"question_num":91,"has_decoy":false},{"rt":5711.100000023842,"stimulus":"[A] option 1, [L] option 2, [G] neither","key_press":65,"name":"choice","trial_type":"html-keyboard-response","trial_index":120,"time_elapsed":207604,"internal_node_id":"0.0-120.0","subject":"S1C0812","sona":"41505","block":3,"time":"2021-09-15T15:41:17.784Z","response":"1st","certainty":"high","char":"A","transposition":3,"order":["shifted","swapped"],"probe_pitches":[9,4,-1,4,7,11,4,2],"shifted_pitches":[9,4,-1,4,6,11,4,2],"swapped_pitches":[9,4,-1,7,4,11,4,2],"shift_direction":-1,"question_num":101,"has_decoy":false},{"rt":1110,"stimulus":"[A] option 1, [L] option 2, [G] neither","key_press":76,"name":"choice","trial_type":"html-keyboard-response","trial_index":131,"time_elapsed":223754,"internal_node_id":"0.0-131.0","subject":"S1C0812","sona":"41505","block":3,"time":"2021-09-15T15:41:17.784Z","response":"2nd","certainty":"high","char":"L","transposition":1,"order":["swapped","shifted"],"probe_pitches":[11,7,9,4,2,9,-1,4],"shifted_pitches":[11,7,9,5,2,9,-1,4],"swapped_pitches":[11,7,9,2,4,9,-1,4],"shift_direction":1,"question_num":111,"has_decoy":false},{"rt":1907.699999988079,"stimulus":"[A] option 1, [L] option 2, [G] neither","key_press":76,"name":"choice","trial_type":"html-keyboard-response","trial_index":142,"time_elapsed":242721,"internal_node_id":"0.0-142.0","subject":"S1C0812","sona":"41505","block":3,"time":"2021-09-15T15:41:17.784Z","response":"2nd","certainty":"high","char":"L","transposition":-1,"order":["shifted","swapped"],"probe_pitches":[11,8,6,8,1,3,11,-1],"shifted_pitches":[11,8,6,8,0,3,11,-1],"swapped_pitches":[11,8,6,1,8,3,11,-1],"shift_direction":-1,"question_num":121,"has_decoy":false},{"rt":1121.3999999761581,"stimulus":"[A] option 1, [L] option 2, [G] neither","key_press":71,"name":"choice","trial_type":"html-keyboard-response","trial_index":153,"time_elapsed":262131,"internal_node_id":"0.0-153.0","subject":"S1C0812","sona":"41505","block":3,"time":"2021-09-15T15:41:17.784Z","response":"neither","certainty":"high","char":"G","transposition":2,"order":["swapped","shifted"],"probe_pitches":[2,4,11,6,4,2,9,11],"shifted_pitches":[2,4,11,7,4,2,9,11],"swapped_pitches":[2,4,11,4,6,2,9,11],"shift_direction":1,"question_num":131,"has_decoy":false},{"rt":1606.6000000238419,"stimulus":"[A] option 1, [L] option 2, [G] neither","key_press":71,"name":"choice","trial_type":"html-keyboard-response","trial_index":164,"time_elapsed":279905,"internal_node_id":"0.0-164.0","subject":"S1C0812","sona":"41505","block":3,"time":"2021-09-15T15:41:17.784Z","response":"neither","certainty":"high","char":"G","transposition":0,"order":["shifted","swapped"],"probe_pitches":[13,12,9,6,8,9,12,6],"shifted_pitches":[13,12,9,6,7,9,12,6],"swapped_pitches":[13,12,9,8,6,9,12,6],"shift_direction":-1,"question_num":141,"has_decoy":false},{"rt":2069.900000035763,"stimulus":"[A] option 1, [L] option 2, [G] neither","key_press":71,"name":"choice","trial_type":"html-keyboard-response","trial_index":175,"time_elapsed":298561,"internal_node_id":"0.0-175.0","subject":"S1C0812","sona":"41505","block":3,"time":"2021-09-15T15:41:17.784Z","response":"neither","certainty":"high","char":"G","transposition":-1,"order":["shifted","swapped"],"probe_pitches":[4,2,6,10,9,14,5,9],"shifted_pitches":[4,2,6,10,8,14,5,9],"swapped_pitches":[4,2,6,9,10,14,5,9],"shift_direction":-1,"question_num":151,"has_decoy":false},{"rt":3783.800000011921,"stimulus":"[A] option 1, [L] option 2, [G] neither","key_press":65,"name":"choice","trial_type":"html-keyboard-response","trial_index":186,"time_elapsed":320465,"internal_node_id":"0.0-186.0","subject":"S1C0812","sona":"41505","block":3,"time":"2021-09-15T15:41:17.784Z","response":"1st","certainty":"high","char":"A","transposition":-2,"order":["shifted","swapped"],"probe_pitches":[9,4,6,1,-1,9,-1,1],"shifted_pitches":[9,4,6,0,-1,9,-1,1],"swapped_pitches":[9,4,6,-1,1,9,-1,1],"shift_direction":-1,"question_num":161,"has_decoy":false},{"rt":420.69999998807907,"stimulus":"[A] option 1, [L] option 2, [G] neither","key_press":65,"name":"choice","trial_type":"html-keyboard-response","trial_index":197,"time_elapsed":335844,"internal_node_id":"0.0-197.0","subject":"S1C0812","sona":"41505","block":3,"time":"2021-09-15T15:41:17.784Z","response":"1st","certainty":"high","char":"A","transposition":-2,"order":["swapped","shifted"],"probe_pitches":[-1,3,8,11,6,-1,1,8],"shifted_pitches":[-1,3,8,11,7,-1,1,8],"swapped_pitches":[-1,3,8,6,11,-1,1,8],"shift_direction":1,"question_num":171,"has_decoy":false},{"rt":1603.199999988079,"stimulus":"[A] option 1, [L] option 2, [G] neither","key_press":76,"name":"choice","trial_type":"html-keyboard-response","trial_index":208,"time_elapsed":353012,"internal_node_id":"0.0-208.0","subject":"S1C0812","sona":"41505","block":3,"time":"2021-09-15T15:41:17.784Z","response":"2nd","certainty":"high","char":"L","transposition":-3,"order":["shifted","swapped"],"probe_pitches":[1,4,1,4,6,1,-1,8],"shifted_pitches":[1,4,1,5,6,1,-1,8],"swapped_pitches":[1,4,1,6,4,1,-1,8],"shift_direction":1,"question_num":181,"has_decoy":false},{"rt":394.80000001192093,"stimulus":"[A] option 1, [L] option 2, [G] neither","key_press":65,"name":"choice","trial_type":"html-keyboard-response","trial_index":219,"time_elapsed":369909,"internal_node_id":"0.0-219.0","subject":"S1C0812","sona":"41505","block":3,"time":"2021-09-15T15:41:17.784Z","response":"1st","certainty":"high","char":"A","transposition":0,"order":["swapped","shifted"],"probe_pitches":[6,2,9,2,4,11,6,-1],"shifted_pitches":[6,2,9,2,3,11,6,-1],"swapped_pitches":[6,2,9,4,2,11,6,-1],"shift_direction":-1,"question_num":191,"has_decoy":false}]