[{"rt":7446.100000023842,"stimulus":"[A] option 1, [L] option 2, [G] neither","key_press":76,"name":"choice","trial_type":"html-keyboard-response","trial_index":15,"time_elapsed":76678,"internal_node_id":"0.0-15.0","response":"2nd","certainty":"high","char":"L","transposition":3,"order":["swapped","shifted"],"probe_pitches":[4,6,10,5,1,-2,1,3],"shifted_pitches":[4,6,10,5,0,-2,1,3],"swapped_pitches":[4,6,10,1,5,-2,1,3],"shift_direction":-1,"question_num":1,"has_decoy":false,"subject":"S1C0812","sona":"41505","block":1,"time":"2021-09-15T15:28:57.370Z"},{"rt":6920.899999976158,"stimulus":"[A] option 1, [L] option 2, [G] neither","key_press":76,"name":"choice","trial_type":"html-keyboard-response","trial_index":26,"time_elapsed":101352,"internal_node_id":"0.0-26.0","response":"2nd","certainty":"high","char":"L","transposition":1,"order":["shifted","swapped"],"probe_pitches":[4,-1,4,9,2,6,4,9],"shifted_pitches":[4,-1,4,9,3,6,4,9],"swapped_pitches":[4,-1,4,2,9,6,4,9],"shift_direction":1,"question_num":11,"has_decoy":false,"subject":"S1C0812","sona":"41505","block":1,"time":"2021-09-15T15:28:57.370Z"},{"rt":1963.6000000238419,"stimulus":"[A] option 1, [L] option 2, [G] neither","key_press":76,"name":"choice","trial_type":"html-keyboard-response","trial_index":37,"time_elapsed":119151,"internal_node_id":"0.0-37.0","response":"2nd","certainty":"high","char":"L","transposition":-2,"order":["swapped","shifted"],"probe_pitches":[4,-1,4,2,7,4,9,-3],"shifted_pitches":[4,-1,4,1,7,4,9,-3],"swapped_pitches":[4,-1,4,7,2,4,9,-3],"shift_direction":-1,"question_num":21,"has_decoy":false,"subject":"S1C0812","sona":"41505","block":1,"time":"2021-09-15T15:28:57.370Z"},{"rt":2985,"stimulus":"[A] option 1, [L] option 2, [G] neither","key_press":71,"name":"choice","trial_type":"html-keyboard-response","trial_index":48,"time_elapsed":137948,"internal_node_id":"0.0-48.0","response":"neither","certainty":"high","char":"G","transposition":-2,"order":["shifted","swapped"],"probe_pitches":[2,5,10,2,1,10,4,8],"shifted_pitches":[2,5,10,3,1,10,4,8],"swapped_pitches":[2,5,10,1,2,10,4,8],"shift_direction":1,"question_num":31,"has_decoy":false,"subject":"S1C0812","sona":"41505","block":1,"time":"2021-09-15T15:28:57.370Z"},{"rt":2024.6000000238419,"stimulus":"[A] option 1, [L] option 2, [G] neither","key_press":65,"name":"choice","trial_type":"html-keyboard-response","trial_index":59,"time_elapsed":155770,"internal_node_id":"0.0-59.0","response":"1st","certainty":"high","char":"A","transposition":-2,"order":["swapped","shifted"],"probe_pitches":[-2,1,6,2,10,3,5,8],"shifted_pitches":[-2,1,6,2,9,3,5,8],"swapped_pitches":[-2,1,6,10,2,3,5,8],"shift_direction":-1,"question_num":41,"has_decoy":false,"subject":"S1C0812","sona":"41505","block":1,"time":"2021-09-15T15:28:57.370Z"},{"rt":3571.5,"stimulus":"[A] option 1, [L] option 2, [G] neither","key_press":76,"name":"choice","trial_type":"html-keyboard-response","trial_index":70,"time_elapsed":174903,"internal_node_id":"0.0-70.0","response":"2nd","certainty":"high","char":"L","transposition":-3,"order":["shifted","swapped"],"probe_pitches":[-3,1,6,4,9,1,-1,9],"shifted_pitches":[-3,1,6,4,8,1,-1,9],"swapped_pitches":[-3,1,6,9,4,1,-1,9],"shift_direction":-1,"question_num":51,"has_decoy":false,"subject":"S1C0812","sona":"41505","block":1,"time":"2021-09-15T15:28:57.370Z"},{"rt":5189.400000035763,"stimulus":"[A] option 1, [L] option 2, [G] neither","key_press":71,"name":"choice","trial_type":"html-keyboard-response","trial_index":81,"time_elapsed":196530,"internal_node_id":"0.0-81.0","response":"neither","certainty":"high","char":"G","transposition":0,"order":["shifted","swapped"],"probe_pitches":[1,-1,5,3,6,8,5,6],"shifted_pitches":[1,-1,5,4,6,8,5,6],"swapped_pitches":[1,-1,5,6,3,8,5,6],"shift_direction":1,"question_num":61,"has_decoy":false,"subject":"S1C0812","sona":"41505","block":1,"time":"2021-09-15T15:28:57.370Z"},{"rt":1024,"stimulus":"[A] option 1, [L] option 2, [G] neither","key_press":65,"name":"choice","trial_type":"html-keyboard-response","trial_index":92,"time_elapsed":213024,"internal_node_id":"0.0-92.0","response":"1st","certainty":"high","char":"A","transposition":-1,"order":["shifted","swapped"],"probe_pitches":[-3,2,6,4,-3,2,-1,-3],"shifted_pitches":[-3,2,6,5,-3,2,-1,-3],"swapped_pitches":[-3,2,6,-3,4,2,-1,-3],"shift_direction":1,"question_num":71,"has_decoy":false,"subject":"S1C0812","sona":"41505","block":1,"time":"2021-09-15T15:28:57.370Z"},{"rt":1098.8999999761581,"stimulus":"[A] option 1, [L] option 2, [G] neither","key_press":76,"name":"choice","trial_type":"html-keyboard-response","trial_index":103,"time_elapsed":229594,"internal_node_id":"0.0-103.0","response":"2nd","certainty":"high","char":"L","transposition":-1,"order":["shifted","swapped"],"probe_pitches":[7,9,5,2,7,0,5,7],"shifted_pitches":[7,9,5,3,7,0,5,7],"swapped_pitches":[7,9,5,7,2,0,5,7],"shift_direction":1,"question_num":81,"has_decoy":false,"subject":"S1C0812","sona":"41505","block":1,"time":"2021-09-15T15:28:57.370Z"},{"rt":888.3000000119209,"stimulus":"[A] option 1, [L] option 2, [G] neither","key_press":76,"name":"choice","trial_type":"html-keyboard-response","trial_index":114,"time_elapsed":246018,"internal_node_id":"0.0-114.0","response":"2nd","certainty":"high","char":"L","transposition":3,"order":["swapped","shifted"],"probe_pitches":[7,2,9,7,2,0,4,7],"shifted_pitches":[7,2,9,8,2,0,4,7],"swapped_pitches":[7,2,9,2,7,0,4,7],"shift_direction":1,"question_num":91,"has_decoy":false,"subject":"S1C0812","sona":"41505","block":1,"time":"2021-09-15T15:28:57.370Z"},{"rt":1923,"stimulus":"[A] option 1, [L] option 2, [G] neither","key_press":65,"name":"choice","trial_type":"html-keyboard-response","trial_index":125,"time_elapsed":263021,"internal_node_id":"0.0-125.0","response":"1st","certainty":"high","char":"A","transposition":2,"order":["swapped","shifted"],"probe_pitches":[2,4,5,9,7,-2,4,9],"shifted_pitches":[2,4,5,9,8,-2,4,9],"swapped_pitches":[2,4,5,7,9,-2,4,9],"shift_direction":1,"question_num":101,"has_decoy":false,"subject":"S1C0812","sona":"41505","block":1,"time":"2021-09-15T15:28:57.370Z"},{"rt":3421,"stimulus":"[A] option 1, [L] option 2, [G] neither","key_press":71,"name":"choice","trial_type":"html-keyboard-response","trial_index":136,"time_elapsed":281801,"internal_node_id":"0.0-136.0","response":"neither","certainty":"high","char":"G","transposition":-3,"order":["shifted","swapped"],"probe_pitches":[9,7,0,7,5,0,-3,2],"shifted_pitches":[9,7,0,7,4,0,-3,2],"swapped_pitches":[9,7,0,5,7,0,-3,2],"shift_direction":-1,"question_num":111,"has_decoy":false,"subject":"S1C0812","sona":"41505","block":1,"time":"2021-09-15T15:28:57.370Z"},{"rt":1678.199999988079,"stimulus":"[A] option 1, [L] option 2, [G] neither","key_press":71,"name":"choice","trial_type":"html-keyboard-response","trial_index":147,"time_elapsed":299820,"internal_node_id":"0.0-147.0","response":"neither","certainty":"high","char":"G","transposition":-2,"order":["swapped","shifted"],"probe_pitches":[9,6,1,4,6,-3,-1,-3],"shifted_pitches":[9,6,1,4,5,-3,-1,-3],"swapped_pitches":[9,6,1,6,4,-3,-1,-3],"shift_direction":-1,"question_num":121,"has_decoy":false,"subject":"S1C0812","sona":"41505","block":1,"time":"2021-09-15T15:28:57.370Z"},{"rt":2832.099999964237,"stimulus":"[A] option 1, [L] option 2, [G] neither","key_press":71,"name":"choice","trial_type":"html-keyboard-response","trial_index":158,"time_elapsed":318083,"internal_node_id":"0.0-158.0","response":"neither","certainty":"high","char":"G","transposition":-1,"order":["swapped","shifted"],"probe_pitches":[9,3,1,3,0,-1,0,3],"shifted_pitches":[9,3,1,2,0,-1,0,3],"swapped_pitches":[9,3,1,0,3,-1,0,3],"shift_direction":-1,"question_num":131,"has_decoy":false,"subject":"S1C0812","sona":"41505","block":1,"time":"2021-09-15T15:28:57.370Z"},{"rt":6446.699999988079,"stimulus":"[A] option 1, [L] option 2, [G] neither","key_press":71,"name":"choice","trial_type":"html-keyboard-response","trial_index":169,"time_elapsed":339624,"internal_node_id":"0.0-169.0","response":"neither","certainty":"high","char":"G","transposition":0,"order":["swapped","shifted"],"probe_pitches":[9,7,4,-3,2,4,9,-1],"shifted_pitches":[9,7,4,-3,3,4,9,-1],"swapped_pitches":[9,7,4,2,-3,4,9,-1],"shift_direction":1,"question_num":141,"has_decoy":false,"subject":"S1C0812","sona":"41505","block":1,"time":"2021-09-15T15:28:57.370Z"},{"rt":1477.5,"stimulus":"[A] option 1, [L] option 2, [G] neither","key_press":76,"name":"choice","trial_type":"html-keyboard-response","trial_index":180,"time_elapsed":356461,"internal_node_id":"0.0-180.0","response":"2nd","certainty":"high","char":"L","transposition":-3,"order":["shifted","swapped"],"probe_pitches":[3,1,8,0,6,9,2,6],"shifted_pitches":[3,1,8,0,7,9,2,6],"swapped_pitches":[3,1,8,6,0,9,2,6],"shift_direction":1,"question_num":151,"has_decoy":false,"subject":"S1C0812","sona":"41505","block":1,"time":"2021-09-15T15:28:57.370Z"},{"rt":2082.900000035763,"stimulus":"[A] option 1, [L] option 2, [G] neither","key_press":65,"name":"choice","trial_type":"html-keyboard-response","trial_index":191,"time_elapsed":374407,"internal_node_id":"0.0-191.0","response":"1st","certainty":"high","char":"A","transposition":2,"order":["swapped","shifted"],"probe_pitches":[7,4,-3,2,9,4,2,0],"shifted_pitches":[7,4,-3,1,9,4,2,0],"swapped_pitches":[7,4,-3,9,2,4,2,0],"shift_direction":-1,"question_num":161,"has_decoy":false,"subject":"S1C0812","sona":"41505","block":1,"time":"2021-09-15T15:28:57.370Z"},{"rt":1176.8999999761581,"stimulus":"[A] option 1, [L] option 2, [G] neither","key_press":76,"name":"choice","trial_type":"html-keyboard-response","trial_index":202,"time_elapsed":391647,"internal_node_id":"0.0-202.0","response":"2nd","certainty":"high","char":"L","transposition":1,"order":["shifted","swapped"],"probe_pitches":[8,2,1,0,6,2,9,2],"shifted_pitches":[8,2,1,0,5,2,9,2],"swapped_pitches":[8,2,1,6,0,2,9,2],"shift_direction":-1,"question_num":171,"has_decoy":false,"subject":"S1C0812","sona":"41505","block":1,"time":"2021-09-15T15:28:57.370Z"},{"rt":1206.7000000476837,"stimulus":"[A] option 1, [L] option 2, [G] neither","key_press":76,"name":"choice","trial_type":"html-keyboard-response","trial_index":213,"time_elapsed":410031,"internal_node_id":"0.0-213.0","response":"2nd","certainty":"high","char":"L","transposition":-3,"order":["shifted","swapped"],"probe_pitches":[-1,0,2,7,-1,3,2,4],"shifted_pitches":[-1,0,2,6,-1,3,2,4],"swapped_pitches":[-1,0,2,-1,7,3,2,4],"shift_direction":-1,"question_num":181,"has_decoy":false,"subject":"S1C0812","sona":"41505","block":1,"time":"2021-09-15T15:28:57.370Z"},{"rt":774.3999999761581,"stimulus":"[A] option 1, [L] option 2, [G] neither","key_press":65,"name":"choice","trial_type":"html-keyboard-response","trial_index":224,"time_elapsed":426719,"internal_node_id":"0.0-224.0","response":"1st","certainty":"high","char":"A","transposition":-1,"order":["swapped","shifted"],"probe_pitches":[7,9,7,0,9,5,3,2],"shifted_pitches":[7,9,7,1,9,5,3,2],"swapped_pitches":[7,9,7,9,0,5,3,2],"shift_direction":1,"question_num":191,"has_decoy":false,"subject":"S1C0812","sona":"41505","block":1,"time":"2021-09-15T15:28:57.370Z"}]