[{"rt":643.6000000238419,"stimulus":"[A] option 1, [L] option 2, [G] neither","key_press":76,"name":"choice","trial_type":"html-keyboard-response","trial_index":10,"time_elapsed":19199,"internal_node_id":"0.0-10.0","subject":"S1C0812","sona":"41505","block":2,"time":"2021-09-15T15:35:00.529Z","response":"2nd","certainty":"high","char":"L","transposition":0,"order":["shifted","swapped"],"probe_pitches":[1,0,1,0,4,5,8,4],"shifted_pitches":[1,0,1,0,3,5,8,4],"swapped_pitches":[1,0,1,4,0,5,8,4],"shift_direction":-1,"question_num":1,"has_decoy":false},{"rt":648.8000000119209,"stimulus":"[A] option 1, [L] option 2, [G] neither","key_press":76,"name":"choice","trial_type":"html-keyboard-response","trial_index":21,"time_elapsed":37391,"internal_node_id":"0.0-21.0","subject":"S1C0812","sona":"41505","block":2,"time":"2021-09-15T15:35:00.529Z","response":"2nd","certainty":"high","char":"L","transposition":-1,"order":["shifted","swapped"],"probe_pitches":[2,7,4,2,9,12,9,2],"shifted_pitches":[2,7,4,1,9,12,9,2],"swapped_pitches":[2,7,4,9,2,12,9,2],"shift_direction":-1,"question_num":11,"has_decoy":false},{"rt":633.6999999880791,"stimulus":"[A] option 1, [L] option 2, [G] neither","key_press":65,"name":"choice","trial_type":"html-keyboard-response","trial_index":32,"time_elapsed":54664,"internal_node_id":"0.0-32.0","subject":"S1C0812","sona":"41505","block":2,"time":"2021-09-15T15:35:00.529Z","response":"1st","certainty":"high","char":"A","transposition":-3,"order":["swapped","shifted"],"probe_pitches":[11,7,10,3,12,10,0,1],"shifted_pitches":[11,7,10,2,12,10,0,1],"swapped_pitches":[11,7,10,12,3,10,0,1],"shift_direction":-1,"question_num":21,"has_decoy":false},{"rt":1939.5999999642372,"stimulus":"[A] option 1, [L] option 2, [G] neither","key_press":65,"name":"choice","trial_type":"html-keyboard-response","trial_index":43,"time_elapsed":72818,"internal_node_id":"0.0-43.0","subject":"S1C0812","sona":"41505","block":2,"time":"2021-09-15T15:35:00.529Z","response":"1st","certainty":"high","char":"A","transposition":-3,"order":["shifted","swapped"],"probe_pitches":[0,3,0,5,8,12,10,12],"shifted_pitches":[0,3,0,4,8,12,10,12],"swapped_pitches":[0,3,0,8,5,12,10,12],"shift_direction":-1,"question_num":31,"has_decoy":false},{"rt":1248.800000011921,"stimulus":"[A] option 1, [L] option 2, [G] neither","key_press":65,"name":"choice","trial_type":"html-keyboard-response","trial_index":54,"time_elapsed":89081,"internal_node_id":"0.0-54.0","subject":"S1C0812","sona":"41505","block":2,"time":"2021-09-15T15:35:00.529Z","response":"1st","certainty":"high","char":"A","transposition":3,"order":["swapped","shifted"],"probe_pitches":[7,5,0,3,10,7,0,3],"shifted_pitches":[7,5,0,4,10,7,0,3],"swapped_pitches":[7,5,0,10,3,7,0,3],"shift_direction":1,"question_num":41,"has_decoy":false},{"rt":1888.199999988079,"stimulus":"[A] option 1, [L] option 2, [G] neither","key_press":65,"name":"choice","trial_type":"html-keyboard-response","trial_index":65,"time_elapsed":106315,"internal_node_id":"0.0-65.0","subject":"S1C0812","sona":"41505","block":2,"time":"2021-09-15T15:35:00.529Z","response":"1st","certainty":"high","char":"A","transposition":2,"order":["swapped","shifted"],"probe_pitches":[11,8,10,3,1,0,2,0],"shifted_pitches":[11,8,10,4,1,0,2,0],"swapped_pitches":[11,8,10,1,3,0,2,0],"shift_direction":1,"question_num":51,"has_decoy":false},{"rt":1671.300000011921,"stimulus":"[A] option 1, [L] option 2, [G] neither","key_press":65,"name":"choice","trial_type":"html-keyboard-response","trial_index":76,"time_elapsed":122980,"internal_node_id":"0.0-76.0","subject":"S1C0812","sona":"41505","block":2,"time":"2021-09-15T15:35:00.529Z","response":"1st","certainty":"high","char":"A","transposition":-2,"order":["swapped","shifted"],"probe_pitches":[7,2,0,4,1,9,2,4],"shifted_pitches":[7,2,0,5,1,9,2,4],"swapped_pitches":[7,2,0,1,4,9,2,4],"shift_direction":1,"question_num":61,"has_decoy":false},{"rt":1407,"stimulus":"[A] option 1, [L] option 2, [G] neither","key_press":76,"name":"choice","trial_type":"html-keyboard-response","trial_index":87,"time_elapsed":139535,"internal_node_id":"0.0-87.0","subject":"S1C0812","sona":"41505","block":2,"time":"2021-09-15T15:35:00.529Z","response":"2nd","certainty":"high","char":"L","transposition":-2,"order":["shifted","swapped"],"probe_pitches":[2,7,10,2,8,6,3,6],"shifted_pitches":[2,7,10,2,9,6,3,6],"swapped_pitches":[2,7,10,8,2,6,3,6],"shift_direction":1,"question_num":71,"has_decoy":false},{"rt":1066.199999988079,"stimulus":"[A] option 1, [L] option 2, [G] neither","key_press":76,"name":"choice","trial_type":"html-keyboard-response","trial_index":98,"time_elapsed":155770,"internal_node_id":"0.0-98.0","subject":"S1C0812","sona":"41505","block":2,"time":"2021-09-15T15:35:00.529Z","response":"2nd","certainty":"high","char":"L","transposition":-1,"order":["shifted","swapped"],"probe_pitches":[3,6,5,9,12,4,10,1],"shifted_pitches":[3,6,5,9,11,4,10,1],"swapped_pitches":[3,6,5,12,9,4,10,1],"shift_direction":-1,"question_num":81,"has_decoy":false},{"rt":818.8000000119209,"stimulus":"[A] option 1, [L] option 2, [G] neither","key_press":65,"name":"choice","trial_type":"html-keyboard-response","trial_index":109,"time_elapsed":172192,"internal_node_id":"0.0-109.0","subject":"S1C0812","sona":"41505","block":2,"time":"2021-09-15T15:35:00.529Z","response":"1st","certainty":"high","char":"A","transposition":-1,"order":["shifted","swapped"],"probe_pitches":[3,6,1,8,5,3,1,8],"shifted_pitches":[3,6,1,7,5,3,1,8],"swapped_pitches":[3,6,1,5,8,3,1,8],"shift_direction":-1,"question_num":91,"has_decoy":false},{"rt":1735,"stimulus":"[A] option 1, [L] option 2, [G] neither","key_press":65,"name":"choice","trial_type":"html-keyboard-response","trial_index":120,"time_elapsed":189111,"internal_node_id":"0.0-120.0","subject":"S1C0812","sona":"41505","block":2,"time":"2021-09-15T15:35:00.529Z","response":"1st","certainty":"high","char":"A","transposition":1,"order":["swapped","shifted"],"probe_pitches":[3,9,3,11,5,0,2,9],"shifted_pitches":[3,9,3,10,5,0,2,9],"swapped_pitches":[3,9,3,5,11,0,2,9],"shift_direction":-1,"question_num":101,"has_decoy":false},{"rt":1095,"stimulus":"[A] option 1, [L] option 2, [G] neither","key_press":65,"name":"choice","trial_type":"html-keyboard-response","trial_index":131,"time_elapsed":205249,"internal_node_id":"0.0-131.0","subject":"S1C0812","sona":"41505","block":2,"time":"2021-09-15T15:35:00.529Z","response":"1st","certainty":"high","char":"A","transposition":1,"order":["shifted","swapped"],"probe_pitches":[7,2,5,12,7,5,10,2],"shifted_pitches":[7,2,5,11,7,5,10,2],"swapped_pitches":[7,2,5,7,12,5,10,2],"shift_direction":-1,"question_num":111,"has_decoy":false},{"rt":994.3999999761581,"stimulus":"[A] option 1, [L] option 2, [G] neither","key_press":76,"name":"choice","trial_type":"html-keyboard-response","trial_index":142,"time_elapsed":221071,"internal_node_id":"0.0-142.0","subject":"S1C0812","sona":"41505","block":2,"time":"2021-09-15T15:35:00.529Z","response":"2nd","certainty":"high","char":"L","transposition":3,"order":["swapped","shifted"],"probe_pitches":[8,7,9,8,5,7,5,7],"shifted_pitches":[8,7,9,8,6,7,5,7],"swapped_pitches":[8,7,9,5,8,7,5,7],"shift_direction":1,"question_num":121,"has_decoy":false},{"rt":2466.899999976158,"stimulus":"[A] option 1, [L] option 2, [G] neither","key_press":71,"name":"choice","trial_type":"html-keyboard-response","trial_index":153,"time_elapsed":238836,"internal_node_id":"0.0-153.0","subject":"S1C0812","sona":"41505","block":2,"time":"2021-09-15T15:35:00.529Z","response":"neither","certainty":"high","char":"G","transposition":-3,"order":["shifted","swapped"],"probe_pitches":[5,3,10,2,7,10,1,2],"shifted_pitches":[5,3,10,2,8,10,1,2],"swapped_pitches":[5,3,10,7,2,10,1,2],"shift_direction":1,"question_num":131,"has_decoy":false},{"rt":2977.2000000476837,"stimulus":"[A] option 1, [L] option 2, [G] neither","key_press":65,"name":"choice","trial_type":"html-keyboard-response","trial_index":164,"time_elapsed":257069,"internal_node_id":"0.0-164.0","subject":"S1C0812","sona":"41505","block":2,"time":"2021-09-15T15:35:00.529Z","response":"1st","certainty":"high","char":"A","transposition":2,"order":["swapped","shifted"],"probe_pitches":[2,5,2,10,5,0,7,10],"shifted_pitches":[2,5,2,10,6,0,7,10],"swapped_pitches":[2,5,2,5,10,0,7,10],"shift_direction":1,"question_num":141,"has_decoy":false},{"rt":3582.199999988079,"stimulus":"[A] option 1, [L] option 2, [G] neither","key_press":76,"name":"choice","trial_type":"html-keyboard-response","trial_index":175,"time_elapsed":275983,"internal_node_id":"0.0-175.0","subject":"S1C0812","sona":"41505","block":2,"time":"2021-09-15T15:35:00.529Z","response":"2nd","certainty":"high","char":"L","transposition":-2,"order":["swapped","shifted"],"probe_pitches":[5,8,12,8,10,12,3,10],"shifted_pitches":[5,8,12,8,9,12,3,10],"swapped_pitches":[5,8,12,10,8,12,3,10],"shift_direction":-1,"question_num":151,"has_decoy":false},{"rt":1662,"stimulus":"[A] option 1, [L] option 2, [G] neither","key_press":76,"name":"choice","trial_type":"html-keyboard-response","trial_index":186,"time_elapsed":298313,"internal_node_id":"0.0-186.0","subject":"S1C0812","sona":"41505","block":2,"time":"2021-09-15T15:35:00.529Z","response":"2nd","certainty":"high","char":"L","transposition":-2,"order":["swapped","shifted"],"probe_pitches":[7,2,0,5,12,9,0,2],"shifted_pitches":[7,2,0,5,13,9,0,2],"swapped_pitches":[7,2,0,12,5,9,0,2],"shift_direction":1,"question_num":161,"has_decoy":false},{"rt":5495.800000011921,"stimulus":"[A] option 1, [L] option 2, [G] neither","key_press":76,"name":"choice","trial_type":"html-keyboard-response","trial_index":197,"time_elapsed":321584,"internal_node_id":"0.0-197.0","subject":"S1C0812","sona":"41505","block":2,"time":"2021-09-15T15:35:00.529Z","response":"2nd","certainty":"high","char":"L","transposition":0,"order":["shifted","swapped"],"probe_pitches":[0,5,12,9,2,5,7,2],"shifted_pitches":[0,5,12,8,2,5,7,2],"swapped_pitches":[0,5,12,2,9,5,7,2],"shift_direction":-1,"question_num":171,"has_decoy":false},{"rt":1740.7999999523163,"stimulus":"[A] option 1, [L] option 2, [G] neither","key_press":71,"name":"choice","trial_type":"html-keyboard-response","trial_index":208,"time_elapsed":338077,"internal_node_id":"0.0-208.0","subject":"S1C0812","sona":"41505","block":2,"time":"2021-09-15T15:35:00.529Z","response":"neither","certainty":"high","char":"G","transposition":-1,"order":["shifted","swapped"],"probe_pitches":[0,4,2,0,7,2,9,4],"shifted_pitches":[0,4,2,0,8,2,9,4],"swapped_pitches":[0,4,2,7,0,2,9,4],"shift_direction":1,"question_num":181,"has_decoy":false},{"rt":721.0999999642372,"stimulus":"[A] option 1, [L] option 2, [G] neither","key_press":65,"name":"choice","trial_type":"html-keyboard-response","trial_index":219,"time_elapsed":354167,"internal_node_id":"0.0-219.0","subject":"S1C0812","sona":"41505","block":2,"time":"2021-09-15T15:35:00.529Z","response":"1st","certainty":"high","char":"A","transposition":-3,"order":["swapped","shifted"],"probe_pitches":[12,7,5,10,3,0,10,7],"shifted_pitches":[12,7,5,10,4,0,10,7],"swapped_pitches":[12,7,5,3,10,0,10,7],"shift_direction":1,"question_num":191,"has_decoy":false}]