[{"rt":2630.599999964237,"stimulus":"[A] option 1, [L] option 2, [G] neither","key_press":65,"name":"choice","trial_type":"html-keyboard-response","trial_index":10,"time_elapsed":20842,"internal_node_id":"0.0-10.0","subject":"S1C0812","sona":"41505","block":4,"time":"2021-09-15T15:47:20.274Z","response":"1st","certainty":"high","char":"A","transposition":-1,"order":["swapped","shifted"],"probe_pitches":[3,6,1,7,10,8,11,6],"shifted_pitches":[3,6,1,7,9,8,11,6],"swapped_pitches":[3,6,1,10,7,8,11,6],"shift_direction":-1,"question_num":1,"has_decoy":false},{"rt":5400.199999988079,"stimulus":"[A] option 1, [L] option 2, [G] neither","key_press":76,"name":"choice","trial_type":"html-keyboard-response","trial_index":21,"time_elapsed":42986,"internal_node_id":"0.0-21.0","subject":"S1C0812","sona":"41505","block":4,"time":"2021-09-15T15:47:20.274Z","response":"2nd","certainty":"high","char":"L","transposition":0,"order":["shifted","swapped"],"probe_pitches":[5,2,8,12,10,2,0,7],"shifted_pitches":[5,2,8,12,11,2,0,7],"swapped_pitches":[5,2,8,10,12,2,0,7],"shift_direction":1,"question_num":11,"has_decoy":false},{"rt":4708.199999988079,"stimulus":"[A] option 1, [L] option 2, [G] neither","key_press":76,"name":"choice","trial_type":"html-keyboard-response","trial_index":32,"time_elapsed":64262,"internal_node_id":"0.0-32.0","subject":"S1C0812","sona":"41505","block":4,"time":"2021-09-15T15:47:20.274Z","response":"2nd","certainty":"high","char":"L","transposition":-2,"order":["shifted","swapped"],"probe_pitches":[9,6,9,1,4,11,9,12],"shifted_pitches":[9,6,9,2,4,11,9,12],"swapped_pitches":[9,6,9,4,1,11,9,12],"shift_direction":1,"question_num":21,"has_decoy":false},{"rt":2580.899999976158,"stimulus":"[A] option 1, [L] option 2, [G] neither","key_press":76,"name":"choice","trial_type":"html-keyboard-response","trial_index":43,"time_elapsed":82383,"internal_node_id":"0.0-43.0","subject":"S1C0812","sona":"41505","block":4,"time":"2021-09-15T15:47:20.274Z","response":"2nd","certainty":"high","char":"L","transposition":2,"order":["shifted","swapped"],"probe_pitches":[10,8,5,10,1,-2,3,-2],"shifted_pitches":[10,8,5,11,1,-2,3,-2],"swapped_pitches":[10,8,5,1,10,-2,3,-2],"shift_direction":1,"question_num":31,"has_decoy":false},{"rt":2737.199999988079,"stimulus":"[A] option 1, [L] option 2, [G] neither","key_press":76,"name":"choice","trial_type":"html-keyboard-response","trial_index":54,"time_elapsed":102041,"internal_node_id":"0.0-54.0","subject":"S1C0812","sona":"41505","block":4,"time":"2021-09-15T15:47:20.274Z","response":"2nd","certainty":"high","char":"L","transposition":1,"order":["swapped","shifted"],"probe_pitches":[3,0,-2,3,0,-2,5,7],"shifted_pitches":[3,0,-2,2,0,-2,5,7],"swapped_pitches":[3,0,-2,0,3,-2,5,7],"shift_direction":-1,"question_num":41,"has_decoy":false},{"rt":967.1999999880791,"stimulus":"[A] option 1, [L] option 2, [G] neither","key_press":65,"name":"choice","trial_type":"html-keyboard-response","trial_index":65,"time_elapsed":118144,"internal_node_id":"0.0-65.0","subject":"S1C0812","sona":"41505","block":4,"time":"2021-09-15T15:47:20.274Z","response":"1st","certainty":"high","char":"A","transposition":-2,"order":["swapped","shifted"],"probe_pitches":[8,3,8,1,3,8,10,6],"shifted_pitches":[8,3,8,2,3,8,10,6],"swapped_pitches":[8,3,8,3,1,8,10,6],"shift_direction":1,"question_num":51,"has_decoy":false},{"rt":686.8000000119209,"stimulus":"[A] option 1, [L] option 2, [G] neither","key_press":76,"name":"choice","trial_type":"html-keyboard-response","trial_index":76,"time_elapsed":134764,"internal_node_id":"0.0-76.0","subject":"S1C0812","sona":"41505","block":4,"time":"2021-09-15T15:47:20.274Z","response":"2nd","certainty":"high","char":"L","transposition":-3,"order":["shifted","swapped"],"probe_pitches":[1,6,9,12,6,1,4,8],"shifted_pitches":[1,6,9,12,7,1,4,8],"swapped_pitches":[1,6,9,6,12,1,4,8],"shift_direction":1,"question_num":61,"has_decoy":false},{"rt":3768.600000023842,"stimulus":"[A] option 1, [L] option 2, [G] neither","key_press":76,"name":"choice","trial_type":"html-keyboard-response","trial_index":87,"time_elapsed":154075,"internal_node_id":"0.0-87.0","subject":"S1C0812","sona":"41505","block":4,"time":"2021-09-15T15:47:20.274Z","response":"2nd","certainty":"high","char":"L","transposition":-2,"order":["shifted","swapped"],"probe_pitches":[8,10,3,5,-2,0,3,8],"shifted_pitches":[8,10,3,5,-3,0,3,8],"swapped_pitches":[8,10,3,-2,5,0,3,8],"shift_direction":-1,"question_num":71,"has_decoy":false},{"rt":559.6999999880791,"stimulus":"[A] option 1, [L] option 2, [G] neither","key_press":65,"name":"choice","trial_type":"html-keyboard-response","trial_index":98,"time_elapsed":170240,"internal_node_id":"0.0-98.0","subject":"S1C0812","sona":"41505","block":4,"time":"2021-09-15T15:47:20.274Z","response":"1st","certainty":"high","char":"A","transposition":0,"order":["swapped","shifted"],"probe_pitches":[8,5,3,0,5,10,5,8],"shifted_pitches":[8,5,3,0,6,10,5,8],"swapped_pitches":[8,5,3,5,0,10,5,8],"shift_direction":1,"question_num":81,"has_decoy":false},{"rt":472.5,"stimulus":"[A] option 1, [L] option 2, [G] neither","key_press":65,"name":"choice","trial_type":"html-keyboard-response","trial_index":109,"time_elapsed":185849,"internal_node_id":"0.0-109.0","subject":"S1C0812","sona":"41505","block":4,"time":"2021-09-15T15:47:20.274Z","response":"1st","certainty":"high","char":"A","transposition":3,"order":["swapped","shifted"],"probe_pitches":[4,2,0,6,12,2,9,11],"shifted_pitches":[4,2,0,5,12,2,9,11],"swapped_pitches":[4,2,0,12,6,2,9,11],"shift_direction":-1,"question_num":91,"has_decoy":false},{"rt":893.1000000238419,"stimulus":"[A] option 1, [L] option 2, [G] neither","key_press":76,"name":"choice","trial_type":"html-keyboard-response","trial_index":120,"time_elapsed":204143,"internal_node_id":"0.0-120.0","subject":"S1C0812","sona":"41505","block":4,"time":"2021-09-15T15:47:20.274Z","response":"2nd","certainty":"high","char":"L","transposition":-1,"order":["shifted","swapped"],"probe_pitches":[5,7,5,10,2,5,0,7],"shifted_pitches":[5,7,5,10,3,5,0,7],"swapped_pitches":[5,7,5,2,10,5,0,7],"shift_direction":1,"question_num":101,"has_decoy":false},{"rt":1052.0999999642372,"stimulus":"[A] option 1, [L] option 2, [G] neither","key_press":65,"name":"choice","trial_type":"html-keyboard-response","trial_index":131,"time_elapsed":220316,"internal_node_id":"0.0-131.0","subject":"S1C0812","sona":"41505","block":4,"time":"2021-09-15T15:47:20.274Z","response":"1st","certainty":"high","char":"A","transposition":-3,"order":["swapped","shifted"],"probe_pitches":[-2,0,2,5,7,0,5,10],"shifted_pitches":[-2,0,2,5,6,0,5,10],"swapped_pitches":[-2,0,2,7,5,0,5,10],"shift_direction":-1,"question_num":111,"has_decoy":false},{"rt":582.5,"stimulus":"[A] option 1, [L] option 2, [G] neither","key_press":65,"name":"choice","trial_type":"html-keyboard-response","trial_index":142,"time_elapsed":235954,"internal_node_id":"0.0-142.0","subject":"S1C0812","sona":"41505","block":4,"time":"2021-09-15T15:47:20.274Z","response":"1st","certainty":"high","char":"A","transposition":-1,"order":["swapped","shifted"],"probe_pitches":[5,3,0,7,10,3,5,7],"shifted_pitches":[5,3,0,7,9,3,5,7],"swapped_pitches":[5,3,0,10,7,3,5,7],"shift_direction":-1,"question_num":121,"has_decoy":false},{"rt":854.1999999880791,"stimulus":"[A] option 1, [L] option 2, [G] neither","key_press":71,"name":"choice","trial_type":"html-keyboard-response","trial_index":153,"time_elapsed":252008,"internal_node_id":"0.0-153.0","subject":"S1C0812","sona":"41505","block":4,"time":"2021-09-15T15:47:20.274Z","response":"neither","certainty":"high","char":"G","transposition":-3,"order":["swapped","shifted"],"probe_pitches":[9,10,11,3,2,9,1,2],"shifted_pitches":[9,10,11,4,2,9,1,2],"swapped_pitches":[9,10,11,2,3,9,1,2],"shift_direction":1,"question_num":131,"has_decoy":false},{"rt":850.3000000119209,"stimulus":"[A] option 1, [L] option 2, [G] neither","key_press":71,"name":"choice","trial_type":"html-keyboard-response","trial_index":164,"time_elapsed":268343,"internal_node_id":"0.0-164.0","subject":"S1C0812","sona":"41505","block":4,"time":"2021-09-15T15:47:20.274Z","response":"neither","certainty":"high","char":"G","transposition":-1,"order":["shifted","swapped"],"probe_pitches":[12,11,10,9,7,11,4,1],"shifted_pitches":[12,11,10,9,6,11,4,1],"swapped_pitches":[12,11,10,7,9,11,4,1],"shift_direction":-1,"question_num":141,"has_decoy":false},{"rt":842.3999999761581,"stimulus":"[A] option 1, [L] option 2, [G] neither","key_press":71,"name":"choice","trial_type":"html-keyboard-response","trial_index":175,"time_elapsed":284158,"internal_node_id":"0.0-175.0","subject":"S1C0812","sona":"41505","block":4,"time":"2021-09-15T15:47:20.274Z","response":"neither","certainty":"high","char":"G","transposition":3,"order":["shifted","swapped"],"probe_pitches":[-2,3,10,8,6,1,10,3],"shifted_pitches":[-2,3,10,7,6,1,10,3],"swapped_pitches":[-2,3,10,6,8,1,10,3],"shift_direction":-1,"question_num":151,"has_decoy":false},{"rt":889.0999999642372,"stimulus":"[A] option 1, [L] option 2, [G] neither","key_press":65,"name":"choice","trial_type":"html-keyboard-response","trial_index":186,"time_elapsed":300144,"internal_node_id":"0.0-186.0","subject":"S1C0812","sona":"41505","block":4,"time":"2021-09-15T15:47:20.274Z","response":"1st","certainty":"high","char":"A","transposition":-3,"order":["shifted","swapped"],"probe_pitches":[10,5,3,8,1,10,5,8],"shifted_pitches":[10,5,3,9,1,10,5,8],"swapped_pitches":[10,5,3,1,8,10,5,8],"shift_direction":1,"question_num":161,"has_decoy":false},{"rt":5053.300000011921,"stimulus":"[A] option 1, [L] option 2, [G] neither","key_press":65,"name":"choice","trial_type":"html-keyboard-response","trial_index":197,"time_elapsed":321661,"internal_node_id":"0.0-197.0","subject":"S1C0812","sona":"41505","block":4,"time":"2021-09-15T15:47:20.274Z","response":"1st","certainty":"high","char":"A","transposition":-2,"order":["swapped","shifted"],"probe_pitches":[4,10,3,9,11,2,9,5],"shifted_pitches":[4,10,3,8,11,2,9,5],"swapped_pitches":[4,10,3,11,9,2,9,5],"shift_direction":-1,"question_num":171,"has_decoy":false},{"rt":1654.3999999761581,"stimulus":"[A] option 1, [L] option 2, [G] neither","key_press":76,"name":"choice","trial_type":"html-keyboard-response","trial_index":208,"time_elapsed":338203,"internal_node_id":"0.0-208.0","subject":"S1C0812","sona":"41505","block":4,"time":"2021-09-15T15:47:20.274Z","response":"2nd","certainty":"high","char":"L","transposition":2,"order":["shifted","swapped"],"probe_pitches":[9,8,11,8,9,3,7,1],"shifted_pitches":[9,8,11,8,10,3,7,1],"swapped_pitches":[9,8,11,9,8,3,7,1],"shift_direction":1,"question_num":181,"has_decoy":false},{"rt":1172.199999988079,"stimulus":"[A] option 1, [L] option 2, [G] neither","key_press":65,"name":"choice","trial_type":"html-keyboard-response","trial_index":219,"time_elapsed":357280,"internal_node_id":"0.0-219.0","subject":"S1C0812","sona":"41505","block":4,"time":"2021-09-15T15:47:20.274Z","response":"1st","certainty":"high","char":"A","transposition":1,"order":["swapped","shifted"],"probe_pitches":[0,6,0,4,6,5,12,0],"shifted_pitches":[0,6,0,3,6,5,12,0],"swapped_pitches":[0,6,0,6,4,5,12,0],"shift_direction":-1,"question_num":191,"has_decoy":false}]