[{"rt":803,"stimulus":"[A] option 1, [L] option 2, [G] neither","key_press":65,"name":"choice","trial_type":"html-keyboard-response","trial_index":10,"time_elapsed":21328,"internal_node_id":"0.0-10.0","subject":"S1C0812","sona":"41505","block":5,"time":"2021-09-15T15:53:25.608Z","response":"1st","certainty":"high","char":"A","transposition":0,"order":["shifted","swapped"],"probe_pitches":[8,7,4,7,8,10,11,1],"shifted_pitches":[8,7,4,6,8,10,11,1],"swapped_pitches":[8,7,4,8,7,10,11,1],"shift_direction":-1,"question_num":1,"has_decoy":false},{"rt":883.8999999761581,"stimulus":"[A] option 1, [L] option 2, [G] neither","key_press":76,"name":"choice","trial_type":"html-keyboard-response","trial_index":21,"time_elapsed":38299,"internal_node_id":"0.0-21.0","subject":"S1C0812","sona":"41505","block":5,"time":"2021-09-15T15:53:25.608Z","response":"2nd","certainty":"high","char":"L","transposition":-1,"order":["shifted","swapped"],"probe_pitches":[1,5,3,11,2,5,8,7],"shifted_pitches":[1,5,3,10,2,5,8,7],"swapped_pitches":[1,5,3,2,11,5,8,7],"shift_direction":-1,"question_num":11,"has_decoy":false},{"rt":1938,"stimulus":"[A] option 1, [L] option 2, [G] neither","key_press":71,"name":"choice","trial_type":"html-keyboard-response","trial_index":32,"time_elapsed":57145,"internal_node_id":"0.0-32.0","subject":"S1C0812","sona":"41505","block":5,"time":"2021-09-15T15:53:25.608Z","response":"neither","certainty":"high","char":"G","transposition":2,"order":["shifted","swapped"],"probe_pitches":[8,5,3,1,10,5,10,8],"shifted_pitches":[8,5,3,1,11,5,10,8],"swapped_pitches":[8,5,3,10,1,5,10,8],"shift_direction":1,"question_num":21,"has_decoy":false},{"rt":3695.2000000476837,"stimulus":"[A] option 1, [L] option 2, [G] neither","key_press":76,"name":"choice","trial_type":"html-keyboard-response","trial_index":43,"time_elapsed":77842,"internal_node_id":"0.0-43.0","subject":"S1C0812","sona":"41505","block":5,"time":"2021-09-15T15:53:25.608Z","response":"2nd","certainty":"high","char":"L","transposition":-3,"order":["shifted","swapped"],"probe_pitches":[12,10,7,9,12,8,10,1],"shifted_pitches":[12,10,7,9,11,8,10,1],"swapped_pitches":[12,10,7,12,9,8,10,1],"shift_direction":-1,"question_num":31,"has_decoy":false},{"rt":884.1999999880791,"stimulus":"[A] option 1, [L] option 2, [G] neither","key_press":71,"name":"choice","trial_type":"html-keyboard-response","trial_index":54,"time_elapsed":96402,"internal_node_id":"0.0-54.0","subject":"S1C0812","sona":"41505","block":5,"time":"2021-09-15T15:53:25.608Z","response":"neither","certainty":"high","char":"G","transposition":-1,"order":["shifted","swapped"],"probe_pitches":[3,9,13,6,4,12,3,11],"shifted_pitches":[3,9,13,7,4,12,3,11],"swapped_pitches":[3,9,13,4,6,12,3,11],"shift_direction":1,"question_num":41,"has_decoy":false},{"rt":907.6999999880791,"stimulus":"[A] option 1, [L] option 2, [G] neither","key_press":76,"name":"choice","trial_type":"html-keyboard-response","trial_index":65,"time_elapsed":114253,"internal_node_id":"0.0-65.0","subject":"S1C0812","sona":"41505","block":5,"time":"2021-09-15T15:53:25.608Z","response":"2nd","certainty":"high","char":"L","transposition":-2,"order":["shifted","swapped"],"probe_pitches":[5,3,8,10,3,0,8,5],"shifted_pitches":[5,3,8,11,3,0,8,5],"swapped_pitches":[5,3,8,3,10,0,8,5],"shift_direction":1,"question_num":51,"has_decoy":false},{"rt":3187.599999964237,"stimulus":"[A] option 1, [L] option 2, [G] neither","key_press":65,"name":"choice","trial_type":"html-keyboard-response","trial_index":76,"time_elapsed":132935,"internal_node_id":"0.0-76.0","subject":"S1C0812","sona":"41505","block":5,"time":"2021-09-15T15:53:25.608Z","response":"1st","certainty":"high","char":"A","transposition":-3,"order":["shifted","swapped"],"probe_pitches":[-2,0,2,-2,5,2,7,10],"shifted_pitches":[-2,0,2,-3,5,2,7,10],"swapped_pitches":[-2,0,2,5,-2,2,7,10],"shift_direction":-1,"question_num":61,"has_decoy":false},{"rt":1068.8999999761581,"stimulus":"[A] option 1, [L] option 2, [G] neither","key_press":65,"name":"choice","trial_type":"html-keyboard-response","trial_index":87,"time_elapsed":150544,"internal_node_id":"0.0-87.0","subject":"S1C0812","sona":"41505","block":5,"time":"2021-09-15T15:53:25.608Z","response":"1st","certainty":"high","char":"A","transposition":1,"order":["swapped","shifted"],"probe_pitches":[7,5,0,2,10,7,10,7],"shifted_pitches":[7,5,0,3,10,7,10,7],"swapped_pitches":[7,5,0,10,2,7,10,7],"shift_direction":1,"question_num":71,"has_decoy":false},{"rt":1189.7000000476837,"stimulus":"[A] option 1, [L] option 2, [G] neither","key_press":65,"name":"choice","trial_type":"html-keyboard-response","trial_index":98,"time_elapsed":171498,"internal_node_id":"0.0-98.0","subject":"S1C0812","sona":"41505","block":5,"time":"2021-09-15T15:53:25.608Z","response":"1st","certainty":"high","char":"A","transposition":-1,"order":["shifted","swapped"],"probe_pitches":[3,6,10,8,1,10,6,-2],"shifted_pitches":[3,6,10,8,0,10,6,-2],"swapped_pitches":[3,6,10,1,8,10,6,-2],"shift_direction":-1,"question_num":81,"has_decoy":false},{"rt":1274.699999988079,"stimulus":"[A] option 1, [L] option 2, [G] neither","key_press":65,"name":"choice","trial_type":"html-keyboard-response","trial_index":109,"time_elapsed":188049,"internal_node_id":"0.0-109.0","subject":"S1C0812","sona":"41505","block":5,"time":"2021-09-15T15:53:25.608Z","response":"1st","certainty":"high","char":"A","transposition":1,"order":["shifted","swapped"],"probe_pitches":[9,4,2,4,13,9,12,6],"shifted_pitches":[9,4,2,3,13,9,12,6],"swapped_pitches":[9,4,2,13,4,9,12,6],"shift_direction":-1,"question_num":91,"has_decoy":false},{"rt":1736.300000011921,"stimulus":"[A] option 1, [L] option 2, [G] neither","key_press":71,"name":"choice","trial_type":"html-keyboard-response","trial_index":120,"time_elapsed":204982,"internal_node_id":"0.0-120.0","subject":"S1C0812","sona":"41505","block":5,"time":"2021-09-15T15:53:25.608Z","response":"neither","certainty":"high","char":"G","transposition":-3,"order":["swapped","shifted"],"probe_pitches":[-2,0,3,5,7,3,-2,5],"shifted_pitches":[-2,0,3,6,7,3,-2,5],"swapped_pitches":[-2,0,3,7,5,3,-2,5],"shift_direction":1,"question_num":101,"has_decoy":false},{"rt":439.69999998807907,"stimulus":"[A] option 1, [L] option 2, [G] neither","key_press":65,"name":"choice","trial_type":"html-keyboard-response","trial_index":131,"time_elapsed":223940,"internal_node_id":"0.0-131.0","subject":"S1C0812","sona":"41505","block":5,"time":"2021-09-15T15:53:25.608Z","response":"1st","certainty":"high","char":"A","transposition":-2,"order":["swapped","shifted"],"probe_pitches":[5,11,6,1,8,7,12,11],"shifted_pitches":[5,11,6,1,9,7,12,11],"swapped_pitches":[5,11,6,8,1,7,12,11],"shift_direction":1,"question_num":111,"has_decoy":false},{"rt":529.8999999761581,"stimulus":"[A] option 1, [L] option 2, [G] neither","key_press":76,"name":"choice","trial_type":"html-keyboard-response","trial_index":142,"time_elapsed":239587,"internal_node_id":"0.0-142.0","subject":"S1C0812","sona":"41505","block":5,"time":"2021-09-15T15:53:25.608Z","response":"2nd","certainty":"high","char":"L","transposition":3,"order":["shifted","swapped"],"probe_pitches":[8,10,3,10,6,1,-2,3],"shifted_pitches":[8,10,3,10,5,1,-2,3],"swapped_pitches":[8,10,3,6,10,1,-2,3],"shift_direction":-1,"question_num":121,"has_decoy":false},{"rt":617.5,"stimulus":"[A] option 1, [L] option 2, [G] neither","key_press":65,"name":"choice","trial_type":"html-keyboard-response","trial_index":153,"time_elapsed":255828,"internal_node_id":"0.0-153.0","subject":"S1C0812","sona":"41505","block":5,"time":"2021-09-15T15:53:25.608Z","response":"1st","certainty":"high","char":"A","transposition":-3,"order":["swapped","shifted"],"probe_pitches":[11,9,2,1,3,11,1,3],"shifted_pitches":[11,9,2,1,4,11,1,3],"swapped_pitches":[11,9,2,3,1,11,1,3],"shift_direction":1,"question_num":131,"has_decoy":false},{"rt":1067.199999988079,"stimulus":"[A] option 1, [L] option 2, [G] neither","key_press":76,"name":"choice","trial_type":"html-keyboard-response","trial_index":164,"time_elapsed":274349,"internal_node_id":"0.0-164.0","subject":"S1C0812","sona":"41505","block":5,"time":"2021-09-15T15:53:25.608Z","response":"2nd","certainty":"high","char":"L","transposition":-2,"order":["swapped","shifted"],"probe_pitches":[8,3,1,5,-2,1,10,3],"shifted_pitches":[8,3,1,5,-3,1,10,3],"swapped_pitches":[8,3,1,-2,5,1,10,3],"shift_direction":-1,"question_num":141,"has_decoy":false},{"rt":2103.7000000476837,"stimulus":"[A] option 1, [L] option 2, [G] neither","key_press":71,"name":"choice","trial_type":"html-keyboard-response","trial_index":175,"time_elapsed":292286,"internal_node_id":"0.0-175.0","subject":"S1C0812","sona":"41505","block":5,"time":"2021-09-15T15:53:25.608Z","response":"neither","certainty":"high","char":"G","transposition":-2,"order":["swapped","shifted"],"probe_pitches":[8,12,10,4,9,7,1,11],"shifted_pitches":[8,12,10,5,9,7,1,11],"swapped_pitches":[8,12,10,9,4,7,1,11],"shift_direction":1,"question_num":151,"has_decoy":false},{"rt":1102.5999999642372,"stimulus":"[A] option 1, [L] option 2, [G] neither","key_press":71,"name":"choice","trial_type":"html-keyboard-response","trial_index":186,"time_elapsed":308649,"internal_node_id":"0.0-186.0","subject":"S1C0812","sona":"41505","block":5,"time":"2021-09-15T15:53:25.608Z","response":"neither","certainty":"high","char":"G","transposition":3,"order":["swapped","shifted"],"probe_pitches":[11,10,5,2,1,7,1,6],"shifted_pitches":[11,10,5,2,0,7,1,6],"swapped_pitches":[11,10,5,1,2,7,1,6],"shift_direction":-1,"question_num":161,"has_decoy":false},{"rt":622.8000000119209,"stimulus":"[A] option 1, [L] option 2, [G] neither","key_press":65,"name":"choice","trial_type":"html-keyboard-response","trial_index":197,"time_elapsed":325753,"internal_node_id":"0.0-197.0","subject":"S1C0812","sona":"41505","block":5,"time":"2021-09-15T15:53:25.608Z","response":"1st","certainty":"high","char":"A","transposition":2,"order":["swapped","shifted"],"probe_pitches":[1,5,10,13,7,2,3,12],"shifted_pitches":[1,5,10,13,8,2,3,12],"swapped_pitches":[1,5,10,7,13,2,3,12],"shift_direction":1,"question_num":171,"has_decoy":false},{"rt":2096.900000035763,"stimulus":"[A] option 1, [L] option 2, [G] neither","key_press":76,"name":"choice","trial_type":"html-keyboard-response","trial_index":208,"time_elapsed":343369,"internal_node_id":"0.0-208.0","subject":"S1C0812","sona":"41505","block":5,"time":"2021-09-15T15:53:25.608Z","response":"2nd","certainty":"high","char":"L","transposition":-1,"order":["swapped","shifted"],"probe_pitches":[-2,3,10,7,5,0,10,5],"shifted_pitches":[-2,3,10,7,4,0,10,5],"swapped_pitches":[-2,3,10,5,7,0,10,5],"shift_direction":-1,"question_num":181,"has_decoy":false},{"rt":541.1999999880791,"stimulus":"[A] option 1, [L] option 2, [G] neither","key_press":65,"name":"choice","trial_type":"html-keyboard-response","trial_index":219,"time_elapsed":358963,"internal_node_id":"0.0-219.0","subject":"S1C0812","sona":"41505","block":5,"time":"2021-09-15T15:53:25.608Z","response":"1st","certainty":"high","char":"A","transposition":0,"order":["swapped","shifted"],"probe_pitches":[10,8,3,-2,5,8,0,10],"shifted_pitches":[10,8,3,-1,5,8,0,10],"swapped_pitches":[10,8,3,5,-2,8,0,10],"shift_direction":1,"question_num":191,"has_decoy":false}]