[{"rt":1458.7999999970198,"stimulus":"[A] option 1, [L] option 2, [G] neither","key_press":76,"name":"choice","trial_type":"html-keyboard-response","trial_index":10,"time_elapsed":28416,"internal_node_id":"0.0-10.0","subject":"S1C0839","sona":"41867","block":2,"time":"2021-09-18T18:43:50.203Z","response":"2nd","certainty":"high","char":"L","transposition":3,"order":["swapped","shifted"],"probe_pitches":[7,3,5,-1,6,7,-1,5],"shifted_pitches":[7,3,5,0,6,7,-1,5],"swapped_pitches":[7,3,5,6,-1,7,-1,5],"shift_direction":1,"question_num":1,"has_decoy":false},{"rt":2045.6000000089407,"stimulus":"[A] option 1, [L] option 2, [G] neither","key_press":76,"name":"choice","trial_type":"html-keyboard-response","trial_index":21,"time_elapsed":47841,"internal_node_id":"0.0-21.0","subject":"S1C0839","sona":"41867","block":2,"time":"2021-09-18T18:43:50.203Z","response":"2nd","certainty":"high","char":"L","transposition":-3,"order":["shifted","swapped"],"probe_pitches":[10,15,10,12,5,10,3,7],"shifted_pitches":[10,15,10,13,5,10,3,7],"swapped_pitches":[10,15,10,5,12,10,3,7],"shift_direction":1,"question_num":11,"has_decoy":false},{"rt":4245.0999999940395,"stimulus":"[A] option 1, [L] option 2, [G] neither","key_press":76,"name":"choice","trial_type":"html-keyboard-response","trial_index":32,"time_elapsed":67236,"internal_node_id":"0.0-32.0","subject":"S1C0839","sona":"41867","block":2,"time":"2021-09-18T18:43:50.203Z","response":"2nd","certainty":"high","char":"L","transposition":1,"order":["swapped","shifted"],"probe_pitches":[13,8,5,13,15,5,13,10],"shifted_pitches":[13,8,5,12,15,5,13,10],"swapped_pitches":[13,8,5,15,13,5,13,10],"shift_direction":-1,"question_num":21,"has_decoy":false},{"rt":7019.29999999702,"stimulus":"[A] option 1, [L] option 2, [G] neither","key_press":76,"name":"choice","trial_type":"html-keyboard-response","trial_index":43,"time_elapsed":89277,"internal_node_id":"0.0-43.0","subject":"S1C0839","sona":"41867","block":2,"time":"2021-09-18T18:43:50.203Z","response":"2nd","certainty":"high","char":"L","transposition":-3,"order":["shifted","swapped"],"probe_pitches":[1,5,10,4,6,2,0,10],"shifted_pitches":[1,5,10,3,6,2,0,10],"swapped_pitches":[1,5,10,6,4,2,0,10],"shift_direction":-1,"question_num":31,"has_decoy":false},{"rt":9698.60000000894,"stimulus":"[A] option 1, [L] option 2, [G] neither","key_press":71,"name":"choice","trial_type":"html-keyboard-response","trial_index":54,"time_elapsed":117735,"internal_node_id":"0.0-54.0","subject":"S1C0839","sona":"41867","block":2,"time":"2021-09-18T18:43:50.203Z","response":"neither","certainty":"high","char":"G","transposition":-3,"order":["shifted","swapped"],"probe_pitches":[11,13,15,8,3,11,6,13],"shifted_pitches":[11,13,15,9,3,11,6,13],"swapped_pitches":[11,13,15,3,8,11,6,13],"shift_direction":1,"question_num":41,"has_decoy":false},{"rt":3855.800000011921,"stimulus":"[A] option 1, [L] option 2, [G] neither","key_press":76,"name":"choice","trial_type":"html-keyboard-response","trial_index":65,"time_elapsed":139409,"internal_node_id":"0.0-65.0","subject":"S1C0839","sona":"41867","block":2,"time":"2021-09-18T18:43:50.203Z","response":"2nd","certainty":"high","char":"L","transposition":-1,"order":["swapped","shifted"],"probe_pitches":[0,6,7,6,3,2,1,9],"shifted_pitches":[0,6,7,5,3,2,1,9],"swapped_pitches":[0,6,7,3,6,2,1,9],"shift_direction":-1,"question_num":51,"has_decoy":false},{"rt":3032.199999988079,"stimulus":"[A] option 1, [L] option 2, [G] neither","key_press":71,"name":"choice","trial_type":"html-keyboard-response","trial_index":76,"time_elapsed":160500,"internal_node_id":"0.0-76.0","subject":"S1C0839","sona":"41867","block":2,"time":"2021-09-18T18:43:50.203Z","response":"neither","certainty":"high","char":"G","transposition":-1,"order":["shifted","swapped"],"probe_pitches":[5,3,5,12,10,15,12,8],"shifted_pitches":[5,3,5,11,10,15,12,8],"swapped_pitches":[5,3,5,10,12,15,12,8],"shift_direction":-1,"question_num":61,"has_decoy":false},{"rt":1956.7999999970198,"stimulus":"[A] option 1, [L] option 2, [G] neither","key_press":65,"name":"choice","trial_type":"html-keyboard-response","trial_index":87,"time_elapsed":225070,"internal_node_id":"0.0-87.0","subject":"S1C0839","sona":"41867","block":2,"time":"2021-09-18T18:43:50.203Z","response":"1st","certainty":"high","char":"A","transposition":-3,"order":["shifted","swapped"],"probe_pitches":[4,9,7,8,3,7,-2,7],"shifted_pitches":[4,9,7,8,2,7,-2,7],"swapped_pitches":[4,9,7,3,8,7,-2,7],"shift_direction":-1,"question_num":71,"has_decoy":false},{"rt":1552.1000000089407,"stimulus":"[A] option 1, [L] option 2, [G] neither","key_press":65,"name":"choice","trial_type":"html-keyboard-response","trial_index":98,"time_elapsed":243974,"internal_node_id":"0.0-98.0","subject":"S1C0839","sona":"41867","block":2,"time":"2021-09-18T18:43:50.203Z","response":"1st","certainty":"high","char":"A","transposition":3,"order":["swapped","shifted"],"probe_pitches":[6,11,15,11,13,6,13,8],"shifted_pitches":[6,11,15,11,14,6,13,8],"swapped_pitches":[6,11,15,13,11,6,13,8],"shift_direction":1,"question_num":81,"has_decoy":false},{"rt":6344.9000000059605,"stimulus":"[A] option 1, [L] option 2, [G] neither","key_press":71,"name":"choice","trial_type":"html-keyboard-response","trial_index":109,"time_elapsed":269932,"internal_node_id":"0.0-109.0","subject":"S1C0839","sona":"41867","block":2,"time":"2021-09-18T18:43:50.203Z","response":"neither","certainty":"high","char":"G","transposition":1,"order":["swapped","shifted"],"probe_pitches":[4,8,10,9,5,1,5,10],"shifted_pitches":[4,8,10,9,6,1,5,10],"swapped_pitches":[4,8,10,5,9,1,5,10],"shift_direction":1,"question_num":91,"has_decoy":false},{"rt":2584,"stimulus":"[A] option 1, [L] option 2, [G] neither","key_press":76,"name":"choice","trial_type":"html-keyboard-response","trial_index":120,"time_elapsed":291215,"internal_node_id":"0.0-120.0","subject":"S1C0839","sona":"41867","block":2,"time":"2021-09-18T18:43:50.203Z","response":"2nd","certainty":"high","char":"L","transposition":0,"order":["shifted","swapped"],"probe_pitches":[10,8,2,-1,3,2,10,6],"shifted_pitches":[10,8,2,-1,4,2,10,6],"swapped_pitches":[10,8,2,3,-1,2,10,6],"shift_direction":1,"question_num":101,"has_decoy":false},{"rt":1854.199999988079,"stimulus":"[A] option 1, [L] option 2, [G] neither","key_press":65,"name":"choice","trial_type":"html-keyboard-response","trial_index":131,"time_elapsed":335220,"internal_node_id":"0.0-131.0","subject":"S1C0839","sona":"41867","block":2,"time":"2021-09-18T18:43:50.203Z","response":"1st","certainty":"high","char":"A","transposition":0,"order":["swapped","shifted"],"probe_pitches":[3,6,8,13,6,8,3,10],"shifted_pitches":[3,6,8,13,5,8,3,10],"swapped_pitches":[3,6,8,6,13,8,3,10],"shift_direction":-1,"question_num":111,"has_decoy":false},{"rt":3361.1000000089407,"stimulus":"[A] option 1, [L] option 2, [G] neither","key_press":71,"name":"choice","trial_type":"html-keyboard-response","trial_index":142,"time_elapsed":355466,"internal_node_id":"0.0-142.0","subject":"S1C0839","sona":"41867","block":2,"time":"2021-09-18T18:43:50.203Z","response":"neither","certainty":"high","char":"G","transposition":-2,"order":["shifted","swapped"],"probe_pitches":[7,3,6,8,5,-2,-1,4],"shifted_pitches":[7,3,6,9,5,-2,-1,4],"swapped_pitches":[7,3,6,5,8,-2,-1,4],"shift_direction":1,"question_num":121,"has_decoy":false},{"rt":1892.8999999910593,"stimulus":"[A] option 1, [L] option 2, [G] neither","key_press":65,"name":"choice","trial_type":"html-keyboard-response","trial_index":153,"time_elapsed":372452,"internal_node_id":"0.0-153.0","subject":"S1C0839","sona":"41867","block":2,"time":"2021-09-18T18:43:50.203Z","response":"1st","certainty":"high","char":"A","transposition":-2,"order":["shifted","swapped"],"probe_pitches":[3,5,8,3,10,8,10,12],"shifted_pitches":[3,5,8,3,11,8,10,12],"swapped_pitches":[3,5,8,10,3,8,10,12],"shift_direction":1,"question_num":131,"has_decoy":false},{"rt":1336.300000011921,"stimulus":"[A] option 1, [L] option 2, [G] neither","key_press":65,"name":"choice","trial_type":"html-keyboard-response","trial_index":164,"time_elapsed":434229,"internal_node_id":"0.0-164.0","subject":"S1C0839","sona":"41867","block":2,"time":"2021-09-18T18:43:50.203Z","response":"1st","certainty":"high","char":"A","transposition":2,"order":["swapped","shifted"],"probe_pitches":[6,2,5,9,6,5,0,-1],"shifted_pitches":[6,2,5,8,6,5,0,-1],"swapped_pitches":[6,2,5,6,9,5,0,-1],"shift_direction":-1,"question_num":141,"has_decoy":false},{"rt":1691.1000000089407,"stimulus":"[A] option 1, [L] option 2, [G] neither","key_press":65,"name":"choice","trial_type":"html-keyboard-response","trial_index":175,"time_elapsed":457009,"internal_node_id":"0.0-175.0","subject":"S1C0839","sona":"41867","block":2,"time":"2021-09-18T18:43:50.203Z","response":"1st","certainty":"high","char":"A","transposition":-1,"order":["swapped","shifted"],"probe_pitches":[2,-1,1,-1,8,10,-1,4],"shifted_pitches":[2,-1,1,-1,7,10,-1,4],"swapped_pitches":[2,-1,1,8,-1,10,-1,4],"shift_direction":-1,"question_num":151,"has_decoy":false},{"rt":4326.399999991059,"stimulus":"[A] option 1, [L] option 2, [G] neither","key_press":76,"name":"choice","trial_type":"html-keyboard-response","trial_index":186,"time_elapsed":476984,"internal_node_id":"0.0-186.0","subject":"S1C0839","sona":"41867","block":2,"time":"2021-09-18T18:43:50.203Z","response":"2nd","certainty":"high","char":"L","transposition":-2,"order":["shifted","swapped"],"probe_pitches":[3,8,15,13,10,8,15,5],"shifted_pitches":[3,8,15,12,10,8,15,5],"swapped_pitches":[3,8,15,10,13,8,15,5],"shift_direction":-1,"question_num":161,"has_decoy":false},{"rt":1808.2000000029802,"stimulus":"[A] option 1, [L] option 2, [G] neither","key_press":65,"name":"choice","trial_type":"html-keyboard-response","trial_index":197,"time_elapsed":509088,"internal_node_id":"0.0-197.0","subject":"S1C0839","sona":"41867","block":2,"time":"2021-09-18T18:43:50.203Z","response":"1st","certainty":"high","char":"A","transposition":-2,"order":["shifted","swapped"],"probe_pitches":[4,6,5,2,0,-1,2,4],"shifted_pitches":[4,6,5,2,1,-1,2,4],"swapped_pitches":[4,6,5,0,2,-1,2,4],"shift_direction":1,"question_num":171,"has_decoy":false},{"rt":1956.0999999940395,"stimulus":"[A] option 1, [L] option 2, [G] neither","key_press":65,"name":"choice","trial_type":"html-keyboard-response","trial_index":208,"time_elapsed":526989,"internal_node_id":"0.0-208.0","subject":"S1C0839","sona":"41867","block":2,"time":"2021-09-18T18:43:50.203Z","response":"1st","certainty":"high","char":"A","transposition":2,"order":["swapped","shifted"],"probe_pitches":[13,10,15,8,13,6,8,6],"shifted_pitches":[13,10,15,8,12,6,8,6],"swapped_pitches":[13,10,15,13,8,6,8,6],"shift_direction":-1,"question_num":181,"has_decoy":false},{"rt":1614,"stimulus":"[A] option 1, [L] option 2, [G] neither","key_press":65,"name":"choice","trial_type":"html-keyboard-response","trial_index":219,"time_elapsed":544439,"internal_node_id":"0.0-219.0","subject":"S1C0839","sona":"41867","block":2,"time":"2021-09-18T18:43:50.203Z","response":"1st","certainty":"high","char":"A","transposition":-1,"order":["swapped","shifted"],"probe_pitches":[5,3,10,5,7,3,12,10],"shifted_pitches":[5,3,10,5,8,3,12,10],"swapped_pitches":[5,3,10,7,5,3,12,10],"shift_direction":1,"question_num":191,"has_decoy":false}]