[{"rt":1673.699999988079,"stimulus":"[A] option 1, [L] option 2, [G] neither","key_press":65,"name":"choice","trial_type":"html-keyboard-response","trial_index":10,"time_elapsed":88760,"internal_node_id":"0.0-10.0","subject":"S1C0839","sona":"41867","block":3,"time":"2021-09-18T18:55:02.014Z","response":"1st","certainty":"high","char":"A","transposition":-3,"order":["swapped","shifted"],"probe_pitches":[7,5,8,5,1,2,3,-1],"shifted_pitches":[7,5,8,5,0,2,3,-1],"swapped_pitches":[7,5,8,1,5,2,3,-1],"shift_direction":-1,"question_num":1,"has_decoy":false},{"rt":3540.8999999910593,"stimulus":"[A] option 1, [L] option 2, [G] neither","key_press":76,"name":"choice","trial_type":"html-keyboard-response","trial_index":21,"time_elapsed":111654,"internal_node_id":"0.0-21.0","subject":"S1C0839","sona":"41867","block":3,"time":"2021-09-18T18:55:02.014Z","response":"2nd","certainty":"high","char":"L","transposition":-1,"order":["shifted","swapped"],"probe_pitches":[3,6,-1,6,3,8,1,6],"shifted_pitches":[3,6,-1,6,2,8,1,6],"swapped_pitches":[3,6,-1,3,6,8,1,6],"shift_direction":-1,"question_num":11,"has_decoy":false},{"rt":2526.7999999970198,"stimulus":"[A] option 1, [L] option 2, [G] neither","key_press":65,"name":"choice","trial_type":"html-keyboard-response","trial_index":32,"time_elapsed":134592,"internal_node_id":"0.0-32.0","subject":"S1C0839","sona":"41867","block":3,"time":"2021-09-18T18:55:02.014Z","response":"1st","certainty":"high","char":"A","transposition":-2,"order":["swapped","shifted"],"probe_pitches":[-1,2,9,5,3,-3,-2,-3],"shifted_pitches":[-1,2,9,5,4,-3,-2,-3],"swapped_pitches":[-1,2,9,3,5,-3,-2,-3],"shift_direction":1,"question_num":21,"has_decoy":false},{"rt":1640.3999999910593,"stimulus":"[A] option 1, [L] option 2, [G] neither","key_press":65,"name":"choice","trial_type":"html-keyboard-response","trial_index":43,"time_elapsed":152409,"internal_node_id":"0.0-43.0","subject":"S1C0839","sona":"41867","block":3,"time":"2021-09-18T18:55:02.014Z","response":"1st","certainty":"high","char":"A","transposition":2,"order":["swapped","shifted"],"probe_pitches":[2,-1,2,9,6,4,-1,4],"shifted_pitches":[2,-1,2,9,5,4,-1,4],"swapped_pitches":[2,-1,2,6,9,4,-1,4],"shift_direction":-1,"question_num":31,"has_decoy":false},{"rt":2609.8999999910593,"stimulus":"[A] option 1, [L] option 2, [G] neither","key_press":65,"name":"choice","trial_type":"html-keyboard-response","trial_index":54,"time_elapsed":174428,"internal_node_id":"0.0-54.0","subject":"S1C0839","sona":"41867","block":3,"time":"2021-09-18T18:55:02.014Z","response":"1st","certainty":"high","char":"A","transposition":2,"order":["shifted","swapped"],"probe_pitches":[4,9,5,3,0,7,0,8],"shifted_pitches":[4,9,5,2,0,7,0,8],"swapped_pitches":[4,9,5,0,3,7,0,8],"shift_direction":-1,"question_num":41,"has_decoy":false},{"rt":3392.9000000059605,"stimulus":"[A] option 1, [L] option 2, [G] neither","key_press":76,"name":"choice","trial_type":"html-keyboard-response","trial_index":65,"time_elapsed":200458,"internal_node_id":"0.0-65.0","subject":"S1C0839","sona":"41867","block":3,"time":"2021-09-18T18:55:02.014Z","response":"2nd","certainty":"high","char":"L","transposition":1,"order":["swapped","shifted"],"probe_pitches":[-2,-3,3,2,0,7,5,9],"shifted_pitches":[-2,-3,3,2,1,7,5,9],"swapped_pitches":[-2,-3,3,0,2,7,5,9],"shift_direction":1,"question_num":51,"has_decoy":false},{"rt":2686.5,"stimulus":"[A] option 1, [L] option 2, [G] neither","key_press":76,"name":"choice","trial_type":"html-keyboard-response","trial_index":76,"time_elapsed":225962,"internal_node_id":"0.0-76.0","subject":"S1C0839","sona":"41867","block":3,"time":"2021-09-18T18:55:02.014Z","response":"2nd","certainty":"high","char":"L","transposition":-3,"order":["shifted","swapped"],"probe_pitches":[1,3,1,3,8,-1,6,3],"shifted_pitches":[1,3,1,4,8,-1,6,3],"swapped_pitches":[1,3,1,8,3,-1,6,3],"shift_direction":1,"question_num":61,"has_decoy":false},{"rt":1383.4000000059605,"stimulus":"[A] option 1, [L] option 2, [G] neither","key_press":76,"name":"choice","trial_type":"html-keyboard-response","trial_index":87,"time_elapsed":243480,"internal_node_id":"0.0-87.0","subject":"S1C0839","sona":"41867","block":3,"time":"2021-09-18T18:55:02.014Z","response":"2nd","certainty":"high","char":"L","transposition":-2,"order":["shifted","swapped"],"probe_pitches":[11,6,-1,4,8,6,1,11],"shifted_pitches":[11,6,-1,5,8,6,1,11],"swapped_pitches":[11,6,-1,8,4,6,1,11],"shift_direction":1,"question_num":71,"has_decoy":false},{"rt":2207.7000000029802,"stimulus":"[A] option 1, [L] option 2, [G] neither","key_press":76,"name":"choice","trial_type":"html-keyboard-response","trial_index":98,"time_elapsed":261226,"internal_node_id":"0.0-98.0","subject":"S1C0839","sona":"41867","block":3,"time":"2021-09-18T18:55:02.014Z","response":"2nd","certainty":"high","char":"L","transposition":-3,"order":["shifted","swapped"],"probe_pitches":[-3,2,1,-3,3,4,0,9],"shifted_pitches":[-3,2,1,-4,3,4,0,9],"swapped_pitches":[-3,2,1,3,-3,4,0,9],"shift_direction":-1,"question_num":81,"has_decoy":false},{"rt":3266.6000000089407,"stimulus":"[A] option 1, [L] option 2, [G] neither","key_press":65,"name":"choice","trial_type":"html-keyboard-response","trial_index":109,"time_elapsed":282318,"internal_node_id":"0.0-109.0","subject":"S1C0839","sona":"41867","block":3,"time":"2021-09-18T18:55:02.014Z","response":"1st","certainty":"high","char":"A","transposition":3,"order":["shifted","swapped"],"probe_pitches":[5,1,-2,6,3,0,-1,6],"shifted_pitches":[5,1,-2,7,3,0,-1,6],"swapped_pitches":[5,1,-2,3,6,0,-1,6],"shift_direction":1,"question_num":91,"has_decoy":false},{"rt":1807.7000000029802,"stimulus":"[A] option 1, [L] option 2, [G] neither","key_press":65,"name":"choice","trial_type":"html-keyboard-response","trial_index":120,"time_elapsed":308614,"internal_node_id":"0.0-120.0","subject":"S1C0839","sona":"41867","block":3,"time":"2021-09-18T18:55:02.014Z","response":"1st","certainty":"high","char":"A","transposition":-3,"order":["shifted","swapped"],"probe_pitches":[-1,2,4,11,9,7,4,11],"shifted_pitches":[-1,2,4,11,10,7,4,11],"swapped_pitches":[-1,2,4,9,11,7,4,11],"shift_direction":1,"question_num":101,"has_decoy":false},{"rt":5766.5,"stimulus":"[A] option 1, [L] option 2, [G] neither","key_press":71,"name":"choice","trial_type":"html-keyboard-response","trial_index":131,"time_elapsed":329919,"internal_node_id":"0.0-131.0","subject":"S1C0839","sona":"41867","block":3,"time":"2021-09-18T18:55:02.014Z","response":"neither","certainty":"high","char":"G","transposition":1,"order":["swapped","shifted"],"probe_pitches":[-1,2,-1,6,9,11,2,4],"shifted_pitches":[-1,2,-1,7,9,11,2,4],"swapped_pitches":[-1,2,-1,9,6,11,2,4],"shift_direction":1,"question_num":111,"has_decoy":false},{"rt":1957.7000000029802,"stimulus":"[A] option 1, [L] option 2, [G] neither","key_press":65,"name":"choice","trial_type":"html-keyboard-response","trial_index":142,"time_elapsed":380649,"internal_node_id":"0.0-142.0","subject":"S1C0839","sona":"41867","block":3,"time":"2021-09-18T18:55:02.014Z","response":"1st","certainty":"high","char":"A","transposition":0,"order":["swapped","shifted"],"probe_pitches":[11,9,11,6,9,4,6,1],"shifted_pitches":[11,9,11,5,9,4,6,1],"swapped_pitches":[11,9,11,9,6,4,6,1],"shift_direction":-1,"question_num":121,"has_decoy":false},{"rt":8787.70000000298,"stimulus":"[A] option 1, [L] option 2, [G] neither","key_press":71,"name":"choice","trial_type":"html-keyboard-response","trial_index":153,"time_elapsed":458928,"internal_node_id":"0.0-153.0","subject":"S1C0839","sona":"41867","block":3,"time":"2021-09-18T18:55:02.014Z","response":"neither","certainty":"high","char":"G","transposition":-1,"order":["shifted","swapped"],"probe_pitches":[9,4,-3,-1,7,-3,1,0],"shifted_pitches":[9,4,-3,-1,6,-3,1,0],"swapped_pitches":[9,4,-3,7,-1,-3,1,0],"shift_direction":-1,"question_num":131,"has_decoy":false},{"rt":1709.2999999970198,"stimulus":"[A] option 1, [L] option 2, [G] neither","key_press":65,"name":"choice","trial_type":"html-keyboard-response","trial_index":164,"time_elapsed":478594,"internal_node_id":"0.0-164.0","subject":"S1C0839","sona":"41867","block":3,"time":"2021-09-18T18:55:02.014Z","response":"1st","certainty":"high","char":"A","transposition":-2,"order":["swapped","shifted"],"probe_pitches":[2,7,1,4,8,6,9,6],"shifted_pitches":[2,7,1,5,8,6,9,6],"swapped_pitches":[2,7,1,8,4,6,9,6],"shift_direction":1,"question_num":141,"has_decoy":false},{"rt":4492.20000000298,"stimulus":"[A] option 1, [L] option 2, [G] neither","key_press":71,"name":"choice","trial_type":"html-keyboard-response","trial_index":175,"time_elapsed":507994,"internal_node_id":"0.0-175.0","subject":"S1C0839","sona":"41867","block":3,"time":"2021-09-18T18:55:02.014Z","response":"neither","certainty":"high","char":"G","transposition":-1,"order":["swapped","shifted"],"probe_pitches":[4,2,1,-2,4,6,5,7],"shifted_pitches":[4,2,1,-1,4,6,5,7],"swapped_pitches":[4,2,1,4,-2,6,5,7],"shift_direction":1,"question_num":151,"has_decoy":false},{"rt":3318.9000000059605,"stimulus":"[A] option 1, [L] option 2, [G] neither","key_press":65,"name":"choice","trial_type":"html-keyboard-response","trial_index":186,"time_elapsed":530848,"internal_node_id":"0.0-186.0","subject":"S1C0839","sona":"41867","block":3,"time":"2021-09-18T18:55:02.014Z","response":"1st","certainty":"high","char":"A","transposition":-1,"order":["shifted","swapped"],"probe_pitches":[6,9,11,6,-1,1,4,11],"shifted_pitches":[6,9,11,5,-1,1,4,11],"swapped_pitches":[6,9,11,-1,6,1,4,11],"shift_direction":-1,"question_num":161,"has_decoy":false},{"rt":3880.4000000059605,"stimulus":"[A] option 1, [L] option 2, [G] neither","key_press":76,"name":"choice","trial_type":"html-keyboard-response","trial_index":197,"time_elapsed":550410,"internal_node_id":"0.0-197.0","subject":"S1C0839","sona":"41867","block":3,"time":"2021-09-18T18:55:02.014Z","response":"2nd","certainty":"high","char":"L","transposition":-2,"order":["swapped","shifted"],"probe_pitches":[9,4,9,7,11,9,2,7],"shifted_pitches":[9,4,9,7,12,9,2,7],"swapped_pitches":[9,4,9,11,7,9,2,7],"shift_direction":1,"question_num":171,"has_decoy":false},{"rt":3229.6000000089407,"stimulus":"[A] option 1, [L] option 2, [G] neither","key_press":65,"name":"choice","trial_type":"html-keyboard-response","trial_index":208,"time_elapsed":590463,"internal_node_id":"0.0-208.0","subject":"S1C0839","sona":"41867","block":3,"time":"2021-09-18T18:55:02.014Z","response":"1st","certainty":"high","char":"A","transposition":0,"order":["shifted","swapped"],"probe_pitches":[-1,-2,2,9,4,5,-3,4],"shifted_pitches":[-1,-2,2,9,3,5,-3,4],"swapped_pitches":[-1,-2,2,4,9,5,-3,4],"shift_direction":-1,"question_num":181,"has_decoy":false},{"rt":1781.7000000029802,"stimulus":"[A] option 1, [L] option 2, [G] neither","key_press":65,"name":"choice","trial_type":"html-keyboard-response","trial_index":219,"time_elapsed":608358,"internal_node_id":"0.0-219.0","subject":"S1C0839","sona":"41867","block":3,"time":"2021-09-18T18:55:02.014Z","response":"1st","certainty":"high","char":"A","transposition":3,"order":["swapped","shifted"],"probe_pitches":[1,4,1,6,8,1,11,4],"shifted_pitches":[1,4,1,6,7,1,11,4],"swapped_pitches":[1,4,1,8,6,1,11,4],"shift_direction":-1,"question_num":191,"has_decoy":false}]