[{"rt":1103.0999999940395,"stimulus":"[A] option 1, [L] option 2, [G] neither","key_press":76,"name":"choice","trial_type":"html-keyboard-response","trial_index":10,"time_elapsed":21319,"internal_node_id":"0.0-10.0","subject":"S1C0839","sona":"41867","block":4,"time":"2021-09-18T19:03:15.347Z","response":"2nd","certainty":"high","char":"L","transposition":-3,"order":["swapped","shifted"],"probe_pitches":[-1,4,7,4,1,9,-2,2],"shifted_pitches":[-1,4,7,3,1,9,-2,2],"swapped_pitches":[-1,4,7,1,4,9,-2,2],"shift_direction":-1,"question_num":1,"has_decoy":false},{"rt":2102.8999999910593,"stimulus":"[A] option 1, [L] option 2, [G] neither","key_press":76,"name":"choice","trial_type":"html-keyboard-response","trial_index":21,"time_elapsed":38637,"internal_node_id":"0.0-21.0","subject":"S1C0839","sona":"41867","block":4,"time":"2021-09-18T19:03:15.347Z","response":"2nd","certainty":"high","char":"L","transposition":1,"order":["shifted","swapped"],"probe_pitches":[10,7,2,7,0,-2,5,2],"shifted_pitches":[10,7,2,8,0,-2,5,2],"swapped_pitches":[10,7,2,0,7,-2,5,2],"shift_direction":1,"question_num":11,"has_decoy":false},{"rt":2712.4000000059605,"stimulus":"[A] option 1, [L] option 2, [G] neither","key_press":65,"name":"choice","trial_type":"html-keyboard-response","trial_index":32,"time_elapsed":58758,"internal_node_id":"0.0-32.0","subject":"S1C0839","sona":"41867","block":4,"time":"2021-09-18T19:03:15.347Z","response":"1st","certainty":"high","char":"A","transposition":-2,"order":["shifted","swapped"],"probe_pitches":[8,2,4,7,1,4,9,8],"shifted_pitches":[8,2,4,7,0,4,9,8],"swapped_pitches":[8,2,4,1,7,4,9,8],"shift_direction":-1,"question_num":21,"has_decoy":false},{"rt":2563.2999999970198,"stimulus":"[A] option 1, [L] option 2, [G] neither","key_press":76,"name":"choice","trial_type":"html-keyboard-response","trial_index":43,"time_elapsed":79490,"internal_node_id":"0.0-43.0","subject":"S1C0839","sona":"41867","block":4,"time":"2021-09-18T19:03:15.347Z","response":"2nd","certainty":"high","char":"L","transposition":-2,"order":["swapped","shifted"],"probe_pitches":[6,8,7,1,3,2,9,-2],"shifted_pitches":[6,8,7,1,4,2,9,-2],"swapped_pitches":[6,8,7,3,1,2,9,-2],"shift_direction":1,"question_num":31,"has_decoy":false},{"rt":13424,"stimulus":"[A] option 1, [L] option 2, [G] neither","key_press":76,"name":"choice","trial_type":"html-keyboard-response","trial_index":54,"time_elapsed":107987,"internal_node_id":"0.0-54.0","subject":"S1C0839","sona":"41867","block":4,"time":"2021-09-18T19:03:15.347Z","response":"2nd","certainty":"high","char":"L","transposition":0,"order":["swapped","shifted"],"probe_pitches":[3,-2,3,8,1,3,6,1],"shifted_pitches":[3,-2,3,8,2,3,6,1],"swapped_pitches":[3,-2,3,1,8,3,6,1],"shift_direction":1,"question_num":41,"has_decoy":false},{"rt":1120.2999999970198,"stimulus":"[A] option 1, [L] option 2, [G] neither","key_press":65,"name":"choice","trial_type":"html-keyboard-response","trial_index":65,"time_elapsed":125110,"internal_node_id":"0.0-65.0","subject":"S1C0839","sona":"41867","block":4,"time":"2021-09-18T19:03:15.347Z","response":"1st","certainty":"high","char":"A","transposition":-3,"order":["swapped","shifted"],"probe_pitches":[5,2,-2,2,0,7,5,2],"shifted_pitches":[5,2,-2,3,0,7,5,2],"swapped_pitches":[5,2,-2,0,2,7,5,2],"shift_direction":1,"question_num":51,"has_decoy":false},{"rt":8885.60000000894,"stimulus":"[A] option 1, [L] option 2, [G] neither","key_press":76,"name":"choice","trial_type":"html-keyboard-response","trial_index":76,"time_elapsed":149751,"internal_node_id":"0.0-76.0","subject":"S1C0839","sona":"41867","block":4,"time":"2021-09-18T19:03:15.347Z","response":"2nd","certainty":"high","char":"L","transposition":-1,"order":["shifted","swapped"],"probe_pitches":[-3,1,3,-2,-3,5,3,7],"shifted_pitches":[-3,1,3,-2,-4,5,3,7],"swapped_pitches":[-3,1,3,-3,-2,5,3,7],"shift_direction":-1,"question_num":61,"has_decoy":false},{"rt":1898.699999988079,"stimulus":"[A] option 1, [L] option 2, [G] neither","key_press":65,"name":"choice","trial_type":"html-keyboard-response","trial_index":87,"time_elapsed":171615,"internal_node_id":"0.0-87.0","subject":"S1C0839","sona":"41867","block":4,"time":"2021-09-18T19:03:15.347Z","response":"1st","certainty":"high","char":"A","transposition":1,"order":["swapped","shifted"],"probe_pitches":[2,4,1,6,2,8,2,9],"shifted_pitches":[2,4,1,7,2,8,2,9],"swapped_pitches":[2,4,1,2,6,8,2,9],"shift_direction":1,"question_num":71,"has_decoy":false},{"rt":1843,"stimulus":"[A] option 1, [L] option 2, [G] neither","key_press":65,"name":"choice","trial_type":"html-keyboard-response","trial_index":98,"time_elapsed":189428,"internal_node_id":"0.0-98.0","subject":"S1C0839","sona":"41867","block":4,"time":"2021-09-18T19:03:15.347Z","response":"1st","certainty":"high","char":"A","transposition":3,"order":["swapped","shifted"],"probe_pitches":[1,2,4,-2,7,0,9,0],"shifted_pitches":[1,2,4,-2,6,0,9,0],"swapped_pitches":[1,2,4,7,-2,0,9,0],"shift_direction":-1,"question_num":81,"has_decoy":false},{"rt":1598.2999999970198,"stimulus":"[A] option 1, [L] option 2, [G] neither","key_press":65,"name":"choice","trial_type":"html-keyboard-response","trial_index":109,"time_elapsed":206303,"internal_node_id":"0.0-109.0","subject":"S1C0839","sona":"41867","block":4,"time":"2021-09-18T19:03:15.347Z","response":"1st","certainty":"high","char":"A","transposition":-3,"order":["shifted","swapped"],"probe_pitches":[-2,3,-2,1,6,10,8,6],"shifted_pitches":[-2,3,-2,2,6,10,8,6],"swapped_pitches":[-2,3,-2,6,1,10,8,6],"shift_direction":1,"question_num":91,"has_decoy":false},{"rt":5448.100000008941,"stimulus":"[A] option 1, [L] option 2, [G] neither","key_press":71,"name":"choice","trial_type":"html-keyboard-response","trial_index":120,"time_elapsed":228015,"internal_node_id":"0.0-120.0","subject":"S1C0839","sona":"41867","block":4,"time":"2021-09-18T19:03:15.347Z","response":"neither","certainty":"high","char":"G","transposition":2,"order":["shifted","swapped"],"probe_pitches":[5,10,8,1,3,8,1,-2],"shifted_pitches":[5,10,8,1,2,8,1,-2],"swapped_pitches":[5,10,8,3,1,8,1,-2],"shift_direction":-1,"question_num":101,"has_decoy":false},{"rt":2274.5,"stimulus":"[A] option 1, [L] option 2, [G] neither","key_press":65,"name":"choice","trial_type":"html-keyboard-response","trial_index":131,"time_elapsed":271149,"internal_node_id":"0.0-131.0","subject":"S1C0839","sona":"41867","block":4,"time":"2021-09-18T19:03:15.347Z","response":"1st","certainty":"high","char":"A","transposition":-1,"order":["shifted","swapped"],"probe_pitches":[7,6,7,2,-3,7,0,9],"shifted_pitches":[7,6,7,1,-3,7,0,9],"swapped_pitches":[7,6,7,-3,2,7,0,9],"shift_direction":-1,"question_num":111,"has_decoy":false},{"rt":2296.5,"stimulus":"[A] option 1, [L] option 2, [G] neither","key_press":76,"name":"choice","trial_type":"html-keyboard-response","trial_index":142,"time_elapsed":288697,"internal_node_id":"0.0-142.0","subject":"S1C0839","sona":"41867","block":4,"time":"2021-09-18T19:03:15.347Z","response":"2nd","certainty":"high","char":"L","transposition":-2,"order":["swapped","shifted"],"probe_pitches":[10,7,3,-2,0,5,7,3],"shifted_pitches":[10,7,3,-2,1,5,7,3],"swapped_pitches":[10,7,3,0,-2,5,7,3],"shift_direction":1,"question_num":121,"has_decoy":false},{"rt":1754,"stimulus":"[A] option 1, [L] option 2, [G] neither","key_press":76,"name":"choice","trial_type":"html-keyboard-response","trial_index":153,"time_elapsed":305436,"internal_node_id":"0.0-153.0","subject":"S1C0839","sona":"41867","block":4,"time":"2021-09-18T19:03:15.347Z","response":"2nd","certainty":"high","char":"L","transposition":-3,"order":["shifted","swapped"],"probe_pitches":[-2,-3,4,-2,0,2,3,1],"shifted_pitches":[-2,-3,4,-1,0,2,3,1],"swapped_pitches":[-2,-3,4,0,-2,2,3,1],"shift_direction":1,"question_num":131,"has_decoy":false},{"rt":3454.5999999940395,"stimulus":"[A] option 1, [L] option 2, [G] neither","key_press":65,"name":"choice","trial_type":"html-keyboard-response","trial_index":164,"time_elapsed":324471,"internal_node_id":"0.0-164.0","subject":"S1C0839","sona":"41867","block":4,"time":"2021-09-18T19:03:15.347Z","response":"1st","certainty":"high","char":"A","transposition":-1,"order":["swapped","shifted"],"probe_pitches":[3,5,8,0,-2,3,-2,5],"shifted_pitches":[3,5,8,0,-3,3,-2,5],"swapped_pitches":[3,5,8,-2,0,3,-2,5],"shift_direction":-1,"question_num":141,"has_decoy":false},{"rt":1662.7999999970198,"stimulus":"[A] option 1, [L] option 2, [G] neither","key_press":65,"name":"choice","trial_type":"html-keyboard-response","trial_index":175,"time_elapsed":341447,"internal_node_id":"0.0-175.0","subject":"S1C0839","sona":"41867","block":4,"time":"2021-09-18T19:03:15.347Z","response":"1st","certainty":"high","char":"A","transposition":3,"order":["swapped","shifted"],"probe_pitches":[7,10,7,10,3,0,5,7],"shifted_pitches":[7,10,7,9,3,0,5,7],"swapped_pitches":[7,10,7,3,10,0,5,7],"shift_direction":-1,"question_num":151,"has_decoy":false},{"rt":1512.7000000029802,"stimulus":"[A] option 1, [L] option 2, [G] neither","key_press":65,"name":"choice","trial_type":"html-keyboard-response","trial_index":186,"time_elapsed":360001,"internal_node_id":"0.0-186.0","subject":"S1C0839","sona":"41867","block":4,"time":"2021-09-18T19:03:15.347Z","response":"1st","certainty":"high","char":"A","transposition":2,"order":["swapped","shifted"],"probe_pitches":[-1,0,4,8,1,5,9,5],"shifted_pitches":[-1,0,4,8,2,5,9,5],"swapped_pitches":[-1,0,4,1,8,5,9,5],"shift_direction":1,"question_num":161,"has_decoy":false},{"rt":3043.7999999970198,"stimulus":"[A] option 1, [L] option 2, [G] neither","key_press":65,"name":"choice","trial_type":"html-keyboard-response","trial_index":197,"time_elapsed":378414,"internal_node_id":"0.0-197.0","subject":"S1C0839","sona":"41867","block":4,"time":"2021-09-18T19:03:15.347Z","response":"1st","certainty":"high","char":"A","transposition":-1,"order":["shifted","swapped"],"probe_pitches":[8,5,10,5,0,-2,3,0],"shifted_pitches":[8,5,10,4,0,-2,3,0],"swapped_pitches":[8,5,10,0,5,-2,3,0],"shift_direction":-1,"question_num":171,"has_decoy":false},{"rt":1642.2000000029802,"stimulus":"[A] option 1, [L] option 2, [G] neither","key_press":76,"name":"choice","trial_type":"html-keyboard-response","trial_index":208,"time_elapsed":395548,"internal_node_id":"0.0-208.0","subject":"S1C0839","sona":"41867","block":4,"time":"2021-09-18T19:03:15.347Z","response":"2nd","certainty":"high","char":"L","transposition":0,"order":["shifted","swapped"],"probe_pitches":[7,4,9,4,7,1,-1,-2],"shifted_pitches":[7,4,9,5,7,1,-1,-2],"swapped_pitches":[7,4,9,7,4,1,-1,-2],"shift_direction":1,"question_num":181,"has_decoy":false},{"rt":2287.0999999940395,"stimulus":"[A] option 1, [L] option 2, [G] neither","key_press":76,"name":"choice","trial_type":"html-keyboard-response","trial_index":219,"time_elapsed":413335,"internal_node_id":"0.0-219.0","subject":"S1C0839","sona":"41867","block":4,"time":"2021-09-18T19:03:15.347Z","response":"2nd","certainty":"high","char":"L","transposition":-2,"order":["shifted","swapped"],"probe_pitches":[3,1,5,8,10,5,8,1],"shifted_pitches":[3,1,5,8,9,5,8,1],"swapped_pitches":[3,1,5,10,8,5,8,1],"shift_direction":-1,"question_num":191,"has_decoy":false}]