[{"rt":2393.7999999970198,"stimulus":"[A] option 1, [L] option 2, [G] neither","key_press":71,"name":"choice","trial_type":"html-keyboard-response","trial_index":10,"time_elapsed":19385,"internal_node_id":"0.0-10.0","subject":"S1C0839","sona":"41867","block":6,"time":"2021-09-18T19:17:36.467Z","response":"neither","certainty":"high","char":"G","transposition":1,"order":["shifted","swapped"],"probe_pitches":[5,8,9,10,4,14,15,3],"shifted_pitches":[5,8,9,11,4,14,15,3],"swapped_pitches":[5,8,9,4,10,14,15,3],"shift_direction":1,"question_num":1,"has_decoy":false},{"rt":1501.2999999970198,"stimulus":"[A] option 1, [L] option 2, [G] neither","key_press":65,"name":"choice","trial_type":"html-keyboard-response","trial_index":21,"time_elapsed":35902,"internal_node_id":"0.0-21.0","subject":"S1C0839","sona":"41867","block":6,"time":"2021-09-18T19:17:36.467Z","response":"1st","certainty":"high","char":"A","transposition":-3,"order":["swapped","shifted"],"probe_pitches":[5,4,9,11,8,13,10,3],"shifted_pitches":[5,4,9,12,8,13,10,3],"swapped_pitches":[5,4,9,8,11,13,10,3],"shift_direction":1,"question_num":11,"has_decoy":false},{"rt":2066,"stimulus":"[A] option 1, [L] option 2, [G] neither","key_press":65,"name":"choice","trial_type":"html-keyboard-response","trial_index":32,"time_elapsed":52605,"internal_node_id":"0.0-32.0","subject":"S1C0839","sona":"41867","block":6,"time":"2021-09-18T19:17:36.467Z","response":"1st","certainty":"high","char":"A","transposition":2,"order":["swapped","shifted"],"probe_pitches":[10,13,12,15,9,10,8,5],"shifted_pitches":[10,13,12,14,9,10,8,5],"swapped_pitches":[10,13,12,9,15,10,8,5],"shift_direction":-1,"question_num":21,"has_decoy":false},{"rt":4031.7999999970198,"stimulus":"[A] option 1, [L] option 2, [G] neither","key_press":65,"name":"choice","trial_type":"html-keyboard-response","trial_index":43,"time_elapsed":71876,"internal_node_id":"0.0-43.0","subject":"S1C0839","sona":"41867","block":6,"time":"2021-09-18T19:17:36.467Z","response":"1st","certainty":"high","char":"A","transposition":-3,"order":["swapped","shifted"],"probe_pitches":[4,9,11,7,2,-1,2,4],"shifted_pitches":[4,9,11,7,3,-1,2,4],"swapped_pitches":[4,9,11,2,7,-1,2,4],"shift_direction":1,"question_num":31,"has_decoy":false},{"rt":1584.6000000089407,"stimulus":"[A] option 1, [L] option 2, [G] neither","key_press":65,"name":"choice","trial_type":"html-keyboard-response","trial_index":54,"time_elapsed":88719,"internal_node_id":"0.0-54.0","subject":"S1C0839","sona":"41867","block":6,"time":"2021-09-18T19:17:36.467Z","response":"1st","certainty":"high","char":"A","transposition":-1,"order":["swapped","shifted"],"probe_pitches":[6,11,8,6,3,1,3,11],"shifted_pitches":[6,11,8,6,4,1,3,11],"swapped_pitches":[6,11,8,3,6,1,3,11],"shift_direction":1,"question_num":41,"has_decoy":false},{"rt":3968.7999999970198,"stimulus":"[A] option 1, [L] option 2, [G] neither","key_press":71,"name":"choice","trial_type":"html-keyboard-response","trial_index":65,"time_elapsed":107300,"internal_node_id":"0.0-65.0","subject":"S1C0839","sona":"41867","block":6,"time":"2021-09-18T19:17:36.467Z","response":"neither","certainty":"high","char":"G","transposition":-3,"order":["shifted","swapped"],"probe_pitches":[1,4,6,-1,1,6,-1,9],"shifted_pitches":[1,4,6,-2,1,6,-1,9],"swapped_pitches":[1,4,6,1,-1,6,-1,9],"shift_direction":-1,"question_num":51,"has_decoy":false},{"rt":1142.8999999910593,"stimulus":"[A] option 1, [L] option 2, [G] neither","key_press":65,"name":"choice","trial_type":"html-keyboard-response","trial_index":76,"time_elapsed":123207,"internal_node_id":"0.0-76.0","subject":"S1C0839","sona":"41867","block":6,"time":"2021-09-18T19:17:36.467Z","response":"1st","certainty":"high","char":"A","transposition":1,"order":["swapped","shifted"],"probe_pitches":[8,6,-1,4,8,1,11,4],"shifted_pitches":[8,6,-1,3,8,1,11,4],"swapped_pitches":[8,6,-1,8,4,1,11,4],"shift_direction":-1,"question_num":61,"has_decoy":false},{"rt":3112.5999999940395,"stimulus":"[A] option 1, [L] option 2, [G] neither","key_press":65,"name":"choice","trial_type":"html-keyboard-response","trial_index":87,"time_elapsed":141031,"internal_node_id":"0.0-87.0","subject":"S1C0839","sona":"41867","block":6,"time":"2021-09-18T19:17:36.467Z","response":"1st","certainty":"high","char":"A","transposition":3,"order":["shifted","swapped"],"probe_pitches":[9,11,9,4,2,6,2,4],"shifted_pitches":[9,11,9,4,1,6,2,4],"swapped_pitches":[9,11,9,2,4,6,2,4],"shift_direction":-1,"question_num":71,"has_decoy":false},{"rt":1433.7000000029802,"stimulus":"[A] option 1, [L] option 2, [G] neither","key_press":76,"name":"choice","trial_type":"html-keyboard-response","trial_index":98,"time_elapsed":157075,"internal_node_id":"0.0-98.0","subject":"S1C0839","sona":"41867","block":6,"time":"2021-09-18T19:17:36.467Z","response":"2nd","certainty":"high","char":"L","transposition":-1,"order":["shifted","swapped"],"probe_pitches":[5,6,9,11,14,5,3,5],"shifted_pitches":[5,6,9,11,13,5,3,5],"swapped_pitches":[5,6,9,14,11,5,3,5],"shift_direction":-1,"question_num":81,"has_decoy":false},{"rt":3884.2999999970198,"stimulus":"[A] option 1, [L] option 2, [G] neither","key_press":65,"name":"choice","trial_type":"html-keyboard-response","trial_index":109,"time_elapsed":205502,"internal_node_id":"0.0-109.0","subject":"S1C0839","sona":"41867","block":6,"time":"2021-09-18T19:17:36.467Z","response":"1st","certainty":"high","char":"A","transposition":-2,"order":["swapped","shifted"],"probe_pitches":[6,11,6,3,1,6,8,11],"shifted_pitches":[6,11,6,3,0,6,8,11],"swapped_pitches":[6,11,6,1,3,6,8,11],"shift_direction":-1,"question_num":91,"has_decoy":false},{"rt":1747.300000011921,"stimulus":"[A] option 1, [L] option 2, [G] neither","key_press":65,"name":"choice","trial_type":"html-keyboard-response","trial_index":120,"time_elapsed":221588,"internal_node_id":"0.0-120.0","subject":"S1C0839","sona":"41867","block":6,"time":"2021-09-18T19:17:36.467Z","response":"1st","certainty":"high","char":"A","transposition":0,"order":["shifted","swapped"],"probe_pitches":[8,6,11,6,4,11,1,6],"shifted_pitches":[8,6,11,7,4,11,1,6],"swapped_pitches":[8,6,11,4,6,11,1,6],"shift_direction":1,"question_num":101,"has_decoy":false},{"rt":1743.5999999940395,"stimulus":"[A] option 1, [L] option 2, [G] neither","key_press":76,"name":"choice","trial_type":"html-keyboard-response","trial_index":131,"time_elapsed":237757,"internal_node_id":"0.0-131.0","subject":"S1C0839","sona":"41867","block":6,"time":"2021-09-18T19:17:36.467Z","response":"2nd","certainty":"high","char":"L","transposition":-2,"order":["shifted","swapped"],"probe_pitches":[6,11,15,11,10,13,6,4],"shifted_pitches":[6,11,15,11,9,13,6,4],"swapped_pitches":[6,11,15,10,11,13,6,4],"shift_direction":-1,"question_num":111,"has_decoy":false},{"rt":5685.70000000298,"stimulus":"[A] option 1, [L] option 2, [G] neither","key_press":76,"name":"choice","trial_type":"html-keyboard-response","trial_index":142,"time_elapsed":258152,"internal_node_id":"0.0-142.0","subject":"S1C0839","sona":"41867","block":6,"time":"2021-09-18T19:17:36.467Z","response":"2nd","certainty":"high","char":"L","transposition":-2,"order":["shifted","swapped"],"probe_pitches":[1,-1,4,11,6,4,9,-1],"shifted_pitches":[1,-1,4,10,6,4,9,-1],"swapped_pitches":[1,-1,4,6,11,4,9,-1],"shift_direction":-1,"question_num":121,"has_decoy":false},{"rt":1665.6000000089407,"stimulus":"[A] option 1, [L] option 2, [G] neither","key_press":65,"name":"choice","trial_type":"html-keyboard-response","trial_index":153,"time_elapsed":274147,"internal_node_id":"0.0-153.0","subject":"S1C0839","sona":"41867","block":6,"time":"2021-09-18T19:17:36.467Z","response":"1st","certainty":"high","char":"A","transposition":-1,"order":["shifted","swapped"],"probe_pitches":[13,9,4,11,6,12,14,15],"shifted_pitches":[13,9,4,11,7,12,14,15],"swapped_pitches":[13,9,4,6,11,12,14,15],"shift_direction":1,"question_num":131,"has_decoy":false},{"rt":2350.4000000059605,"stimulus":"[A] option 1, [L] option 2, [G] neither","key_press":65,"name":"choice","trial_type":"html-keyboard-response","trial_index":164,"time_elapsed":291308,"internal_node_id":"0.0-164.0","subject":"S1C0839","sona":"41867","block":6,"time":"2021-09-18T19:17:36.467Z","response":"1st","certainty":"high","char":"A","transposition":-2,"order":["swapped","shifted"],"probe_pitches":[9,10,13,9,3,7,6,14],"shifted_pitches":[9,10,13,8,3,7,6,14],"swapped_pitches":[9,10,13,3,9,7,6,14],"shift_direction":-1,"question_num":141,"has_decoy":false},{"rt":1677.199999988079,"stimulus":"[A] option 1, [L] option 2, [G] neither","key_press":76,"name":"choice","trial_type":"html-keyboard-response","trial_index":175,"time_elapsed":307347,"internal_node_id":"0.0-175.0","subject":"S1C0839","sona":"41867","block":6,"time":"2021-09-18T19:17:36.467Z","response":"2nd","certainty":"high","char":"L","transposition":3,"order":["swapped","shifted"],"probe_pitches":[14,8,4,5,9,3,6,8],"shifted_pitches":[14,8,4,5,10,3,6,8],"swapped_pitches":[14,8,4,9,5,3,6,8],"shift_direction":1,"question_num":151,"has_decoy":false},{"rt":3218.7999999970198,"stimulus":"[A] option 1, [L] option 2, [G] neither","key_press":71,"name":"choice","trial_type":"html-keyboard-response","trial_index":186,"time_elapsed":324923,"internal_node_id":"0.0-186.0","subject":"S1C0839","sona":"41867","block":6,"time":"2021-09-18T19:17:36.467Z","response":"neither","certainty":"high","char":"G","transposition":-1,"order":["swapped","shifted"],"probe_pitches":[9,6,11,6,9,-1,2,4],"shifted_pitches":[9,6,11,7,9,-1,2,4],"swapped_pitches":[9,6,11,9,6,-1,2,4],"shift_direction":1,"question_num":161,"has_decoy":false},{"rt":1488.7999999970198,"stimulus":"[A] option 1, [L] option 2, [G] neither","key_press":65,"name":"choice","trial_type":"html-keyboard-response","trial_index":197,"time_elapsed":341067,"internal_node_id":"0.0-197.0","subject":"S1C0839","sona":"41867","block":6,"time":"2021-09-18T19:17:36.467Z","response":"1st","certainty":"high","char":"A","transposition":-3,"order":["shifted","swapped"],"probe_pitches":[12,10,8,7,9,3,13,10],"shifted_pitches":[12,10,8,6,9,3,13,10],"swapped_pitches":[12,10,8,9,7,3,13,10],"shift_direction":-1,"question_num":171,"has_decoy":false},{"rt":1296.5999999940395,"stimulus":"[A] option 1, [L] option 2, [G] neither","key_press":65,"name":"choice","trial_type":"html-keyboard-response","trial_index":208,"time_elapsed":357419,"internal_node_id":"0.0-208.0","subject":"S1C0839","sona":"41867","block":6,"time":"2021-09-18T19:17:36.467Z","response":"1st","certainty":"high","char":"A","transposition":0,"order":["swapped","shifted"],"probe_pitches":[14,8,14,13,4,3,12,8],"shifted_pitches":[14,8,14,13,5,3,12,8],"swapped_pitches":[14,8,14,4,13,3,12,8],"shift_direction":1,"question_num":181,"has_decoy":false},{"rt":3388.3999999910593,"stimulus":"[A] option 1, [L] option 2, [G] neither","key_press":76,"name":"choice","trial_type":"html-keyboard-response","trial_index":219,"time_elapsed":375185,"internal_node_id":"0.0-219.0","subject":"S1C0839","sona":"41867","block":6,"time":"2021-09-18T19:17:36.467Z","response":"2nd","certainty":"high","char":"L","transposition":2,"order":["shifted","swapped"],"probe_pitches":[7,4,2,-1,4,9,-1,4],"shifted_pitches":[7,4,2,-1,5,9,-1,4],"swapped_pitches":[7,4,2,4,-1,9,-1,4],"shift_direction":1,"question_num":191,"has_decoy":false}]