[{"rt":13237.800000011921,"stimulus":"[A] option 1, [L] option 2, [G] neither","key_press":65,"name":"choice","trial_type":"html-keyboard-response","trial_index":15,"time_elapsed":90198,"internal_node_id":"0.0-15.0","response":"1st","certainty":"high","char":"A","transposition":3,"order":["swapped","shifted"],"probe_pitches":[1,4,9,6,11,9,1,6],"shifted_pitches":[1,4,9,5,11,9,1,6],"swapped_pitches":[1,4,9,11,6,9,1,6],"shift_direction":-1,"question_num":1,"has_decoy":false,"subject":"S1C0839","sona":"41867","block":1,"time":"2021-09-18T18:33:13.958Z"},{"rt":9561.60000000894,"stimulus":"[A] option 1, [L] option 2, [G] neither","key_press":76,"name":"choice","trial_type":"html-keyboard-response","trial_index":26,"time_elapsed":120847,"internal_node_id":"0.0-26.0","response":"2nd","certainty":"high","char":"L","transposition":-2,"order":["swapped","shifted"],"probe_pitches":[10,12,11,7,3,2,10,11],"shifted_pitches":[10,12,11,6,3,2,10,11],"swapped_pitches":[10,12,11,3,7,2,10,11],"shift_direction":-1,"question_num":11,"has_decoy":false,"subject":"S1C0839","sona":"41867","block":1,"time":"2021-09-18T18:33:13.958Z"},{"rt":5801.199999988079,"stimulus":"[A] option 1, [L] option 2, [G] neither","key_press":76,"name":"choice","trial_type":"html-keyboard-response","trial_index":37,"time_elapsed":145607,"internal_node_id":"0.0-37.0","response":"2nd","certainty":"high","char":"L","transposition":2,"order":["swapped","shifted"],"probe_pitches":[11,9,2,9,6,-1,4,9],"shifted_pitches":[11,9,2,10,6,-1,4,9],"swapped_pitches":[11,9,2,6,9,-1,4,9],"shift_direction":1,"question_num":21,"has_decoy":false,"subject":"S1C0839","sona":"41867","block":1,"time":"2021-09-18T18:33:13.958Z"},{"rt":29680.70000000298,"stimulus":"[A] option 1, [L] option 2, [G] neither","key_press":76,"name":"choice","trial_type":"html-keyboard-response","trial_index":48,"time_elapsed":191372,"internal_node_id":"0.0-48.0","response":"2nd","certainty":"high","char":"L","transposition":-3,"order":["shifted","swapped"],"probe_pitches":[8,6,-1,1,3,11,3,11],"shifted_pitches":[8,6,-1,2,3,11,3,11],"swapped_pitches":[8,6,-1,3,1,11,3,11],"shift_direction":1,"question_num":31,"has_decoy":false,"subject":"S1C0839","sona":"41867","block":1,"time":"2021-09-18T18:33:13.958Z"},{"rt":7096.70000000298,"stimulus":"[A] option 1, [L] option 2, [G] neither","key_press":71,"name":"choice","trial_type":"html-keyboard-response","trial_index":59,"time_elapsed":215319,"internal_node_id":"0.0-59.0","response":"neither","certainty":"high","char":"G","transposition":-3,"order":["shifted","swapped"],"probe_pitches":[8,12,9,7,3,1,12,5],"shifted_pitches":[8,12,9,7,4,1,12,5],"swapped_pitches":[8,12,9,3,7,1,12,5],"shift_direction":1,"question_num":41,"has_decoy":false,"subject":"S1C0839","sona":"41867","block":1,"time":"2021-09-18T18:33:13.958Z"},{"rt":7010.5999999940395,"stimulus":"[A] option 1, [L] option 2, [G] neither","key_press":65,"name":"choice","trial_type":"html-keyboard-response","trial_index":70,"time_elapsed":243689,"internal_node_id":"0.0-70.0","response":"1st","certainty":"high","char":"A","transposition":3,"order":["shifted","swapped"],"probe_pitches":[6,1,2,10,8,11,2,11],"shifted_pitches":[6,1,2,10,7,11,2,11],"swapped_pitches":[6,1,2,8,10,11,2,11],"shift_direction":-1,"question_num":51,"has_decoy":false,"subject":"S1C0839","sona":"41867","block":1,"time":"2021-09-18T18:33:13.958Z"},{"rt":2101.800000011921,"stimulus":"[A] option 1, [L] option 2, [G] neither","key_press":65,"name":"choice","trial_type":"html-keyboard-response","trial_index":81,"time_elapsed":264823,"internal_node_id":"0.0-81.0","response":"1st","certainty":"high","char":"A","transposition":-2,"order":["swapped","shifted"],"probe_pitches":[1,2,6,4,5,2,8,6],"shifted_pitches":[1,2,6,3,5,2,8,6],"swapped_pitches":[1,2,6,5,4,2,8,6],"shift_direction":-1,"question_num":61,"has_decoy":false,"subject":"S1C0839","sona":"41867","block":1,"time":"2021-09-18T18:33:13.958Z"},{"rt":1608.4000000059605,"stimulus":"[A] option 1, [L] option 2, [G] neither","key_press":76,"name":"choice","trial_type":"html-keyboard-response","trial_index":92,"time_elapsed":282221,"internal_node_id":"0.0-92.0","response":"2nd","certainty":"high","char":"L","transposition":-2,"order":["swapped","shifted"],"probe_pitches":[6,1,4,11,9,-1,9,4],"shifted_pitches":[6,1,4,11,8,-1,9,4],"swapped_pitches":[6,1,4,9,11,-1,9,4],"shift_direction":-1,"question_num":71,"has_decoy":false,"subject":"S1C0839","sona":"41867","block":1,"time":"2021-09-18T18:33:13.958Z"},{"rt":6521.5,"stimulus":"[A] option 1, [L] option 2, [G] neither","key_press":65,"name":"choice","trial_type":"html-keyboard-response","trial_index":103,"time_elapsed":316340,"internal_node_id":"0.0-103.0","response":"1st","certainty":"high","char":"A","transposition":2,"order":["shifted","swapped"],"probe_pitches":[5,9,12,4,10,5,2,8],"shifted_pitches":[5,9,12,4,11,5,2,8],"swapped_pitches":[5,9,12,10,4,5,2,8],"shift_direction":1,"question_num":81,"has_decoy":false,"subject":"S1C0839","sona":"41867","block":1,"time":"2021-09-18T18:33:13.958Z"},{"rt":9572.20000000298,"stimulus":"[A] option 1, [L] option 2, [G] neither","key_press":71,"name":"choice","trial_type":"html-keyboard-response","trial_index":114,"time_elapsed":346123,"internal_node_id":"0.0-114.0","response":"neither","certainty":"high","char":"G","transposition":-2,"order":["shifted","swapped"],"probe_pitches":[11,6,11,8,4,6,11,1],"shifted_pitches":[11,6,11,8,5,6,11,1],"swapped_pitches":[11,6,11,4,8,6,11,1],"shift_direction":1,"question_num":91,"has_decoy":false,"subject":"S1C0839","sona":"41867","block":1,"time":"2021-09-18T18:33:13.958Z"},{"rt":28216.29999999702,"stimulus":"[A] option 1, [L] option 2, [G] neither","key_press":71,"name":"choice","trial_type":"html-keyboard-response","trial_index":125,"time_elapsed":412525,"internal_node_id":"0.0-125.0","response":"neither","certainty":"high","char":"G","transposition":-1,"order":["swapped","shifted"],"probe_pitches":[11,8,1,6,4,1,6,1],"shifted_pitches":[11,8,1,6,5,1,6,1],"swapped_pitches":[11,8,1,4,6,1,6,1],"shift_direction":1,"question_num":101,"has_decoy":false,"subject":"S1C0839","sona":"41867","block":1,"time":"2021-09-18T18:33:13.958Z"},{"rt":1675.2000000029802,"stimulus":"[A] option 1, [L] option 2, [G] neither","key_press":65,"name":"choice","trial_type":"html-keyboard-response","trial_index":136,"time_elapsed":442863,"internal_node_id":"0.0-136.0","response":"1st","certainty":"high","char":"A","transposition":0,"order":["swapped","shifted"],"probe_pitches":[8,7,2,8,6,11,10,5],"shifted_pitches":[8,7,2,9,6,11,10,5],"swapped_pitches":[8,7,2,6,8,11,10,5],"shift_direction":1,"question_num":111,"has_decoy":false,"subject":"S1C0839","sona":"41867","block":1,"time":"2021-09-18T18:33:13.958Z"},{"rt":4033.2999999970198,"stimulus":"[A] option 1, [L] option 2, [G] neither","key_press":65,"name":"choice","trial_type":"html-keyboard-response","trial_index":147,"time_elapsed":462886,"internal_node_id":"0.0-147.0","response":"1st","certainty":"high","char":"A","transposition":-1,"order":["shifted","swapped"],"probe_pitches":[3,7,8,11,9,8,3,9],"shifted_pitches":[3,7,8,10,9,8,3,9],"swapped_pitches":[3,7,8,9,11,8,3,9],"shift_direction":-1,"question_num":121,"has_decoy":false,"subject":"S1C0839","sona":"41867","block":1,"time":"2021-09-18T18:33:13.958Z"},{"rt":2011.2999999970198,"stimulus":"[A] option 1, [L] option 2, [G] neither","key_press":65,"name":"choice","trial_type":"html-keyboard-response","trial_index":158,"time_elapsed":482778,"internal_node_id":"0.0-158.0","response":"1st","certainty":"high","char":"A","transposition":1,"order":["swapped","shifted"],"probe_pitches":[1,2,6,4,12,11,7,9],"shifted_pitches":[1,2,6,5,12,11,7,9],"swapped_pitches":[1,2,6,12,4,11,7,9],"shift_direction":1,"question_num":131,"has_decoy":false,"subject":"S1C0839","sona":"41867","block":1,"time":"2021-09-18T18:33:13.958Z"},{"rt":13191.79999999702,"stimulus":"[A] option 1, [L] option 2, [G] neither","key_press":76,"name":"choice","trial_type":"html-keyboard-response","trial_index":169,"time_elapsed":513900,"internal_node_id":"0.0-169.0","response":"2nd","certainty":"high","char":"L","transposition":1,"order":["shifted","swapped"],"probe_pitches":[6,9,11,6,2,-1,4,9],"shifted_pitches":[6,9,11,7,2,-1,4,9],"swapped_pitches":[6,9,11,2,6,-1,4,9],"shift_direction":1,"question_num":141,"has_decoy":false,"subject":"S1C0839","sona":"41867","block":1,"time":"2021-09-18T18:33:13.958Z"},{"rt":4367.70000000298,"stimulus":"[A] option 1, [L] option 2, [G] neither","key_press":71,"name":"choice","trial_type":"html-keyboard-response","trial_index":180,"time_elapsed":536778,"internal_node_id":"0.0-180.0","response":"neither","certainty":"high","char":"G","transposition":-3,"order":["shifted","swapped"],"probe_pitches":[5,10,11,13,9,5,13,2],"shifted_pitches":[5,10,11,13,8,5,13,2],"swapped_pitches":[5,10,11,9,13,5,13,2],"shift_direction":-1,"question_num":151,"has_decoy":false,"subject":"S1C0839","sona":"41867","block":1,"time":"2021-09-18T18:33:13.958Z"},{"rt":2979.5,"stimulus":"[A] option 1, [L] option 2, [G] neither","key_press":76,"name":"choice","trial_type":"html-keyboard-response","trial_index":191,"time_elapsed":556067,"internal_node_id":"0.0-191.0","response":"2nd","certainty":"high","char":"L","transposition":-1,"order":["shifted","swapped"],"probe_pitches":[1,6,3,11,8,1,8,-1],"shifted_pitches":[1,6,3,11,7,1,8,-1],"swapped_pitches":[1,6,3,8,11,1,8,-1],"shift_direction":-1,"question_num":161,"has_decoy":false,"subject":"S1C0839","sona":"41867","block":1,"time":"2021-09-18T18:33:13.958Z"},{"rt":1787.6000000089407,"stimulus":"[A] option 1, [L] option 2, [G] neither","key_press":76,"name":"choice","trial_type":"html-keyboard-response","trial_index":202,"time_elapsed":574392,"internal_node_id":"0.0-202.0","response":"2nd","certainty":"high","char":"L","transposition":-1,"order":["swapped","shifted"],"probe_pitches":[5,9,8,5,11,3,6,2],"shifted_pitches":[5,9,8,5,12,3,6,2],"swapped_pitches":[5,9,8,11,5,3,6,2],"shift_direction":1,"question_num":171,"has_decoy":false,"subject":"S1C0839","sona":"41867","block":1,"time":"2021-09-18T18:33:13.958Z"},{"rt":3755.7999999970198,"stimulus":"[A] option 1, [L] option 2, [G] neither","key_press":65,"name":"choice","trial_type":"html-keyboard-response","trial_index":213,"time_elapsed":593996,"internal_node_id":"0.0-213.0","response":"1st","certainty":"high","char":"A","transposition":-3,"order":["swapped","shifted"],"probe_pitches":[11,9,4,9,2,11,4,7],"shifted_pitches":[11,9,4,9,1,11,4,7],"swapped_pitches":[11,9,4,2,9,11,4,7],"shift_direction":-1,"question_num":181,"has_decoy":false,"subject":"S1C0839","sona":"41867","block":1,"time":"2021-09-18T18:33:13.958Z"},{"rt":1906.7000000029802,"stimulus":"[A] option 1, [L] option 2, [G] neither","key_press":76,"name":"choice","trial_type":"html-keyboard-response","trial_index":224,"time_elapsed":612860,"internal_node_id":"0.0-224.0","response":"2nd","certainty":"high","char":"L","transposition":0,"order":["shifted","swapped"],"probe_pitches":[4,2,-1,7,9,-1,2,11],"shifted_pitches":[4,2,-1,6,9,-1,2,11],"swapped_pitches":[4,2,-1,9,7,-1,2,11],"shift_direction":-1,"question_num":191,"has_decoy":false,"subject":"S1C0839","sona":"41867","block":1,"time":"2021-09-18T18:33:13.958Z"}]