[{"rt":2740.5,"stimulus":"[A] option 1, [L] option 2, [G] neither","key_press":71,"name":"choice","trial_type":"html-keyboard-response","trial_index":10,"time_elapsed":21123,"internal_node_id":"0.0-10.0","subject":"S1C0839","sona":"41867","block":5,"time":"2021-09-18T19:11:14.741Z","response":"neither","certainty":"high","char":"G","transposition":-1,"order":["swapped","shifted"],"probe_pitches":[9,8,9,2,4,12,10,9],"shifted_pitches":[9,8,9,3,4,12,10,9],"swapped_pitches":[9,8,9,4,2,12,10,9],"shift_direction":1,"question_num":1,"has_decoy":false},{"rt":1811.7999999970198,"stimulus":"[A] option 1, [L] option 2, [G] neither","key_press":76,"name":"choice","trial_type":"html-keyboard-response","trial_index":21,"time_elapsed":38004,"internal_node_id":"0.0-21.0","subject":"S1C0839","sona":"41867","block":5,"time":"2021-09-18T19:11:14.741Z","response":"2nd","certainty":"high","char":"L","transposition":-1,"order":["swapped","shifted"],"probe_pitches":[2,4,6,2,-3,-1,6,4],"shifted_pitches":[2,4,6,2,-2,-1,6,4],"swapped_pitches":[2,4,6,-3,2,-1,6,4],"shift_direction":1,"question_num":11,"has_decoy":false},{"rt":1370.0999999940395,"stimulus":"[A] option 1, [L] option 2, [G] neither","key_press":76,"name":"choice","trial_type":"html-keyboard-response","trial_index":32,"time_elapsed":56418,"internal_node_id":"0.0-32.0","subject":"S1C0839","sona":"41867","block":5,"time":"2021-09-18T19:11:14.741Z","response":"2nd","certainty":"high","char":"L","transposition":-3,"order":["shifted","swapped"],"probe_pitches":[4,9,6,-1,1,-3,4,-3],"shifted_pitches":[4,9,6,-1,0,-3,4,-3],"swapped_pitches":[4,9,6,1,-1,-3,4,-3],"shift_direction":-1,"question_num":21,"has_decoy":false},{"rt":895.2999999970198,"stimulus":"[A] option 1, [L] option 2, [G] neither","key_press":76,"name":"choice","trial_type":"html-keyboard-response","trial_index":43,"time_elapsed":71727,"internal_node_id":"0.0-43.0","subject":"S1C0839","sona":"41867","block":5,"time":"2021-09-18T19:11:14.741Z","response":"2nd","certainty":"high","char":"L","transposition":0,"order":["swapped","shifted"],"probe_pitches":[-3,2,5,2,-3,0,7,0],"shifted_pitches":[-3,2,5,1,-3,0,7,0],"swapped_pitches":[-3,2,5,-3,2,0,7,0],"shift_direction":-1,"question_num":31,"has_decoy":false},{"rt":6680.4000000059605,"stimulus":"[A] option 1, [L] option 2, [G] neither","key_press":71,"name":"choice","trial_type":"html-keyboard-response","trial_index":54,"time_elapsed":92792,"internal_node_id":"0.0-54.0","subject":"S1C0839","sona":"41867","block":5,"time":"2021-09-18T19:11:14.741Z","response":"neither","certainty":"high","char":"G","transposition":1,"order":["shifted","swapped"],"probe_pitches":[11,5,1,4,8,5,12,4],"shifted_pitches":[11,5,1,4,7,5,12,4],"swapped_pitches":[11,5,1,8,4,5,12,4],"shift_direction":-1,"question_num":41,"has_decoy":false},{"rt":4290.79999999702,"stimulus":"[A] option 1, [L] option 2, [G] neither","key_press":65,"name":"choice","trial_type":"html-keyboard-response","trial_index":65,"time_elapsed":122243,"internal_node_id":"0.0-65.0","subject":"S1C0839","sona":"41867","block":5,"time":"2021-09-18T19:11:14.741Z","response":"1st","certainty":"high","char":"A","transposition":-3,"order":["shifted","swapped"],"probe_pitches":[0,5,2,6,8,0,1,7],"shifted_pitches":[0,5,2,6,9,0,1,7],"swapped_pitches":[0,5,2,8,6,0,1,7],"shift_direction":1,"question_num":51,"has_decoy":false},{"rt":1555.7999999970198,"stimulus":"[A] option 1, [L] option 2, [G] neither","key_press":71,"name":"choice","trial_type":"html-keyboard-response","trial_index":76,"time_elapsed":139908,"internal_node_id":"0.0-76.0","subject":"S1C0839","sona":"41867","block":5,"time":"2021-09-18T19:11:14.741Z","response":"neither","certainty":"high","char":"G","transposition":-2,"order":["swapped","shifted"],"probe_pitches":[7,12,10,6,3,0,9,4],"shifted_pitches":[7,12,10,5,3,0,9,4],"swapped_pitches":[7,12,10,3,6,0,9,4],"shift_direction":-1,"question_num":61,"has_decoy":false},{"rt":1276.7000000029802,"stimulus":"[A] option 1, [L] option 2, [G] neither","key_press":76,"name":"choice","trial_type":"html-keyboard-response","trial_index":87,"time_elapsed":156690,"internal_node_id":"0.0-87.0","subject":"S1C0839","sona":"41867","block":5,"time":"2021-09-18T19:11:14.741Z","response":"2nd","certainty":"high","char":"L","transposition":-2,"order":["swapped","shifted"],"probe_pitches":[-1,2,4,-3,2,7,-3,2],"shifted_pitches":[-1,2,4,-2,2,7,-3,2],"swapped_pitches":[-1,2,4,2,-3,7,-3,2],"shift_direction":1,"question_num":71,"has_decoy":false},{"rt":2123.2999999970198,"stimulus":"[A] option 1, [L] option 2, [G] neither","key_press":65,"name":"choice","trial_type":"html-keyboard-response","trial_index":98,"time_elapsed":173333,"internal_node_id":"0.0-98.0","subject":"S1C0839","sona":"41867","block":5,"time":"2021-09-18T19:11:14.741Z","response":"1st","certainty":"high","char":"A","transposition":0,"order":["swapped","shifted"],"probe_pitches":[9,10,12,5,9,0,5,4],"shifted_pitches":[9,10,12,6,9,0,5,4],"swapped_pitches":[9,10,12,9,5,0,5,4],"shift_direction":1,"question_num":81,"has_decoy":false},{"rt":1340.9000000059605,"stimulus":"[A] option 1, [L] option 2, [G] neither","key_press":65,"name":"choice","trial_type":"html-keyboard-response","trial_index":109,"time_elapsed":196583,"internal_node_id":"0.0-109.0","subject":"S1C0839","sona":"41867","block":5,"time":"2021-09-18T19:11:14.741Z","response":"1st","certainty":"high","char":"A","transposition":-1,"order":["shifted","swapped"],"probe_pitches":[9,4,7,4,2,9,7,0],"shifted_pitches":[9,4,7,3,2,9,7,0],"swapped_pitches":[9,4,7,2,4,9,7,0],"shift_direction":-1,"question_num":91,"has_decoy":false},{"rt":2127.2000000029802,"stimulus":"[A] option 1, [L] option 2, [G] neither","key_press":65,"name":"choice","trial_type":"html-keyboard-response","trial_index":120,"time_elapsed":214292,"internal_node_id":"0.0-120.0","subject":"S1C0839","sona":"41867","block":5,"time":"2021-09-18T19:11:14.741Z","response":"1st","certainty":"high","char":"A","transposition":2,"order":["shifted","swapped"],"probe_pitches":[-1,2,7,-1,4,-3,4,-1],"shifted_pitches":[-1,2,7,-1,3,-3,4,-1],"swapped_pitches":[-1,2,7,4,-1,-3,4,-1],"shift_direction":-1,"question_num":101,"has_decoy":false},{"rt":4827,"stimulus":"[A] option 1, [L] option 2, [G] neither","key_press":76,"name":"choice","trial_type":"html-keyboard-response","trial_index":131,"time_elapsed":293849,"internal_node_id":"0.0-131.0","subject":"S1C0839","sona":"41867","block":5,"time":"2021-09-18T19:11:14.741Z","response":"2nd","certainty":"high","char":"L","transposition":-1,"order":["swapped","shifted"],"probe_pitches":[6,1,8,10,1,4,5,12],"shifted_pitches":[6,1,8,10,2,4,5,12],"swapped_pitches":[6,1,8,1,10,4,5,12],"shift_direction":1,"question_num":111,"has_decoy":false},{"rt":1221.7000000029802,"stimulus":"[A] option 1, [L] option 2, [G] neither","key_press":65,"name":"choice","trial_type":"html-keyboard-response","trial_index":142,"time_elapsed":310904,"internal_node_id":"0.0-142.0","subject":"S1C0839","sona":"41867","block":5,"time":"2021-09-18T19:11:14.741Z","response":"1st","certainty":"high","char":"A","transposition":-3,"order":["shifted","swapped"],"probe_pitches":[1,5,2,9,6,10,6,10],"shifted_pitches":[1,5,2,8,6,10,6,10],"swapped_pitches":[1,5,2,6,9,10,6,10],"shift_direction":-1,"question_num":121,"has_decoy":false},{"rt":6818.100000008941,"stimulus":"[A] option 1, [L] option 2, [G] neither","key_press":65,"name":"choice","trial_type":"html-keyboard-response","trial_index":153,"time_elapsed":333811,"internal_node_id":"0.0-153.0","subject":"S1C0839","sona":"41867","block":5,"time":"2021-09-18T19:11:14.741Z","response":"1st","certainty":"high","char":"A","transposition":3,"order":["shifted","swapped"],"probe_pitches":[3,8,7,0,3,6,1,9],"shifted_pitches":[3,8,7,-1,3,6,1,9],"swapped_pitches":[3,8,7,3,0,6,1,9],"shift_direction":-1,"question_num":131,"has_decoy":false},{"rt":3206.3999999910593,"stimulus":"[A] option 1, [L] option 2, [G] neither","key_press":65,"name":"choice","trial_type":"html-keyboard-response","trial_index":164,"time_elapsed":355051,"internal_node_id":"0.0-164.0","subject":"S1C0839","sona":"41867","block":5,"time":"2021-09-18T19:11:14.741Z","response":"1st","certainty":"high","char":"A","transposition":-2,"order":["swapped","shifted"],"probe_pitches":[7,9,2,0,5,-3,0,5],"shifted_pitches":[7,9,2,0,4,-3,0,5],"swapped_pitches":[7,9,2,5,0,-3,0,5],"shift_direction":-1,"question_num":141,"has_decoy":false},{"rt":2156.5,"stimulus":"[A] option 1, [L] option 2, [G] neither","key_press":65,"name":"choice","trial_type":"html-keyboard-response","trial_index":175,"time_elapsed":374169,"internal_node_id":"0.0-175.0","subject":"S1C0839","sona":"41867","block":5,"time":"2021-09-18T19:11:14.741Z","response":"1st","certainty":"high","char":"A","transposition":-2,"order":["swapped","shifted"],"probe_pitches":[10,9,6,10,5,8,6,7],"shifted_pitches":[10,9,6,10,4,8,6,7],"swapped_pitches":[10,9,6,5,10,8,6,7],"shift_direction":-1,"question_num":151,"has_decoy":false},{"rt":13261.59999999404,"stimulus":"[A] option 1, [L] option 2, [G] neither","key_press":76,"name":"choice","trial_type":"html-keyboard-response","trial_index":186,"time_elapsed":402800,"internal_node_id":"0.0-186.0","subject":"S1C0839","sona":"41867","block":5,"time":"2021-09-18T19:11:14.741Z","response":"2nd","certainty":"high","char":"L","transposition":1,"order":["swapped","shifted"],"probe_pitches":[4,6,9,2,6,4,-1,4],"shifted_pitches":[4,6,9,2,7,4,-1,4],"swapped_pitches":[4,6,9,6,2,4,-1,4],"shift_direction":1,"question_num":161,"has_decoy":false},{"rt":1395.199999988079,"stimulus":"[A] option 1, [L] option 2, [G] neither","key_press":76,"name":"choice","trial_type":"html-keyboard-response","trial_index":197,"time_elapsed":419402,"internal_node_id":"0.0-197.0","subject":"S1C0839","sona":"41867","block":5,"time":"2021-09-18T19:11:14.741Z","response":"2nd","certainty":"high","char":"L","transposition":2,"order":["shifted","swapped"],"probe_pitches":[9,8,5,8,9,1,8,11],"shifted_pitches":[9,8,5,8,10,1,8,11],"swapped_pitches":[9,8,5,9,8,1,8,11],"shift_direction":1,"question_num":171,"has_decoy":false},{"rt":2221.7000000029802,"stimulus":"[A] option 1, [L] option 2, [G] neither","key_press":65,"name":"choice","trial_type":"html-keyboard-response","trial_index":208,"time_elapsed":437476,"internal_node_id":"0.0-208.0","subject":"S1C0839","sona":"41867","block":5,"time":"2021-09-18T19:11:14.741Z","response":"1st","certainty":"high","char":"A","transposition":3,"order":["shifted","swapped"],"probe_pitches":[9,7,9,7,0,4,0,2],"shifted_pitches":[9,7,9,8,0,4,0,2],"swapped_pitches":[9,7,9,0,7,4,0,2],"shift_direction":1,"question_num":181,"has_decoy":false},{"rt":4669.5,"stimulus":"[A] option 1, [L] option 2, [G] neither","key_press":65,"name":"choice","trial_type":"html-keyboard-response","trial_index":219,"time_elapsed":462877,"internal_node_id":"0.0-219.0","subject":"S1C0839","sona":"41867","block":5,"time":"2021-09-18T19:11:14.741Z","response":"1st","certainty":"high","char":"A","transposition":-3,"order":["shifted","swapped"],"probe_pitches":[-3,1,-1,4,6,-3,1,4],"shifted_pitches":[-3,1,-1,5,6,-3,1,4],"swapped_pitches":[-3,1,-1,6,4,-3,1,4],"shift_direction":1,"question_num":191,"has_decoy":false}]