[{"rt":1221.6000000014901,"stimulus":"[A] option 1, [L] option 2, [G] neither","key_press":76,"name":"choice","trial_type":"html-keyboard-response","trial_index":10,"time_elapsed":21189,"internal_node_id":"0.0-10.0","subject":"S1C1212","sona":"41500","block":5,"time":"2021-09-15T17:27:56.793Z","response":"2nd","certainty":"high","char":"L","transposition":-1,"order":["swapped","shifted"],"probe_pitches":[6,3,0,3,2,7,11,5,1,3,2,7],"shifted_pitches":[6,3,0,3,2,8,11,5,1,3,2,7],"swapped_pitches":[6,3,0,3,2,11,7,5,1,3,2,7],"shift_direction":1,"question_num":1,"has_decoy":false},{"rt":1540.199999999255,"stimulus":"[A] option 1, [L] option 2, [G] neither","key_press":65,"name":"choice","trial_type":"html-keyboard-response","trial_index":21,"time_elapsed":41053,"internal_node_id":"0.0-21.0","subject":"S1C1212","sona":"41500","block":5,"time":"2021-09-15T17:27:56.793Z","response":"1st","certainty":"high","char":"A","transposition":-3,"order":["swapped","shifted"],"probe_pitches":[5,7,10,2,7,0,5,2,0,2,7,5],"shifted_pitches":[5,7,10,2,7,0,6,2,0,2,7,5],"swapped_pitches":[5,7,10,2,7,5,0,2,0,2,7,5],"shift_direction":1,"question_num":11,"has_decoy":false},{"rt":3430.300000000745,"stimulus":"[A] option 1, [L] option 2, [G] neither","key_press":65,"name":"choice","trial_type":"html-keyboard-response","trial_index":32,"time_elapsed":62773,"internal_node_id":"0.0-32.0","subject":"S1C1212","sona":"41500","block":5,"time":"2021-09-15T17:27:56.793Z","response":"1st","certainty":"high","char":"A","transposition":-3,"order":["swapped","shifted"],"probe_pitches":[10,8,2,6,3,10,5,8,3,2,6,8],"shifted_pitches":[10,8,2,6,3,10,4,8,3,2,6,8],"swapped_pitches":[10,8,2,6,3,5,10,8,3,2,6,8],"shift_direction":-1,"question_num":21,"has_decoy":false},{"rt":2494.5,"stimulus":"[A] option 1, [L] option 2, [G] neither","key_press":76,"name":"choice","trial_type":"html-keyboard-response","trial_index":43,"time_elapsed":83964,"internal_node_id":"0.0-43.0","subject":"S1C1212","sona":"41500","block":5,"time":"2021-09-15T17:27:56.793Z","response":"2nd","certainty":"high","char":"L","transposition":-1,"order":["swapped","shifted"],"probe_pitches":[6,3,-2,6,1,3,10,6,3,1,8,6],"shifted_pitches":[6,3,-2,6,1,4,10,6,3,1,8,6],"swapped_pitches":[6,3,-2,6,1,10,3,6,3,1,8,6],"shift_direction":1,"question_num":31,"has_decoy":false},{"rt":3516.800000000745,"stimulus":"[A] option 1, [L] option 2, [G] neither","key_press":65,"name":"choice","trial_type":"html-keyboard-response","trial_index":54,"time_elapsed":105743,"internal_node_id":"0.0-54.0","subject":"S1C1212","sona":"41500","block":5,"time":"2021-09-15T17:27:56.793Z","response":"1st","certainty":"high","char":"A","transposition":-3,"order":["shifted","swapped"],"probe_pitches":[10,8,10,5,10,1,8,5,3,8,3,1],"shifted_pitches":[10,8,10,5,10,0,8,5,3,8,3,1],"swapped_pitches":[10,8,10,5,10,8,1,5,3,8,3,1],"shift_direction":-1,"question_num":41,"has_decoy":false},{"rt":1861.4000000022352,"stimulus":"[A] option 1, [L] option 2, [G] neither","key_press":76,"name":"choice","trial_type":"html-keyboard-response","trial_index":65,"time_elapsed":127687,"internal_node_id":"0.0-65.0","subject":"S1C1212","sona":"41500","block":5,"time":"2021-09-15T17:27:56.793Z","response":"2nd","certainty":"high","char":"L","transposition":-3,"order":["swapped","shifted"],"probe_pitches":[-1,4,10,8,11,3,5,0,4,1,-1,0],"shifted_pitches":[-1,4,10,8,11,2,5,0,4,1,-1,0],"swapped_pitches":[-1,4,10,8,11,5,3,0,4,1,-1,0],"shift_direction":-1,"question_num":51,"has_decoy":false},{"rt":1698.300000000745,"stimulus":"[A] option 1, [L] option 2, [G] neither","key_press":76,"name":"choice","trial_type":"html-keyboard-response","trial_index":76,"time_elapsed":147609,"internal_node_id":"0.0-76.0","subject":"S1C1212","sona":"41500","block":5,"time":"2021-09-15T17:27:56.793Z","response":"2nd","certainty":"high","char":"L","transposition":-2,"order":["shifted","swapped"],"probe_pitches":[-1,1,5,-1,1,2,9,1,11,7,5,8],"shifted_pitches":[-1,1,5,-1,1,2,10,1,11,7,5,8],"swapped_pitches":[-1,1,5,-1,1,9,2,1,11,7,5,8],"shift_direction":1,"question_num":61,"has_decoy":false},{"rt":498.19999999925494,"stimulus":"[A] option 1, [L] option 2, [G] neither","key_press":65,"name":"choice","trial_type":"html-keyboard-response","trial_index":87,"time_elapsed":171751,"internal_node_id":"0.0-87.0","subject":"S1C1212","sona":"41500","block":5,"time":"2021-09-15T17:27:56.793Z","response":"1st","certainty":"high","char":"A","transposition":1,"order":["shifted","swapped"],"probe_pitches":[-1,3,1,9,3,6,11,3,6,11,0,2],"shifted_pitches":[-1,3,1,9,3,5,11,3,6,11,0,2],"swapped_pitches":[-1,3,1,9,3,11,6,3,6,11,0,2],"shift_direction":-1,"question_num":71,"has_decoy":false},{"rt":1560,"stimulus":"[A] option 1, [L] option 2, [G] neither","key_press":76,"name":"choice","trial_type":"html-keyboard-response","trial_index":98,"time_elapsed":191992,"internal_node_id":"0.0-98.0","subject":"S1C1212","sona":"41500","block":5,"time":"2021-09-15T17:27:56.793Z","response":"2nd","certainty":"high","char":"L","transposition":0,"order":["swapped","shifted"],"probe_pitches":[11,7,6,10,7,0,5,8,3,7,8,-1],"shifted_pitches":[11,7,6,10,7,1,5,8,3,7,8,-1],"swapped_pitches":[11,7,6,10,7,5,0,8,3,7,8,-1],"shift_direction":1,"question_num":81,"has_decoy":false},{"rt":1231.5,"stimulus":"[A] option 1, [L] option 2, [G] neither","key_press":65,"name":"choice","trial_type":"html-keyboard-response","trial_index":109,"time_elapsed":212345,"internal_node_id":"0.0-109.0","subject":"S1C1212","sona":"41500","block":5,"time":"2021-09-15T17:27:56.793Z","response":"1st","certainty":"high","char":"A","transposition":1,"order":["shifted","swapped"],"probe_pitches":[0,-2,3,7,0,5,-2,7,10,3,10,7],"shifted_pitches":[0,-2,3,7,0,5,-1,7,10,3,10,7],"swapped_pitches":[0,-2,3,7,0,-2,5,7,10,3,10,7],"shift_direction":1,"question_num":91,"has_decoy":false},{"rt":1413.699999999255,"stimulus":"[A] option 1, [L] option 2, [G] neither","key_press":65,"name":"choice","trial_type":"html-keyboard-response","trial_index":120,"time_elapsed":235604,"internal_node_id":"0.0-120.0","subject":"S1C1212","sona":"41500","block":5,"time":"2021-09-15T17:27:56.793Z","response":"1st","certainty":"high","char":"A","transposition":2,"order":["shifted","swapped"],"probe_pitches":[-2,2,-2,0,7,5,10,0,2,5,10,0],"shifted_pitches":[-2,2,-2,0,7,4,10,0,2,5,10,0],"swapped_pitches":[-2,2,-2,0,7,10,5,0,2,5,10,0],"shift_direction":-1,"question_num":101,"has_decoy":false},{"rt":1733.699999999255,"stimulus":"[A] option 1, [L] option 2, [G] neither","key_press":65,"name":"choice","trial_type":"html-keyboard-response","trial_index":131,"time_elapsed":255897,"internal_node_id":"0.0-131.0","subject":"S1C1212","sona":"41500","block":5,"time":"2021-09-15T17:27:56.793Z","response":"1st","certainty":"high","char":"A","transposition":-1,"order":["shifted","swapped"],"probe_pitches":[10,5,8,5,3,5,8,3,0,5,0,10],"shifted_pitches":[10,5,8,5,3,4,8,3,0,5,0,10],"swapped_pitches":[10,5,8,5,3,8,5,3,0,5,0,10],"shift_direction":-1,"question_num":111,"has_decoy":false},{"rt":2971,"stimulus":"[A] option 1, [L] option 2, [G] neither","key_press":65,"name":"choice","trial_type":"html-keyboard-response","trial_index":142,"time_elapsed":277432,"internal_node_id":"0.0-142.0","subject":"S1C1212","sona":"41500","block":5,"time":"2021-09-15T17:27:56.793Z","response":"1st","certainty":"high","char":"A","transposition":2,"order":["shifted","swapped"],"probe_pitches":[4,10,8,0,3,10,2,-1,7,4,11,8],"shifted_pitches":[4,10,8,0,3,9,2,-1,7,4,11,8],"swapped_pitches":[4,10,8,0,3,2,10,-1,7,4,11,8],"shift_direction":-1,"question_num":121,"has_decoy":false},{"rt":523.5,"stimulus":"[A] option 1, [L] option 2, [G] neither","key_press":65,"name":"choice","trial_type":"html-keyboard-response","trial_index":153,"time_elapsed":296392,"internal_node_id":"0.0-153.0","subject":"S1C1212","sona":"41500","block":5,"time":"2021-09-15T17:27:56.793Z","response":"1st","certainty":"high","char":"A","transposition":-2,"order":["shifted","swapped"],"probe_pitches":[10,8,1,6,3,-2,1,6,8,10,1,-2],"shifted_pitches":[10,8,1,6,3,-2,2,6,8,10,1,-2],"swapped_pitches":[10,8,1,6,3,1,-2,6,8,10,1,-2],"shift_direction":1,"question_num":131,"has_decoy":false},{"rt":1880.5,"stimulus":"[A] option 1, [L] option 2, [G] neither","key_press":65,"name":"choice","trial_type":"html-keyboard-response","trial_index":164,"time_elapsed":317642,"internal_node_id":"0.0-164.0","subject":"S1C1212","sona":"41500","block":5,"time":"2021-09-15T17:27:56.793Z","response":"1st","certainty":"high","char":"A","transposition":0,"order":["swapped","shifted"],"probe_pitches":[7,3,-2,5,0,7,-2,10,5,7,10,5],"shifted_pitches":[7,3,-2,5,0,7,-3,10,5,7,10,5],"swapped_pitches":[7,3,-2,5,0,-2,7,10,5,7,10,5],"shift_direction":-1,"question_num":141,"has_decoy":false},{"rt":1300.5,"stimulus":"[A] option 1, [L] option 2, [G] neither","key_press":65,"name":"choice","trial_type":"html-keyboard-response","trial_index":175,"time_elapsed":337487,"internal_node_id":"0.0-175.0","subject":"S1C1212","sona":"41500","block":5,"time":"2021-09-15T17:27:56.793Z","response":"1st","certainty":"high","char":"A","transposition":-2,"order":["shifted","swapped"],"probe_pitches":[-1,5,4,1,10,9,8,1,0,11,5,3],"shifted_pitches":[-1,5,4,1,10,9,7,1,0,11,5,3],"swapped_pitches":[-1,5,4,1,10,8,9,1,0,11,5,3],"shift_direction":-1,"question_num":151,"has_decoy":false},{"rt":2207.5,"stimulus":"[A] option 1, [L] option 2, [G] neither","key_press":76,"name":"choice","trial_type":"html-keyboard-response","trial_index":186,"time_elapsed":360847,"internal_node_id":"0.0-186.0","subject":"S1C1212","sona":"41500","block":5,"time":"2021-09-15T17:27:56.793Z","response":"2nd","certainty":"high","char":"L","transposition":3,"order":["swapped","shifted"],"probe_pitches":[3,8,3,-2,3,1,5,8,10,-2,10,8],"shifted_pitches":[3,8,3,-2,3,2,5,8,10,-2,10,8],"swapped_pitches":[3,8,3,-2,3,5,1,8,10,-2,10,8],"shift_direction":1,"question_num":161,"has_decoy":false},{"rt":1343.4000000022352,"stimulus":"[A] option 1, [L] option 2, [G] neither","key_press":65,"name":"choice","trial_type":"html-keyboard-response","trial_index":197,"time_elapsed":381684,"internal_node_id":"0.0-197.0","subject":"S1C1212","sona":"41500","block":5,"time":"2021-09-15T17:27:56.793Z","response":"1st","certainty":"high","char":"A","transposition":3,"order":["shifted","swapped"],"probe_pitches":[4,1,4,7,10,0,2,6,1,0,1,4],"shifted_pitches":[4,1,4,7,10,0,3,6,1,0,1,4],"swapped_pitches":[4,1,4,7,10,2,0,6,1,0,1,4],"shift_direction":1,"question_num":171,"has_decoy":false},{"rt":987.5,"stimulus":"[A] option 1, [L] option 2, [G] neither","key_press":76,"name":"choice","trial_type":"html-keyboard-response","trial_index":208,"time_elapsed":401146,"internal_node_id":"0.0-208.0","subject":"S1C1212","sona":"41500","block":5,"time":"2021-09-15T17:27:56.793Z","response":"2nd","certainty":"high","char":"L","transposition":-2,"order":["swapped","shifted"],"probe_pitches":[5,8,3,8,10,5,8,0,8,-2,10,0],"shifted_pitches":[5,8,3,8,10,5,7,0,8,-2,10,0],"swapped_pitches":[5,8,3,8,10,8,5,0,8,-2,10,0],"shift_direction":-1,"question_num":181,"has_decoy":false},{"rt":1746.199999999255,"stimulus":"[A] option 1, [L] option 2, [G] neither","key_press":65,"name":"choice","trial_type":"html-keyboard-response","trial_index":219,"time_elapsed":422320,"internal_node_id":"0.0-219.0","subject":"S1C1212","sona":"41500","block":5,"time":"2021-09-15T17:27:56.793Z","response":"1st","certainty":"high","char":"A","transposition":-1,"order":["swapped","shifted"],"probe_pitches":[10,8,5,2,4,9,5,10,4,11,4,8],"shifted_pitches":[10,8,5,2,4,9,6,10,4,11,4,8],"swapped_pitches":[10,8,5,2,4,5,9,10,4,11,4,8],"shift_direction":1,"question_num":191,"has_decoy":false}]