[{"rt":3139.89999999851,"stimulus":"[A] option 1, [L] option 2, [G] neither","key_press":65,"name":"choice","trial_type":"html-keyboard-response","trial_index":10,"time_elapsed":22809,"internal_node_id":"0.0-10.0","subject":"S1C1212","sona":"41500","block":4,"time":"2021-09-15T17:20:51.539Z","response":"1st","certainty":"high","char":"A","transposition":2,"order":["swapped","shifted"],"probe_pitches":[3,8,10,8,5,0,3,-2,8,3,-2,3],"shifted_pitches":[3,8,10,8,5,0,2,-2,8,3,-2,3],"swapped_pitches":[3,8,10,8,5,3,0,-2,8,3,-2,3],"shift_direction":-1,"question_num":1,"has_decoy":false},{"rt":2005.800000000745,"stimulus":"[A] option 1, [L] option 2, [G] neither","key_press":65,"name":"choice","trial_type":"html-keyboard-response","trial_index":21,"time_elapsed":46864,"internal_node_id":"0.0-21.0","subject":"S1C1212","sona":"41500","block":4,"time":"2021-09-15T17:20:51.539Z","response":"1st","certainty":"high","char":"A","transposition":-2,"order":["swapped","shifted"],"probe_pitches":[3,8,10,3,8,10,1,3,1,-2,5,1],"shifted_pitches":[3,8,10,3,8,10,2,3,1,-2,5,1],"swapped_pitches":[3,8,10,3,8,1,10,3,1,-2,5,1],"shift_direction":1,"question_num":11,"has_decoy":false},{"rt":2629.7000000029802,"stimulus":"[A] option 1, [L] option 2, [G] neither","key_press":76,"name":"choice","trial_type":"html-keyboard-response","trial_index":32,"time_elapsed":68410,"internal_node_id":"0.0-32.0","subject":"S1C1212","sona":"41500","block":4,"time":"2021-09-15T17:20:51.539Z","response":"2nd","certainty":"high","char":"L","transposition":-2,"order":["swapped","shifted"],"probe_pitches":[2,5,10,2,8,12,7,9,6,12,9,6],"shifted_pitches":[2,5,10,2,8,11,7,9,6,12,9,6],"swapped_pitches":[2,5,10,2,8,7,12,9,6,12,9,6],"shift_direction":-1,"question_num":21,"has_decoy":false},{"rt":1600.300000000745,"stimulus":"[A] option 1, [L] option 2, [G] neither","key_press":65,"name":"choice","trial_type":"html-keyboard-response","trial_index":43,"time_elapsed":88372,"internal_node_id":"0.0-43.0","subject":"S1C1212","sona":"41500","block":4,"time":"2021-09-15T17:20:51.539Z","response":"1st","certainty":"high","char":"A","transposition":-1,"order":["shifted","swapped"],"probe_pitches":[-2,0,5,7,5,7,10,-2,10,-2,3,7],"shifted_pitches":[-2,0,5,7,5,8,10,-2,10,-2,3,7],"swapped_pitches":[-2,0,5,7,5,10,7,-2,10,-2,3,7],"shift_direction":1,"question_num":31,"has_decoy":false},{"rt":1291,"stimulus":"[A] option 1, [L] option 2, [G] neither","key_press":65,"name":"choice","trial_type":"html-keyboard-response","trial_index":54,"time_elapsed":109416,"internal_node_id":"0.0-54.0","subject":"S1C1212","sona":"41500","block":4,"time":"2021-09-15T17:20:51.539Z","response":"1st","certainty":"high","char":"A","transposition":1,"order":["shifted","swapped"],"probe_pitches":[0,3,5,10,7,5,3,7,3,5,0,10],"shifted_pitches":[0,3,5,10,7,6,3,7,3,5,0,10],"swapped_pitches":[0,3,5,10,7,3,5,7,3,5,0,10],"shift_direction":1,"question_num":41,"has_decoy":false},{"rt":1550.4000000022352,"stimulus":"[A] option 1, [L] option 2, [G] neither","key_press":76,"name":"choice","trial_type":"html-keyboard-response","trial_index":65,"time_elapsed":129259,"internal_node_id":"0.0-65.0","subject":"S1C1212","sona":"41500","block":4,"time":"2021-09-15T17:20:51.539Z","response":"2nd","certainty":"high","char":"L","transposition":-3,"order":["swapped","shifted"],"probe_pitches":[2,8,5,7,10,8,11,2,4,9,6,14],"shifted_pitches":[2,8,5,7,10,8,12,2,4,9,6,14],"swapped_pitches":[2,8,5,7,10,11,8,2,4,9,6,14],"shift_direction":1,"question_num":51,"has_decoy":false},{"rt":1431.300000000745,"stimulus":"[A] option 1, [L] option 2, [G] neither","key_press":65,"name":"choice","trial_type":"html-keyboard-response","trial_index":76,"time_elapsed":149603,"internal_node_id":"0.0-76.0","subject":"S1C1212","sona":"41500","block":4,"time":"2021-09-15T17:20:51.539Z","response":"1st","certainty":"high","char":"A","transposition":3,"order":["swapped","shifted"],"probe_pitches":[12,10,11,14,12,7,2,12,11,13,14,9],"shifted_pitches":[12,10,11,14,12,6,2,12,11,13,14,9],"swapped_pitches":[12,10,11,14,12,2,7,12,11,13,14,9],"shift_direction":-1,"question_num":61,"has_decoy":false},{"rt":1286,"stimulus":"[A] option 1, [L] option 2, [G] neither","key_press":76,"name":"choice","trial_type":"html-keyboard-response","trial_index":87,"time_elapsed":169340,"internal_node_id":"0.0-87.0","subject":"S1C1212","sona":"41500","block":4,"time":"2021-09-15T17:20:51.539Z","response":"2nd","certainty":"high","char":"L","transposition":3,"order":["swapped","shifted"],"probe_pitches":[1,6,8,1,-2,1,8,6,10,6,8,3],"shifted_pitches":[1,6,8,1,-2,1,9,6,10,6,8,3],"swapped_pitches":[1,6,8,1,-2,8,1,6,10,6,8,3],"shift_direction":1,"question_num":71,"has_decoy":false},{"rt":746.5999999977648,"stimulus":"[A] option 1, [L] option 2, [G] neither","key_press":65,"name":"choice","trial_type":"html-keyboard-response","trial_index":98,"time_elapsed":188560,"internal_node_id":"0.0-98.0","subject":"S1C1212","sona":"41500","block":4,"time":"2021-09-15T17:20:51.539Z","response":"1st","certainty":"high","char":"A","transposition":0,"order":["shifted","swapped"],"probe_pitches":[12,6,8,11,14,4,6,5,12,6,4,5],"shifted_pitches":[12,6,8,11,14,4,7,5,12,6,4,5],"swapped_pitches":[12,6,8,11,14,6,4,5,12,6,4,5],"shift_direction":1,"question_num":81,"has_decoy":false},{"rt":2573.10000000149,"stimulus":"[A] option 1, [L] option 2, [G] neither","key_press":71,"name":"choice","trial_type":"html-keyboard-response","trial_index":109,"time_elapsed":209553,"internal_node_id":"0.0-109.0","subject":"S1C1212","sona":"41500","block":4,"time":"2021-09-15T17:20:51.539Z","response":"neither","certainty":"high","char":"G","transposition":-3,"order":["swapped","shifted"],"probe_pitches":[1,5,8,1,8,3,-2,8,5,10,3,10],"shifted_pitches":[1,5,8,1,8,3,-3,8,5,10,3,10],"swapped_pitches":[1,5,8,1,8,-2,3,8,5,10,3,10],"shift_direction":-1,"question_num":91,"has_decoy":false},{"rt":703.9000000022352,"stimulus":"[A] option 1, [L] option 2, [G] neither","key_press":65,"name":"choice","trial_type":"html-keyboard-response","trial_index":120,"time_elapsed":230799,"internal_node_id":"0.0-120.0","subject":"S1C1212","sona":"41500","block":4,"time":"2021-09-15T17:20:51.539Z","response":"1st","certainty":"high","char":"A","transposition":-1,"order":["shifted","swapped"],"probe_pitches":[13,12,14,13,10,4,3,10,3,6,14,13],"shifted_pitches":[13,12,14,13,10,5,3,10,3,6,14,13],"swapped_pitches":[13,12,14,13,10,3,4,10,3,6,14,13],"shift_direction":1,"question_num":101,"has_decoy":false},{"rt":3558.199999999255,"stimulus":"[A] option 1, [L] option 2, [G] neither","key_press":65,"name":"choice","trial_type":"html-keyboard-response","trial_index":131,"time_elapsed":253017,"internal_node_id":"0.0-131.0","subject":"S1C1212","sona":"41500","block":4,"time":"2021-09-15T17:20:51.539Z","response":"1st","certainty":"high","char":"A","transposition":1,"order":["shifted","swapped"],"probe_pitches":[14,9,3,11,9,11,7,4,7,4,14,11],"shifted_pitches":[14,9,3,11,9,10,7,4,7,4,14,11],"swapped_pitches":[14,9,3,11,9,7,11,4,7,4,14,11],"shift_direction":-1,"question_num":111,"has_decoy":false},{"rt":553.6000000014901,"stimulus":"[A] option 1, [L] option 2, [G] neither","key_press":76,"name":"choice","trial_type":"html-keyboard-response","trial_index":142,"time_elapsed":271943,"internal_node_id":"0.0-142.0","subject":"S1C1212","sona":"41500","block":4,"time":"2021-09-15T17:20:51.539Z","response":"2nd","certainty":"high","char":"L","transposition":2,"order":["swapped","shifted"],"probe_pitches":[3,2,3,2,5,4,2,5,2,14,12,6],"shifted_pitches":[3,2,3,2,5,4,1,5,2,14,12,6],"swapped_pitches":[3,2,3,2,5,2,4,5,2,14,12,6],"shift_direction":-1,"question_num":121,"has_decoy":false},{"rt":2597.900000002235,"stimulus":"[A] option 1, [L] option 2, [G] neither","key_press":76,"name":"choice","trial_type":"html-keyboard-response","trial_index":153,"time_elapsed":292963,"internal_node_id":"0.0-153.0","subject":"S1C1212","sona":"41500","block":4,"time":"2021-09-15T17:20:51.539Z","response":"2nd","certainty":"high","char":"L","transposition":-2,"order":["shifted","swapped"],"probe_pitches":[2,3,2,7,11,10,5,6,7,6,3,2],"shifted_pitches":[2,3,2,7,11,9,5,6,7,6,3,2],"swapped_pitches":[2,3,2,7,11,5,10,6,7,6,3,2],"shift_direction":-1,"question_num":131,"has_decoy":false},{"rt":6291.29999999702,"stimulus":"[A] option 1, [L] option 2, [G] neither","key_press":65,"name":"choice","trial_type":"html-keyboard-response","trial_index":164,"time_elapsed":318197,"internal_node_id":"0.0-164.0","subject":"S1C1212","sona":"41500","block":4,"time":"2021-09-15T17:20:51.539Z","response":"1st","certainty":"high","char":"A","transposition":-1,"order":["shifted","swapped"],"probe_pitches":[-2,0,5,7,2,5,7,2,5,2,10,2],"shifted_pitches":[-2,0,5,7,2,4,7,2,5,2,10,2],"swapped_pitches":[-2,0,5,7,2,7,5,2,5,2,10,2],"shift_direction":-1,"question_num":141,"has_decoy":false},{"rt":2602,"stimulus":"[A] option 1, [L] option 2, [G] neither","key_press":65,"name":"choice","trial_type":"html-keyboard-response","trial_index":175,"time_elapsed":339349,"internal_node_id":"0.0-175.0","subject":"S1C1212","sona":"41500","block":4,"time":"2021-09-15T17:20:51.539Z","response":"1st","certainty":"high","char":"A","transposition":0,"order":["shifted","swapped"],"probe_pitches":[2,7,10,5,-2,5,7,10,-2,0,5,7],"shifted_pitches":[2,7,10,5,-2,5,6,10,-2,0,5,7],"swapped_pitches":[2,7,10,5,-2,7,5,10,-2,0,5,7],"shift_direction":-1,"question_num":151,"has_decoy":false},{"rt":1051.3999999985099,"stimulus":"[A] option 1, [L] option 2, [G] neither","key_press":76,"name":"choice","trial_type":"html-keyboard-response","trial_index":186,"time_elapsed":358721,"internal_node_id":"0.0-186.0","subject":"S1C1212","sona":"41500","block":4,"time":"2021-09-15T17:20:51.539Z","response":"2nd","certainty":"high","char":"L","transposition":-3,"order":["shifted","swapped"],"probe_pitches":[3,5,6,9,11,9,3,13,6,8,2,9],"shifted_pitches":[3,5,6,9,11,9,4,13,6,8,2,9],"swapped_pitches":[3,5,6,9,11,3,9,13,6,8,2,9],"shift_direction":1,"question_num":161,"has_decoy":false},{"rt":1148.300000000745,"stimulus":"[A] option 1, [L] option 2, [G] neither","key_press":65,"name":"choice","trial_type":"html-keyboard-response","trial_index":197,"time_elapsed":378529,"internal_node_id":"0.0-197.0","subject":"S1C1212","sona":"41500","block":4,"time":"2021-09-15T17:20:51.539Z","response":"1st","certainty":"high","char":"A","transposition":-3,"order":["shifted","swapped"],"probe_pitches":[3,5,3,10,5,3,10,8,0,-2,3,10],"shifted_pitches":[3,5,3,10,5,2,10,8,0,-2,3,10],"swapped_pitches":[3,5,3,10,5,10,3,8,0,-2,3,10],"shift_direction":-1,"question_num":171,"has_decoy":false},{"rt":1794,"stimulus":"[A] option 1, [L] option 2, [G] neither","key_press":76,"name":"choice","trial_type":"html-keyboard-response","trial_index":208,"time_elapsed":398673,"internal_node_id":"0.0-208.0","subject":"S1C1212","sona":"41500","block":4,"time":"2021-09-15T17:20:51.539Z","response":"2nd","certainty":"high","char":"L","transposition":-2,"order":["swapped","shifted"],"probe_pitches":[8,6,8,10,8,10,6,1,10,3,6,1],"shifted_pitches":[8,6,8,10,8,11,6,1,10,3,6,1],"swapped_pitches":[8,6,8,10,8,6,10,1,10,3,6,1],"shift_direction":1,"question_num":181,"has_decoy":false},{"rt":1378.3999999985099,"stimulus":"[A] option 1, [L] option 2, [G] neither","key_press":76,"name":"choice","trial_type":"html-keyboard-response","trial_index":219,"time_elapsed":418378,"internal_node_id":"0.0-219.0","subject":"S1C1212","sona":"41500","block":4,"time":"2021-09-15T17:20:51.539Z","response":"2nd","certainty":"high","char":"L","transposition":-1,"order":["swapped","shifted"],"probe_pitches":[7,6,2,6,9,14,7,6,14,7,14,4],"shifted_pitches":[7,6,2,6,9,14,8,6,14,7,14,4],"swapped_pitches":[7,6,2,6,9,7,14,6,14,7,14,4],"shift_direction":1,"question_num":191,"has_decoy":false}]