[{"rt":2828.89999999851,"stimulus":"[A] option 1, [L] option 2, [G] neither","key_press":76,"name":"choice","trial_type":"html-keyboard-response","trial_index":10,"time_elapsed":24132,"internal_node_id":"0.0-10.0","subject":"S1C1212","sona":"41500","block":6,"time":"2021-09-15T17:34:59.084Z","response":"2nd","certainty":"high","char":"L","transposition":-2,"order":["shifted","swapped"],"probe_pitches":[8,6,9,2,5,0,4,-3,0,5,6,3],"shifted_pitches":[8,6,9,2,5,1,4,-3,0,5,6,3],"swapped_pitches":[8,6,9,2,5,4,0,-3,0,5,6,3],"shift_direction":1,"question_num":1,"has_decoy":false},{"rt":2910.800000000745,"stimulus":"[A] option 1, [L] option 2, [G] neither","key_press":76,"name":"choice","trial_type":"html-keyboard-response","trial_index":21,"time_elapsed":45696,"internal_node_id":"0.0-21.0","subject":"S1C1212","sona":"41500","block":6,"time":"2021-09-15T17:34:59.084Z","response":"2nd","certainty":"high","char":"L","transposition":1,"order":["swapped","shifted"],"probe_pitches":[6,1,8,3,6,1,8,11,1,8,6,-1],"shifted_pitches":[6,1,8,3,6,1,9,11,1,8,6,-1],"swapped_pitches":[6,1,8,3,6,8,1,11,1,8,6,-1],"shift_direction":1,"question_num":11,"has_decoy":false},{"rt":392.3999999985099,"stimulus":"[A] option 1, [L] option 2, [G] neither","key_press":76,"name":"choice","trial_type":"html-keyboard-response","trial_index":32,"time_elapsed":64478,"internal_node_id":"0.0-32.0","subject":"S1C1212","sona":"41500","block":6,"time":"2021-09-15T17:34:59.084Z","response":"2nd","certainty":"high","char":"L","transposition":3,"order":["shifted","swapped"],"probe_pitches":[-3,-1,0,-1,0,-1,3,6,-1,-3,3,1],"shifted_pitches":[-3,-1,0,-1,0,-1,4,6,-1,-3,3,1],"swapped_pitches":[-3,-1,0,-1,0,3,-1,6,-1,-3,3,1],"shift_direction":1,"question_num":21,"has_decoy":false},{"rt":2299,"stimulus":"[A] option 1, [L] option 2, [G] neither","key_press":65,"name":"choice","trial_type":"html-keyboard-response","trial_index":43,"time_elapsed":85621,"internal_node_id":"0.0-43.0","subject":"S1C1212","sona":"41500","block":6,"time":"2021-09-15T17:34:59.084Z","response":"1st","certainty":"high","char":"A","transposition":-2,"order":["shifted","swapped"],"probe_pitches":[11,9,4,6,4,11,6,-1,4,6,1,4],"shifted_pitches":[11,9,4,6,4,12,6,-1,4,6,1,4],"swapped_pitches":[11,9,4,6,4,6,11,-1,4,6,1,4],"shift_direction":1,"question_num":31,"has_decoy":false},{"rt":1307,"stimulus":"[A] option 1, [L] option 2, [G] neither","key_press":76,"name":"choice","trial_type":"html-keyboard-response","trial_index":54,"time_elapsed":105114,"internal_node_id":"0.0-54.0","subject":"S1C1212","sona":"41500","block":6,"time":"2021-09-15T17:34:59.084Z","response":"2nd","certainty":"high","char":"L","transposition":-2,"order":["swapped","shifted"],"probe_pitches":[8,3,0,8,9,5,0,2,-2,7,-2,4],"shifted_pitches":[8,3,0,8,9,5,-1,2,-2,7,-2,4],"swapped_pitches":[8,3,0,8,9,0,5,2,-2,7,-2,4],"shift_direction":-1,"question_num":41,"has_decoy":false},{"rt":1350,"stimulus":"[A] option 1, [L] option 2, [G] neither","key_press":76,"name":"choice","trial_type":"html-keyboard-response","trial_index":65,"time_elapsed":124835,"internal_node_id":"0.0-65.0","subject":"S1C1212","sona":"41500","block":6,"time":"2021-09-15T17:34:59.084Z","response":"2nd","certainty":"high","char":"L","transposition":-1,"order":["swapped","shifted"],"probe_pitches":[9,3,6,-1,-3,3,0,-3,5,6,-3,4],"shifted_pitches":[9,3,6,-1,-3,2,0,-3,5,6,-3,4],"swapped_pitches":[9,3,6,-1,-3,0,3,-3,5,6,-3,4],"shift_direction":-1,"question_num":51,"has_decoy":false},{"rt":1056.5,"stimulus":"[A] option 1, [L] option 2, [G] neither","key_press":65,"name":"choice","trial_type":"html-keyboard-response","trial_index":76,"time_elapsed":144723,"internal_node_id":"0.0-76.0","subject":"S1C1212","sona":"41500","block":6,"time":"2021-09-15T17:34:59.084Z","response":"1st","certainty":"high","char":"A","transposition":1,"order":["swapped","shifted"],"probe_pitches":[8,4,8,2,9,4,2,9,4,6,-3,4],"shifted_pitches":[8,4,8,2,9,5,2,9,4,6,-3,4],"swapped_pitches":[8,4,8,2,9,2,4,9,4,6,-3,4],"shift_direction":1,"question_num":61,"has_decoy":false},{"rt":2747.699999999255,"stimulus":"[A] option 1, [L] option 2, [G] neither","key_press":76,"name":"choice","trial_type":"html-keyboard-response","trial_index":87,"time_elapsed":166116,"internal_node_id":"0.0-87.0","subject":"S1C1212","sona":"41500","block":6,"time":"2021-09-15T17:34:59.084Z","response":"2nd","certainty":"high","char":"L","transposition":0,"order":["shifted","swapped"],"probe_pitches":[1,3,6,3,1,6,11,8,-1,6,-1,6],"shifted_pitches":[1,3,6,3,1,5,11,8,-1,6,-1,6],"swapped_pitches":[1,3,6,3,1,11,6,8,-1,6,-1,6],"shift_direction":-1,"question_num":71,"has_decoy":false},{"rt":945.0999999977648,"stimulus":"[A] option 1, [L] option 2, [G] neither","key_press":76,"name":"choice","trial_type":"html-keyboard-response","trial_index":98,"time_elapsed":185491,"internal_node_id":"0.0-98.0","subject":"S1C1212","sona":"41500","block":6,"time":"2021-09-15T17:34:59.084Z","response":"2nd","certainty":"high","char":"L","transposition":2,"order":["shifted","swapped"],"probe_pitches":[4,2,-2,2,7,-1,2,8,-2,5,0,-1],"shifted_pitches":[4,2,-2,2,7,-1,3,8,-2,5,0,-1],"swapped_pitches":[4,2,-2,2,7,2,-1,8,-2,5,0,-1],"shift_direction":1,"question_num":81,"has_decoy":false},{"rt":2551.10000000149,"stimulus":"[A] option 1, [L] option 2, [G] neither","key_press":65,"name":"choice","trial_type":"html-keyboard-response","trial_index":109,"time_elapsed":206416,"internal_node_id":"0.0-109.0","subject":"S1C1212","sona":"41500","block":6,"time":"2021-09-15T17:34:59.084Z","response":"1st","certainty":"high","char":"A","transposition":0,"order":["swapped","shifted"],"probe_pitches":[4,6,1,-3,4,-3,1,3,1,9,-2,3],"shifted_pitches":[4,6,1,-3,4,-4,1,3,1,9,-2,3],"swapped_pitches":[4,6,1,-3,4,1,-3,3,1,9,-2,3],"shift_direction":-1,"question_num":91,"has_decoy":false},{"rt":2977,"stimulus":"[A] option 1, [L] option 2, [G] neither","key_press":65,"name":"choice","trial_type":"html-keyboard-response","trial_index":120,"time_elapsed":228221,"internal_node_id":"0.0-120.0","subject":"S1C1212","sona":"41500","block":6,"time":"2021-09-15T17:34:59.084Z","response":"1st","certainty":"high","char":"A","transposition":-1,"order":["shifted","swapped"],"probe_pitches":[5,0,-3,2,-2,7,-1,9,-2,5,7,0],"shifted_pitches":[5,0,-3,2,-2,6,-1,9,-2,5,7,0],"swapped_pitches":[5,0,-3,2,-2,-1,7,9,-2,5,7,0],"shift_direction":-1,"question_num":101,"has_decoy":false},{"rt":1925.6000000014901,"stimulus":"[A] option 1, [L] option 2, [G] neither","key_press":76,"name":"choice","trial_type":"html-keyboard-response","trial_index":131,"time_elapsed":248610,"internal_node_id":"0.0-131.0","subject":"S1C1212","sona":"41500","block":6,"time":"2021-09-15T17:34:59.084Z","response":"2nd","certainty":"high","char":"L","transposition":-2,"order":["shifted","swapped"],"probe_pitches":[11,6,4,11,8,6,4,-1,11,1,4,6],"shifted_pitches":[11,6,4,11,8,6,3,-1,11,1,4,6],"swapped_pitches":[11,6,4,11,8,4,6,-1,11,1,4,6],"shift_direction":-1,"question_num":111,"has_decoy":false},{"rt":1861.8999999985099,"stimulus":"[A] option 1, [L] option 2, [G] neither","key_press":65,"name":"choice","trial_type":"html-keyboard-response","trial_index":142,"time_elapsed":268823,"internal_node_id":"0.0-142.0","subject":"S1C1212","sona":"41500","block":6,"time":"2021-09-15T17:34:59.084Z","response":"1st","certainty":"high","char":"A","transposition":-3,"order":["shifted","swapped"],"probe_pitches":[3,5,-1,6,-2,6,8,4,5,6,3,9],"shifted_pitches":[3,5,-1,6,-2,6,7,4,5,6,3,9],"swapped_pitches":[3,5,-1,6,-2,8,6,4,5,6,3,9],"shift_direction":-1,"question_num":121,"has_decoy":false},{"rt":1997,"stimulus":"[A] option 1, [L] option 2, [G] neither","key_press":65,"name":"choice","trial_type":"html-keyboard-response","trial_index":153,"time_elapsed":289495,"internal_node_id":"0.0-153.0","subject":"S1C1212","sona":"41500","block":6,"time":"2021-09-15T17:34:59.084Z","response":"1st","certainty":"high","char":"A","transposition":2,"order":["swapped","shifted"],"probe_pitches":[9,7,2,7,-1,2,11,9,4,2,-1,9],"shifted_pitches":[9,7,2,7,-1,2,12,9,4,2,-1,9],"swapped_pitches":[9,7,2,7,-1,11,2,9,4,2,-1,9],"shift_direction":1,"question_num":131,"has_decoy":false},{"rt":495.19999999925494,"stimulus":"[A] option 1, [L] option 2, [G] neither","key_press":76,"name":"choice","trial_type":"html-keyboard-response","trial_index":164,"time_elapsed":308505,"internal_node_id":"0.0-164.0","subject":"S1C1212","sona":"41500","block":6,"time":"2021-09-15T17:34:59.084Z","response":"2nd","certainty":"high","char":"L","transposition":3,"order":["shifted","swapped"],"probe_pitches":[9,11,6,9,1,4,9,11,6,11,1,6],"shifted_pitches":[9,11,6,9,1,3,9,11,6,11,1,6],"swapped_pitches":[9,11,6,9,1,9,4,11,6,11,1,6],"shift_direction":-1,"question_num":141,"has_decoy":false},{"rt":2211.89999999851,"stimulus":"[A] option 1, [L] option 2, [G] neither","key_press":65,"name":"choice","trial_type":"html-keyboard-response","trial_index":175,"time_elapsed":329037,"internal_node_id":"0.0-175.0","subject":"S1C1212","sona":"41500","block":6,"time":"2021-09-15T17:34:59.084Z","response":"1st","certainty":"high","char":"A","transposition":-3,"order":["swapped","shifted"],"probe_pitches":[4,6,-1,6,11,6,-1,1,4,8,1,4],"shifted_pitches":[4,6,-1,6,11,7,-1,1,4,8,1,4],"swapped_pitches":[4,6,-1,6,11,-1,6,1,4,8,1,4],"shift_direction":1,"question_num":151,"has_decoy":false},{"rt":3063.39999999851,"stimulus":"[A] option 1, [L] option 2, [G] neither","key_press":65,"name":"choice","trial_type":"html-keyboard-response","trial_index":186,"time_elapsed":351456,"internal_node_id":"0.0-186.0","subject":"S1C1212","sona":"41500","block":6,"time":"2021-09-15T17:34:59.084Z","response":"1st","certainty":"high","char":"A","transposition":-1,"order":["swapped","shifted"],"probe_pitches":[-1,4,6,2,11,9,2,4,11,4,11,2],"shifted_pitches":[-1,4,6,2,11,8,2,4,11,4,11,2],"swapped_pitches":[-1,4,6,2,11,2,9,4,11,4,11,2],"shift_direction":-1,"question_num":161,"has_decoy":false},{"rt":1576.8999999985099,"stimulus":"[A] option 1, [L] option 2, [G] neither","key_press":76,"name":"choice","trial_type":"html-keyboard-response","trial_index":197,"time_elapsed":372395,"internal_node_id":"0.0-197.0","subject":"S1C1212","sona":"41500","block":6,"time":"2021-09-15T17:34:59.084Z","response":"2nd","certainty":"high","char":"L","transposition":-3,"order":["swapped","shifted"],"probe_pitches":[4,7,11,4,9,2,7,11,9,7,2,-1],"shifted_pitches":[4,7,11,4,9,2,6,11,9,7,2,-1],"swapped_pitches":[4,7,11,4,9,7,2,11,9,7,2,-1],"shift_direction":-1,"question_num":171,"has_decoy":false},{"rt":4270,"stimulus":"[A] option 1, [L] option 2, [G] neither","key_press":65,"name":"choice","trial_type":"html-keyboard-response","trial_index":208,"time_elapsed":396080,"internal_node_id":"0.0-208.0","subject":"S1C1212","sona":"41500","block":6,"time":"2021-09-15T17:34:59.084Z","response":"1st","certainty":"high","char":"A","transposition":-3,"order":["swapped","shifted"],"probe_pitches":[2,8,2,4,6,5,-1,7,3,-2,7,-2],"shifted_pitches":[2,8,2,4,6,5,0,7,3,-2,7,-2],"swapped_pitches":[2,8,2,4,6,-1,5,7,3,-2,7,-2],"shift_direction":1,"question_num":181,"has_decoy":false},{"rt":2671.60000000149,"stimulus":"[A] option 1, [L] option 2, [G] neither","key_press":76,"name":"choice","trial_type":"html-keyboard-response","trial_index":219,"time_elapsed":418321,"internal_node_id":"0.0-219.0","subject":"S1C1212","sona":"41500","block":6,"time":"2021-09-15T17:34:59.084Z","response":"2nd","certainty":"high","char":"L","transposition":-1,"order":["shifted","swapped"],"probe_pitches":[6,4,6,11,2,-1,6,9,-1,2,4,9],"shifted_pitches":[6,4,6,11,2,-1,7,9,-1,2,4,9],"swapped_pitches":[6,4,6,11,2,6,-1,9,-1,2,4,9],"shift_direction":1,"question_num":191,"has_decoy":false}]