[{"rt":806.0999999996275,"stimulus":"[A] option 1, [L] option 2, [G] neither","key_press":65,"name":"choice","trial_type":"html-keyboard-response","trial_index":10,"time_elapsed":22740,"internal_node_id":"0.0-10.0","subject":"S1C1212","sona":"41500","block":3,"time":"2021-09-15T17:13:50.287Z","response":"1st","certainty":"high","char":"A","transposition":-3,"order":["shifted","swapped"],"probe_pitches":[5,9,2,5,12,7,2,12,0,2,0,5],"shifted_pitches":[5,9,2,5,12,6,2,12,0,2,0,5],"swapped_pitches":[5,9,2,5,12,2,7,12,0,2,0,5],"shift_direction":-1,"question_num":1,"has_decoy":false},{"rt":794.2999999988824,"stimulus":"[A] option 1, [L] option 2, [G] neither","key_press":76,"name":"choice","trial_type":"html-keyboard-response","trial_index":21,"time_elapsed":41890,"internal_node_id":"0.0-21.0","subject":"S1C1212","sona":"41500","block":3,"time":"2021-09-15T17:13:50.287Z","response":"2nd","certainty":"high","char":"L","transposition":1,"order":["shifted","swapped"],"probe_pitches":[5,7,6,7,8,0,10,-1,6,0,4,2],"shifted_pitches":[5,7,6,7,8,1,10,-1,6,0,4,2],"swapped_pitches":[5,7,6,7,8,10,0,-1,6,0,4,2],"shift_direction":1,"question_num":11,"has_decoy":false},{"rt":752.0999999996275,"stimulus":"[A] option 1, [L] option 2, [G] neither","key_press":65,"name":"choice","trial_type":"html-keyboard-response","trial_index":32,"time_elapsed":61240,"internal_node_id":"0.0-32.0","subject":"S1C1212","sona":"41500","block":3,"time":"2021-09-15T17:13:50.287Z","response":"1st","certainty":"high","char":"A","transposition":3,"order":["swapped","shifted"],"probe_pitches":[3,0,3,0,8,10,12,3,10,5,3,8],"shifted_pitches":[3,0,3,0,8,10,13,3,10,5,3,8],"swapped_pitches":[3,0,3,0,8,12,10,3,10,5,3,8],"shift_direction":1,"question_num":21,"has_decoy":false},{"rt":503.69999999925494,"stimulus":"[A] option 1, [L] option 2, [G] neither","key_press":76,"name":"choice","trial_type":"html-keyboard-response","trial_index":43,"time_elapsed":80071,"internal_node_id":"0.0-43.0","subject":"S1C1212","sona":"41500","block":3,"time":"2021-09-15T17:13:50.287Z","response":"2nd","certainty":"high","char":"L","transposition":3,"order":["swapped","shifted"],"probe_pitches":[11,7,6,3,10,0,5,11,-1,9,8,1],"shifted_pitches":[11,7,6,3,10,0,4,11,-1,9,8,1],"swapped_pitches":[11,7,6,3,10,5,0,11,-1,9,8,1],"shift_direction":-1,"question_num":31,"has_decoy":false},{"rt":1200.4000000022352,"stimulus":"[A] option 1, [L] option 2, [G] neither","key_press":65,"name":"choice","trial_type":"html-keyboard-response","trial_index":54,"time_elapsed":99742,"internal_node_id":"0.0-54.0","subject":"S1C1212","sona":"41500","block":3,"time":"2021-09-15T17:13:50.287Z","response":"1st","certainty":"high","char":"A","transposition":-2,"order":["swapped","shifted"],"probe_pitches":[5,10,5,12,7,2,5,0,12,7,5,2],"shifted_pitches":[5,10,5,12,7,2,4,0,12,7,5,2],"swapped_pitches":[5,10,5,12,7,5,2,0,12,7,5,2],"shift_direction":-1,"question_num":41,"has_decoy":false},{"rt":1387.300000000745,"stimulus":"[A] option 1, [L] option 2, [G] neither","key_press":76,"name":"choice","trial_type":"html-keyboard-response","trial_index":65,"time_elapsed":119448,"internal_node_id":"0.0-65.0","subject":"S1C1212","sona":"41500","block":3,"time":"2021-09-15T17:13:50.287Z","response":"2nd","certainty":"high","char":"L","transposition":-2,"order":["shifted","swapped"],"probe_pitches":[2,7,9,4,9,0,7,4,0,7,9,2],"shifted_pitches":[2,7,9,4,9,0,6,4,0,7,9,2],"swapped_pitches":[2,7,9,4,9,7,0,4,0,7,9,2],"shift_direction":-1,"question_num":51,"has_decoy":false},{"rt":1353.699999999255,"stimulus":"[A] option 1, [L] option 2, [G] neither","key_press":65,"name":"choice","trial_type":"html-keyboard-response","trial_index":76,"time_elapsed":139232,"internal_node_id":"0.0-76.0","subject":"S1C1212","sona":"41500","block":3,"time":"2021-09-15T17:13:50.287Z","response":"1st","certainty":"high","char":"A","transposition":-3,"order":["shifted","swapped"],"probe_pitches":[11,8,4,2,10,8,5,2,3,5,7,6],"shifted_pitches":[11,8,4,2,10,9,5,2,3,5,7,6],"swapped_pitches":[11,8,4,2,10,5,8,2,3,5,7,6],"shift_direction":1,"question_num":61,"has_decoy":false},{"rt":549.1000000014901,"stimulus":"[A] option 1, [L] option 2, [G] neither","key_press":76,"name":"choice","trial_type":"html-keyboard-response","trial_index":87,"time_elapsed":158661,"internal_node_id":"0.0-87.0","subject":"S1C1212","sona":"41500","block":3,"time":"2021-09-15T17:13:50.287Z","response":"2nd","certainty":"high","char":"L","transposition":-2,"order":["swapped","shifted"],"probe_pitches":[11,6,5,9,0,-1,7,11,1,6,7,1],"shifted_pitches":[11,6,5,9,0,-1,8,11,1,6,7,1],"swapped_pitches":[11,6,5,9,0,7,-1,11,1,6,7,1],"shift_direction":1,"question_num":71,"has_decoy":false},{"rt":3216.10000000149,"stimulus":"[A] option 1, [L] option 2, [G] neither","key_press":65,"name":"choice","trial_type":"html-keyboard-response","trial_index":98,"time_elapsed":180208,"internal_node_id":"0.0-98.0","subject":"S1C1212","sona":"41500","block":3,"time":"2021-09-15T17:13:50.287Z","response":"1st","certainty":"high","char":"A","transposition":2,"order":["shifted","swapped"],"probe_pitches":[12,7,12,7,12,2,7,12,5,2,9,7],"shifted_pitches":[12,7,12,7,12,3,7,12,5,2,9,7],"swapped_pitches":[12,7,12,7,12,7,2,12,5,2,9,7],"shift_direction":1,"question_num":81,"has_decoy":false},{"rt":1050.4000000022352,"stimulus":"[A] option 1, [L] option 2, [G] neither","key_press":65,"name":"choice","trial_type":"html-keyboard-response","trial_index":109,"time_elapsed":199509,"internal_node_id":"0.0-109.0","subject":"S1C1212","sona":"41500","block":3,"time":"2021-09-15T17:13:50.287Z","response":"1st","certainty":"high","char":"A","transposition":-1,"order":["swapped","shifted"],"probe_pitches":[2,0,5,6,7,-1,4,10,4,1,10,-1],"shifted_pitches":[2,0,5,6,7,-1,3,10,4,1,10,-1],"swapped_pitches":[2,0,5,6,7,4,-1,10,4,1,10,-1],"shift_direction":-1,"question_num":91,"has_decoy":false},{"rt":2590.10000000149,"stimulus":"[A] option 1, [L] option 2, [G] neither","key_press":76,"name":"choice","trial_type":"html-keyboard-response","trial_index":120,"time_elapsed":220594,"internal_node_id":"0.0-120.0","subject":"S1C1212","sona":"41500","block":3,"time":"2021-09-15T17:13:50.287Z","response":"2nd","certainty":"high","char":"L","transposition":0,"order":["swapped","shifted"],"probe_pitches":[2,0,6,7,0,-1,8,4,9,4,6,3],"shifted_pitches":[2,0,6,7,0,-2,8,4,9,4,6,3],"swapped_pitches":[2,0,6,7,0,8,-1,4,9,4,6,3],"shift_direction":-1,"question_num":101,"has_decoy":false},{"rt":1345.800000000745,"stimulus":"[A] option 1, [L] option 2, [G] neither","key_press":65,"name":"choice","trial_type":"html-keyboard-response","trial_index":131,"time_elapsed":240288,"internal_node_id":"0.0-131.0","subject":"S1C1212","sona":"41500","block":3,"time":"2021-09-15T17:13:50.287Z","response":"1st","certainty":"high","char":"A","transposition":-2,"order":["shifted","swapped"],"probe_pitches":[5,9,8,4,6,1,3,9,10,4,10,5],"shifted_pitches":[5,9,8,4,6,2,3,9,10,4,10,5],"swapped_pitches":[5,9,8,4,6,3,1,9,10,4,10,5],"shift_direction":1,"question_num":111,"has_decoy":false},{"rt":1180.4000000022352,"stimulus":"[A] option 1, [L] option 2, [G] neither","key_press":65,"name":"choice","trial_type":"html-keyboard-response","trial_index":142,"time_elapsed":260180,"internal_node_id":"0.0-142.0","subject":"S1C1212","sona":"41500","block":3,"time":"2021-09-15T17:13:50.287Z","response":"1st","certainty":"high","char":"A","transposition":1,"order":["shifted","swapped"],"probe_pitches":[5,10,12,7,2,7,12,0,12,2,12,5],"shifted_pitches":[5,10,12,7,2,7,13,0,12,2,12,5],"swapped_pitches":[5,10,12,7,2,12,7,0,12,2,12,5],"shift_direction":1,"question_num":121,"has_decoy":false},{"rt":2362.099999997765,"stimulus":"[A] option 1, [L] option 2, [G] neither","key_press":65,"name":"choice","trial_type":"html-keyboard-response","trial_index":153,"time_elapsed":280919,"internal_node_id":"0.0-153.0","subject":"S1C1212","sona":"41500","block":3,"time":"2021-09-15T17:13:50.287Z","response":"1st","certainty":"high","char":"A","transposition":-3,"order":["swapped","shifted"],"probe_pitches":[11,8,11,10,8,2,7,9,5,3,4,3],"shifted_pitches":[11,8,11,10,8,2,6,9,5,3,4,3],"swapped_pitches":[11,8,11,10,8,7,2,9,5,3,4,3],"shift_direction":-1,"question_num":131,"has_decoy":false},{"rt":2811.199999999255,"stimulus":"[A] option 1, [L] option 2, [G] neither","key_press":65,"name":"choice","trial_type":"html-keyboard-response","trial_index":164,"time_elapsed":302189,"internal_node_id":"0.0-164.0","subject":"S1C1212","sona":"41500","block":3,"time":"2021-09-15T17:13:50.287Z","response":"1st","certainty":"high","char":"A","transposition":-3,"order":["swapped","shifted"],"probe_pitches":[3,0,3,7,5,3,10,5,7,3,12,10],"shifted_pitches":[3,0,3,7,5,4,10,5,7,3,12,10],"swapped_pitches":[3,0,3,7,5,10,3,5,7,3,12,10],"shift_direction":1,"question_num":141,"has_decoy":false},{"rt":2011,"stimulus":"[A] option 1, [L] option 2, [G] neither","key_press":76,"name":"choice","trial_type":"html-keyboard-response","trial_index":175,"time_elapsed":323084,"internal_node_id":"0.0-175.0","subject":"S1C1212","sona":"41500","block":3,"time":"2021-09-15T17:13:50.287Z","response":"2nd","certainty":"high","char":"L","transposition":0,"order":["swapped","shifted"],"probe_pitches":[12,10,12,5,12,10,7,12,7,12,10,3],"shifted_pitches":[12,10,12,5,12,10,6,12,7,12,10,3],"swapped_pitches":[12,10,12,5,12,7,10,12,7,12,10,3],"shift_direction":-1,"question_num":151,"has_decoy":false},{"rt":2922.400000002235,"stimulus":"[A] option 1, [L] option 2, [G] neither","key_press":65,"name":"choice","trial_type":"html-keyboard-response","trial_index":186,"time_elapsed":344565,"internal_node_id":"0.0-186.0","subject":"S1C1212","sona":"41500","block":3,"time":"2021-09-15T17:13:50.287Z","response":"1st","certainty":"high","char":"A","transposition":-1,"order":["swapped","shifted"],"probe_pitches":[2,0,2,9,2,4,7,9,7,9,4,7],"shifted_pitches":[2,0,2,9,2,5,7,9,7,9,4,7],"swapped_pitches":[2,0,2,9,2,7,4,9,7,9,4,7],"shift_direction":1,"question_num":161,"has_decoy":false},{"rt":3483,"stimulus":"[A] option 1, [L] option 2, [G] neither","key_press":65,"name":"choice","trial_type":"html-keyboard-response","trial_index":197,"time_elapsed":367568,"internal_node_id":"0.0-197.0","subject":"S1C1212","sona":"41500","block":3,"time":"2021-09-15T17:13:50.287Z","response":"1st","certainty":"high","char":"A","transposition":2,"order":["shifted","swapped"],"probe_pitches":[6,8,10,2,7,1,4,7,11,8,-1,4],"shifted_pitches":[6,8,10,2,7,1,5,7,11,8,-1,4],"swapped_pitches":[6,8,10,2,7,4,1,7,11,8,-1,4],"shift_direction":1,"question_num":171,"has_decoy":false},{"rt":2128.099999997765,"stimulus":"[A] option 1, [L] option 2, [G] neither","key_press":65,"name":"choice","trial_type":"html-keyboard-response","trial_index":208,"time_elapsed":390554,"internal_node_id":"0.0-208.0","subject":"S1C1212","sona":"41500","block":3,"time":"2021-09-15T17:13:50.287Z","response":"1st","certainty":"high","char":"A","transposition":-1,"order":["shifted","swapped"],"probe_pitches":[4,8,4,6,9,8,-1,3,10,3,10,9],"shifted_pitches":[4,8,4,6,9,7,-1,3,10,3,10,9],"swapped_pitches":[4,8,4,6,9,-1,8,3,10,3,10,9],"shift_direction":-1,"question_num":181,"has_decoy":false},{"rt":440.30000000074506,"stimulus":"[A] option 1, [L] option 2, [G] neither","key_press":65,"name":"choice","trial_type":"html-keyboard-response","trial_index":219,"time_elapsed":409639,"internal_node_id":"0.0-219.0","subject":"S1C1212","sona":"41500","block":3,"time":"2021-09-15T17:13:50.287Z","response":"1st","certainty":"high","char":"A","transposition":-1,"order":["shifted","swapped"],"probe_pitches":[8,10,5,8,10,3,12,5,12,3,8,10],"shifted_pitches":[8,10,5,8,10,2,12,5,12,3,8,10],"swapped_pitches":[8,10,5,8,10,12,3,5,12,3,8,10],"shift_direction":-1,"question_num":191,"has_decoy":false}]