[{"rt":5393.4000000003725,"stimulus":"[A] option 1, [L] option 2, [G] neither","key_press":65,"name":"choice","trial_type":"html-keyboard-response","trial_index":15,"time_elapsed":73451,"internal_node_id":"0.0-15.0","response":"1st","certainty":"high","char":"A","transposition":2,"order":["swapped","shifted"],"probe_pitches":[-1,1,2,8,5,7,2,4,3,8,-1,10],"shifted_pitches":[-1,1,2,8,5,6,2,4,3,8,-1,10],"swapped_pitches":[-1,1,2,8,5,2,7,4,3,8,-1,10],"shift_direction":-1,"question_num":1,"has_decoy":false,"subject":"S1C1212","sona":"41500","block":1,"time":"2021-09-15T16:59:54.735Z"},{"rt":1477,"stimulus":"[A] option 1, [L] option 2, [G] neither","key_press":76,"name":"choice","trial_type":"html-keyboard-response","trial_index":26,"time_elapsed":95016,"internal_node_id":"0.0-26.0","response":"2nd","certainty":"high","char":"L","transposition":-1,"order":["swapped","shifted"],"probe_pitches":[10,5,6,-2,3,1,6,9,1,5,6,2],"shifted_pitches":[10,5,6,-2,3,0,6,9,1,5,6,2],"swapped_pitches":[10,5,6,-2,3,6,1,9,1,5,6,2],"shift_direction":-1,"question_num":11,"has_decoy":false,"subject":"S1C1212","sona":"41500","block":1,"time":"2021-09-15T16:59:54.735Z"},{"rt":1745.0999999996275,"stimulus":"[A] option 1, [L] option 2, [G] neither","key_press":76,"name":"choice","trial_type":"html-keyboard-response","trial_index":37,"time_elapsed":115843,"internal_node_id":"0.0-37.0","response":"2nd","certainty":"high","char":"L","transposition":3,"order":["shifted","swapped"],"probe_pitches":[-2,-1,-2,-1,3,-1,7,3,9,10,9,-2],"shifted_pitches":[-2,-1,-2,-1,3,-1,8,3,9,10,9,-2],"swapped_pitches":[-2,-1,-2,-1,3,7,-1,3,9,10,9,-2],"shift_direction":1,"question_num":21,"has_decoy":false,"subject":"S1C1212","sona":"41500","block":1,"time":"2021-09-15T16:59:54.735Z"},{"rt":848.8999999985099,"stimulus":"[A] option 1, [L] option 2, [G] neither","key_press":76,"name":"choice","trial_type":"html-keyboard-response","trial_index":48,"time_elapsed":135688,"internal_node_id":"0.0-48.0","response":"2nd","certainty":"high","char":"L","transposition":0,"order":["shifted","swapped"],"probe_pitches":[12,7,5,12,5,0,9,2,5,7,2,7],"shifted_pitches":[12,7,5,12,5,-1,9,2,5,7,2,7],"swapped_pitches":[12,7,5,12,5,9,0,2,5,7,2,7],"shift_direction":-1,"question_num":31,"has_decoy":false,"subject":"S1C1212","sona":"41500","block":1,"time":"2021-09-15T16:59:54.735Z"},{"rt":1518.9000000003725,"stimulus":"[A] option 1, [L] option 2, [G] neither","key_press":65,"name":"choice","trial_type":"html-keyboard-response","trial_index":59,"time_elapsed":156091,"internal_node_id":"0.0-59.0","response":"1st","certainty":"high","char":"A","transposition":-2,"order":["shifted","swapped"],"probe_pitches":[-1,3,10,8,0,6,2,3,4,9,0,4],"shifted_pitches":[-1,3,10,8,0,5,2,3,4,9,0,4],"swapped_pitches":[-1,3,10,8,0,2,6,3,4,9,0,4],"shift_direction":-1,"question_num":41,"has_decoy":false,"subject":"S1C1212","sona":"41500","block":1,"time":"2021-09-15T16:59:54.735Z"},{"rt":1103.4000000003725,"stimulus":"[A] option 1, [L] option 2, [G] neither","key_press":76,"name":"choice","trial_type":"html-keyboard-response","trial_index":70,"time_elapsed":176028,"internal_node_id":"0.0-70.0","response":"2nd","certainty":"high","char":"L","transposition":0,"order":["shifted","swapped"],"probe_pitches":[5,3,10,4,5,8,0,5,-1,2,10,-2],"shifted_pitches":[5,3,10,4,5,8,1,5,-1,2,10,-2],"swapped_pitches":[5,3,10,4,5,0,8,5,-1,2,10,-2],"shift_direction":1,"question_num":51,"has_decoy":false,"subject":"S1C1212","sona":"41500","block":1,"time":"2021-09-15T16:59:54.735Z"},{"rt":1045,"stimulus":"[A] option 1, [L] option 2, [G] neither","key_press":76,"name":"choice","trial_type":"html-keyboard-response","trial_index":81,"time_elapsed":195952,"internal_node_id":"0.0-81.0","response":"2nd","certainty":"high","char":"L","transposition":-2,"order":["swapped","shifted"],"probe_pitches":[8,2,1,2,-2,8,5,2,4,-2,10,1],"shifted_pitches":[8,2,1,2,-2,7,5,2,4,-2,10,1],"swapped_pitches":[8,2,1,2,-2,5,8,2,4,-2,10,1],"shift_direction":-1,"question_num":61,"has_decoy":false,"subject":"S1C1212","sona":"41500","block":1,"time":"2021-09-15T16:59:54.735Z"},{"rt":5368,"stimulus":"[A] option 1, [L] option 2, [G] neither","key_press":71,"name":"choice","trial_type":"html-keyboard-response","trial_index":92,"time_elapsed":220012,"internal_node_id":"0.0-92.0","response":"neither","certainty":"high","char":"G","transposition":-3,"order":["swapped","shifted"],"probe_pitches":[8,5,9,5,2,7,3,2,6,7,3,6],"shifted_pitches":[8,5,9,5,2,7,4,2,6,7,3,6],"swapped_pitches":[8,5,9,5,2,3,7,2,6,7,3,6],"shift_direction":1,"question_num":71,"has_decoy":false,"subject":"S1C1212","sona":"41500","block":1,"time":"2021-09-15T16:59:54.735Z"},{"rt":741.5999999996275,"stimulus":"[A] option 1, [L] option 2, [G] neither","key_press":76,"name":"choice","trial_type":"html-keyboard-response","trial_index":103,"time_elapsed":239609,"internal_node_id":"0.0-103.0","response":"2nd","certainty":"high","char":"L","transposition":-3,"order":["swapped","shifted"],"probe_pitches":[5,3,10,12,5,0,10,3,5,7,12,7],"shifted_pitches":[5,3,10,12,5,1,10,3,5,7,12,7],"swapped_pitches":[5,3,10,12,5,10,0,3,5,7,12,7],"shift_direction":1,"question_num":81,"has_decoy":false,"subject":"S1C1212","sona":"41500","block":1,"time":"2021-09-15T16:59:54.735Z"},{"rt":1200.5,"stimulus":"[A] option 1, [L] option 2, [G] neither","key_press":65,"name":"choice","trial_type":"html-keyboard-response","trial_index":114,"time_elapsed":259225,"internal_node_id":"0.0-114.0","response":"1st","certainty":"high","char":"A","transposition":-3,"order":["shifted","swapped"],"probe_pitches":[-2,2,0,7,2,6,10,-1,1,10,0,3],"shifted_pitches":[-2,2,0,7,2,6,9,-1,1,10,0,3],"swapped_pitches":[-2,2,0,7,2,10,6,-1,1,10,0,3],"shift_direction":-1,"question_num":91,"has_decoy":false,"subject":"S1C1212","sona":"41500","block":1,"time":"2021-09-15T16:59:54.735Z"},{"rt":4243.0999999996275,"stimulus":"[A] option 1, [L] option 2, [G] neither","key_press":71,"name":"choice","trial_type":"html-keyboard-response","trial_index":125,"time_elapsed":282384,"internal_node_id":"0.0-125.0","response":"neither","certainty":"high","char":"G","transposition":-3,"order":["shifted","swapped"],"probe_pitches":[10,8,10,12,3,10,5,0,5,3,10,5],"shifted_pitches":[10,8,10,12,3,10,4,0,5,3,10,5],"swapped_pitches":[10,8,10,12,3,5,10,0,5,3,10,5],"shift_direction":-1,"question_num":101,"has_decoy":false,"subject":"S1C1212","sona":"41500","block":1,"time":"2021-09-15T16:59:54.735Z"},{"rt":984.7999999988824,"stimulus":"[A] option 1, [L] option 2, [G] neither","key_press":65,"name":"choice","trial_type":"html-keyboard-response","trial_index":136,"time_elapsed":301733,"internal_node_id":"0.0-136.0","response":"1st","certainty":"high","char":"A","transposition":2,"order":["shifted","swapped"],"probe_pitches":[5,10,3,7,10,12,7,5,0,10,12,10],"shifted_pitches":[5,10,3,7,10,12,6,5,0,10,12,10],"swapped_pitches":[5,10,3,7,10,7,12,5,0,10,12,10],"shift_direction":-1,"question_num":111,"has_decoy":false,"subject":"S1C1212","sona":"41500","block":1,"time":"2021-09-15T16:59:54.735Z"},{"rt":1234.0999999996275,"stimulus":"[A] option 1, [L] option 2, [G] neither","key_press":76,"name":"choice","trial_type":"html-keyboard-response","trial_index":147,"time_elapsed":321310,"internal_node_id":"0.0-147.0","response":"2nd","certainty":"high","char":"L","transposition":1,"order":["swapped","shifted"],"probe_pitches":[5,0,2,5,7,10,2,7,2,5,7,12],"shifted_pitches":[5,0,2,5,7,10,3,7,2,5,7,12],"swapped_pitches":[5,0,2,5,7,2,10,7,2,5,7,12],"shift_direction":1,"question_num":121,"has_decoy":false,"subject":"S1C1212","sona":"41500","block":1,"time":"2021-09-15T16:59:54.735Z"},{"rt":1080.300000000745,"stimulus":"[A] option 1, [L] option 2, [G] neither","key_press":76,"name":"choice","trial_type":"html-keyboard-response","trial_index":158,"time_elapsed":341182,"internal_node_id":"0.0-158.0","response":"2nd","certainty":"high","char":"L","transposition":-1,"order":["swapped","shifted"],"probe_pitches":[-2,1,7,-1,5,1,3,8,-2,6,10,9],"shifted_pitches":[-2,1,7,-1,5,2,3,8,-2,6,10,9],"swapped_pitches":[-2,1,7,-1,5,3,1,8,-2,6,10,9],"shift_direction":1,"question_num":131,"has_decoy":false,"subject":"S1C1212","sona":"41500","block":1,"time":"2021-09-15T16:59:54.735Z"},{"rt":689.9000000003725,"stimulus":"[A] option 1, [L] option 2, [G] neither","key_press":76,"name":"choice","trial_type":"html-keyboard-response","trial_index":169,"time_elapsed":360226,"internal_node_id":"0.0-169.0","response":"2nd","certainty":"high","char":"L","transposition":-1,"order":["swapped","shifted"],"probe_pitches":[12,10,8,5,0,3,12,8,3,5,10,8],"shifted_pitches":[12,10,8,5,0,2,12,8,3,5,10,8],"swapped_pitches":[12,10,8,5,0,12,3,8,3,5,10,8],"shift_direction":-1,"question_num":141,"has_decoy":false,"subject":"S1C1212","sona":"41500","block":1,"time":"2021-09-15T16:59:54.735Z"},{"rt":935.4000000003725,"stimulus":"[A] option 1, [L] option 2, [G] neither","key_press":65,"name":"choice","trial_type":"html-keyboard-response","trial_index":180,"time_elapsed":379532,"internal_node_id":"0.0-180.0","response":"1st","certainty":"high","char":"A","transposition":-2,"order":["shifted","swapped"],"probe_pitches":[4,7,4,2,4,9,0,12,9,4,12,9],"shifted_pitches":[4,7,4,2,4,8,0,12,9,4,12,9],"swapped_pitches":[4,7,4,2,4,0,9,12,9,4,12,9],"shift_direction":-1,"question_num":151,"has_decoy":false,"subject":"S1C1212","sona":"41500","block":1,"time":"2021-09-15T16:59:54.735Z"},{"rt":893,"stimulus":"[A] option 1, [L] option 2, [G] neither","key_press":65,"name":"choice","trial_type":"html-keyboard-response","trial_index":191,"time_elapsed":398801,"internal_node_id":"0.0-191.0","response":"1st","certainty":"high","char":"A","transposition":-2,"order":["shifted","swapped"],"probe_pitches":[2,0,5,0,2,5,7,9,5,7,12,7],"shifted_pitches":[2,0,5,0,2,5,8,9,5,7,12,7],"swapped_pitches":[2,0,5,0,2,7,5,9,5,7,12,7],"shift_direction":1,"question_num":161,"has_decoy":false,"subject":"S1C1212","sona":"41500","block":1,"time":"2021-09-15T16:59:54.735Z"},{"rt":1597.300000000745,"stimulus":"[A] option 1, [L] option 2, [G] neither","key_press":71,"name":"choice","trial_type":"html-keyboard-response","trial_index":202,"time_elapsed":418778,"internal_node_id":"0.0-202.0","response":"neither","certainty":"high","char":"G","transposition":1,"order":["shifted","swapped"],"probe_pitches":[5,6,7,1,-2,8,2,-2,9,8,-1,1],"shifted_pitches":[5,6,7,1,-2,8,3,-2,9,8,-1,1],"swapped_pitches":[5,6,7,1,-2,2,8,-2,9,8,-1,1],"shift_direction":1,"question_num":171,"has_decoy":false,"subject":"S1C1212","sona":"41500","block":1,"time":"2021-09-15T16:59:54.735Z"},{"rt":983.3999999985099,"stimulus":"[A] option 1, [L] option 2, [G] neither","key_press":65,"name":"choice","trial_type":"html-keyboard-response","trial_index":213,"time_elapsed":438138,"internal_node_id":"0.0-213.0","response":"1st","certainty":"high","char":"A","transposition":-1,"order":["swapped","shifted"],"probe_pitches":[10,12,7,5,0,2,10,12,7,2,7,10],"shifted_pitches":[10,12,7,5,0,3,10,12,7,2,7,10],"swapped_pitches":[10,12,7,5,0,10,2,12,7,2,7,10],"shift_direction":1,"question_num":181,"has_decoy":false,"subject":"S1C1212","sona":"41500","block":1,"time":"2021-09-15T16:59:54.735Z"},{"rt":2607.5,"stimulus":"[A] option 1, [L] option 2, [G] neither","key_press":76,"name":"choice","trial_type":"html-keyboard-response","trial_index":224,"time_elapsed":459196,"internal_node_id":"0.0-224.0","response":"2nd","certainty":"high","char":"L","transposition":3,"order":["swapped","shifted"],"probe_pitches":[7,2,4,2,4,2,7,9,4,12,0,9],"shifted_pitches":[7,2,4,2,4,2,8,9,4,12,0,9],"swapped_pitches":[7,2,4,2,4,7,2,9,4,12,0,9],"shift_direction":1,"question_num":191,"has_decoy":false,"subject":"S1C1212","sona":"41500","block":1,"time":"2021-09-15T16:59:54.735Z"}]