[{"rt":1439.699999999255,"stimulus":"[A] option 1, [L] option 2, [G] neither","key_press":65,"name":"choice","trial_type":"html-keyboard-response","trial_index":10,"time_elapsed":22494,"internal_node_id":"0.0-10.0","subject":"S1C1212","sona":"41500","block":2,"time":"2021-09-15T17:06:57.453Z","response":"1st","certainty":"high","char":"A","transposition":2,"order":["shifted","swapped"],"probe_pitches":[13,7,8,3,6,13,11,4,8,13,7,15],"shifted_pitches":[13,7,8,3,6,12,11,4,8,13,7,15],"swapped_pitches":[13,7,8,3,6,11,13,4,8,13,7,15],"shift_direction":-1,"question_num":1,"has_decoy":false},{"rt":2681.199999999255,"stimulus":"[A] option 1, [L] option 2, [G] neither","key_press":76,"name":"choice","trial_type":"html-keyboard-response","trial_index":21,"time_elapsed":45655,"internal_node_id":"0.0-21.0","subject":"S1C1212","sona":"41500","block":2,"time":"2021-09-15T17:06:57.453Z","response":"2nd","certainty":"high","char":"L","transposition":0,"order":["shifted","swapped"],"probe_pitches":[10,12,10,12,7,10,3,0,7,5,12,10],"shifted_pitches":[10,12,10,12,7,9,3,0,7,5,12,10],"swapped_pitches":[10,12,10,12,7,3,10,0,7,5,12,10],"shift_direction":-1,"question_num":11,"has_decoy":false},{"rt":885.6999999992549,"stimulus":"[A] option 1, [L] option 2, [G] neither","key_press":65,"name":"choice","trial_type":"html-keyboard-response","trial_index":32,"time_elapsed":65805,"internal_node_id":"0.0-32.0","subject":"S1C1212","sona":"41500","block":2,"time":"2021-09-15T17:06:57.453Z","response":"1st","certainty":"high","char":"A","transposition":-1,"order":["swapped","shifted"],"probe_pitches":[7,9,2,0,4,9,7,2,7,4,12,4],"shifted_pitches":[7,9,2,0,4,9,6,2,7,4,12,4],"swapped_pitches":[7,9,2,0,4,7,9,2,7,4,12,4],"shift_direction":-1,"question_num":21,"has_decoy":false},{"rt":3421.0999999996275,"stimulus":"[A] option 1, [L] option 2, [G] neither","key_press":76,"name":"choice","trial_type":"html-keyboard-response","trial_index":43,"time_elapsed":87524,"internal_node_id":"0.0-43.0","subject":"S1C1212","sona":"41500","block":2,"time":"2021-09-15T17:06:57.453Z","response":"2nd","certainty":"high","char":"L","transposition":-3,"order":["shifted","swapped"],"probe_pitches":[2,0,5,0,9,0,2,7,0,7,12,9],"shifted_pitches":[2,0,5,0,9,0,1,7,0,7,12,9],"swapped_pitches":[2,0,5,0,9,2,0,7,0,7,12,9],"shift_direction":-1,"question_num":31,"has_decoy":false},{"rt":1762,"stimulus":"[A] option 1, [L] option 2, [G] neither","key_press":65,"name":"choice","trial_type":"html-keyboard-response","trial_index":54,"time_elapsed":108003,"internal_node_id":"0.0-54.0","subject":"S1C1212","sona":"41500","block":2,"time":"2021-09-15T17:06:57.453Z","response":"1st","certainty":"high","char":"A","transposition":-3,"order":["shifted","swapped"],"probe_pitches":[13,10,15,14,6,7,5,9,15,11,3,4],"shifted_pitches":[13,10,15,14,6,8,5,9,15,11,3,4],"swapped_pitches":[13,10,15,14,6,5,7,9,15,11,3,4],"shift_direction":1,"question_num":41,"has_decoy":false},{"rt":498.90000000037253,"stimulus":"[A] option 1, [L] option 2, [G] neither","key_press":76,"name":"choice","trial_type":"html-keyboard-response","trial_index":65,"time_elapsed":126832,"internal_node_id":"0.0-65.0","subject":"S1C1212","sona":"41500","block":2,"time":"2021-09-15T17:06:57.453Z","response":"2nd","certainty":"high","char":"L","transposition":-2,"order":["swapped","shifted"],"probe_pitches":[5,10,5,3,8,0,10,5,10,0,10,12],"shifted_pitches":[5,10,5,3,8,0,11,5,10,0,10,12],"swapped_pitches":[5,10,5,3,8,10,0,5,10,0,10,12],"shift_direction":1,"question_num":51,"has_decoy":false},{"rt":1277.800000000745,"stimulus":"[A] option 1, [L] option 2, [G] neither","key_press":65,"name":"choice","trial_type":"html-keyboard-response","trial_index":76,"time_elapsed":146467,"internal_node_id":"0.0-76.0","subject":"S1C1212","sona":"41500","block":2,"time":"2021-09-15T17:06:57.453Z","response":"1st","certainty":"high","char":"A","transposition":-3,"order":["shifted","swapped"],"probe_pitches":[12,7,14,9,12,9,6,12,9,14,8,6],"shifted_pitches":[12,7,14,9,12,10,6,12,9,14,8,6],"swapped_pitches":[12,7,14,9,12,6,9,12,9,14,8,6],"shift_direction":1,"question_num":61,"has_decoy":false},{"rt":1608.9000000003725,"stimulus":"[A] option 1, [L] option 2, [G] neither","key_press":76,"name":"choice","trial_type":"html-keyboard-response","trial_index":87,"time_elapsed":166595,"internal_node_id":"0.0-87.0","subject":"S1C1212","sona":"41500","block":2,"time":"2021-09-15T17:06:57.453Z","response":"2nd","certainty":"high","char":"L","transposition":3,"order":["shifted","swapped"],"probe_pitches":[9,5,7,12,5,2,0,9,12,7,2,0],"shifted_pitches":[9,5,7,12,5,3,0,9,12,7,2,0],"swapped_pitches":[9,5,7,12,5,0,2,9,12,7,2,0],"shift_direction":1,"question_num":71,"has_decoy":false},{"rt":663.5,"stimulus":"[A] option 1, [L] option 2, [G] neither","key_press":76,"name":"choice","trial_type":"html-keyboard-response","trial_index":98,"time_elapsed":185558,"internal_node_id":"0.0-98.0","subject":"S1C1212","sona":"41500","block":2,"time":"2021-09-15T17:06:57.453Z","response":"2nd","certainty":"high","char":"L","transposition":0,"order":["swapped","shifted"],"probe_pitches":[10,8,14,10,11,5,8,15,13,12,13,12],"shifted_pitches":[10,8,14,10,11,6,8,15,13,12,13,12],"swapped_pitches":[10,8,14,10,11,8,5,15,13,12,13,12],"shift_direction":1,"question_num":81,"has_decoy":false},{"rt":1899.0999999996275,"stimulus":"[A] option 1, [L] option 2, [G] neither","key_press":65,"name":"choice","trial_type":"html-keyboard-response","trial_index":109,"time_elapsed":206670,"internal_node_id":"0.0-109.0","subject":"S1C1212","sona":"41500","block":2,"time":"2021-09-15T17:06:57.453Z","response":"1st","certainty":"high","char":"A","transposition":-2,"order":["shifted","swapped"],"probe_pitches":[4,9,12,7,0,2,4,0,2,12,7,9],"shifted_pitches":[4,9,12,7,0,2,5,0,2,12,7,9],"swapped_pitches":[4,9,12,7,0,4,2,0,2,12,7,9],"shift_direction":1,"question_num":91,"has_decoy":false},{"rt":1854.800000000745,"stimulus":"[A] option 1, [L] option 2, [G] neither","key_press":76,"name":"choice","trial_type":"html-keyboard-response","trial_index":120,"time_elapsed":228582,"internal_node_id":"0.0-120.0","subject":"S1C1212","sona":"41500","block":2,"time":"2021-09-15T17:06:57.453Z","response":"2nd","certainty":"high","char":"L","transposition":1,"order":["swapped","shifted"],"probe_pitches":[7,10,5,12,10,7,2,12,2,7,0,2],"shifted_pitches":[7,10,5,12,10,6,2,12,2,7,0,2],"swapped_pitches":[7,10,5,12,10,2,7,12,2,7,0,2],"shift_direction":-1,"question_num":101,"has_decoy":false},{"rt":1907.4000000003725,"stimulus":"[A] option 1, [L] option 2, [G] neither","key_press":65,"name":"choice","trial_type":"html-keyboard-response","trial_index":131,"time_elapsed":248838,"internal_node_id":"0.0-131.0","subject":"S1C1212","sona":"41500","block":2,"time":"2021-09-15T17:06:57.453Z","response":"1st","certainty":"high","char":"A","transposition":2,"order":["shifted","swapped"],"probe_pitches":[0,5,3,0,3,12,5,10,3,7,12,7],"shifted_pitches":[0,5,3,0,3,12,6,10,3,7,12,7],"swapped_pitches":[0,5,3,0,3,5,12,10,3,7,12,7],"shift_direction":1,"question_num":111,"has_decoy":false},{"rt":599.7000000011176,"stimulus":"[A] option 1, [L] option 2, [G] neither","key_press":76,"name":"choice","trial_type":"html-keyboard-response","trial_index":142,"time_elapsed":267828,"internal_node_id":"0.0-142.0","subject":"S1C1212","sona":"41500","block":2,"time":"2021-09-15T17:06:57.453Z","response":"2nd","certainty":"high","char":"L","transposition":-2,"order":["shifted","swapped"],"probe_pitches":[14,12,14,10,15,5,6,13,11,4,12,9],"shifted_pitches":[14,12,14,10,15,5,7,13,11,4,12,9],"swapped_pitches":[14,12,14,10,15,6,5,13,11,4,12,9],"shift_direction":1,"question_num":121,"has_decoy":false},{"rt":1743.199999999255,"stimulus":"[A] option 1, [L] option 2, [G] neither","key_press":76,"name":"choice","trial_type":"html-keyboard-response","trial_index":153,"time_elapsed":288171,"internal_node_id":"0.0-153.0","subject":"S1C1212","sona":"41500","block":2,"time":"2021-09-15T17:06:57.453Z","response":"2nd","certainty":"high","char":"L","transposition":-1,"order":["swapped","shifted"],"probe_pitches":[0,2,5,10,2,0,7,5,0,5,2,10],"shifted_pitches":[0,2,5,10,2,1,7,5,0,5,2,10],"swapped_pitches":[0,2,5,10,2,7,0,5,0,5,2,10],"shift_direction":1,"question_num":131,"has_decoy":false},{"rt":1961.0999999996275,"stimulus":"[A] option 1, [L] option 2, [G] neither","key_press":76,"name":"choice","trial_type":"html-keyboard-response","trial_index":164,"time_elapsed":312692,"internal_node_id":"0.0-164.0","subject":"S1C1212","sona":"41500","block":2,"time":"2021-09-15T17:06:57.453Z","response":"2nd","certainty":"high","char":"L","transposition":-3,"order":["swapped","shifted"],"probe_pitches":[8,10,3,8,5,8,0,12,3,10,5,3],"shifted_pitches":[8,10,3,8,5,7,0,12,3,10,5,3],"swapped_pitches":[8,10,3,8,5,0,8,12,3,10,5,3],"shift_direction":-1,"question_num":141,"has_decoy":false},{"rt":2337.0999999996275,"stimulus":"[A] option 1, [L] option 2, [G] neither","key_press":65,"name":"choice","trial_type":"html-keyboard-response","trial_index":175,"time_elapsed":337915,"internal_node_id":"0.0-175.0","subject":"S1C1212","sona":"41500","block":2,"time":"2021-09-15T17:06:57.453Z","response":"1st","certainty":"high","char":"A","transposition":1,"order":["swapped","shifted"],"probe_pitches":[15,9,3,4,7,3,6,4,8,3,9,12],"shifted_pitches":[15,9,3,4,7,3,5,4,8,3,9,12],"swapped_pitches":[15,9,3,4,7,6,3,4,8,3,9,12],"shift_direction":-1,"question_num":151,"has_decoy":false},{"rt":1122.300000000745,"stimulus":"[A] option 1, [L] option 2, [G] neither","key_press":76,"name":"choice","trial_type":"html-keyboard-response","trial_index":186,"time_elapsed":357877,"internal_node_id":"0.0-186.0","subject":"S1C1212","sona":"41500","block":2,"time":"2021-09-15T17:06:57.453Z","response":"2nd","certainty":"high","char":"L","transposition":3,"order":["swapped","shifted"],"probe_pitches":[6,8,10,4,3,5,15,6,7,8,6,13],"shifted_pitches":[6,8,10,4,3,5,14,6,7,8,6,13],"swapped_pitches":[6,8,10,4,3,15,5,6,7,8,6,13],"shift_direction":-1,"question_num":161,"has_decoy":false},{"rt":947.0999999996275,"stimulus":"[A] option 1, [L] option 2, [G] neither","key_press":76,"name":"choice","trial_type":"html-keyboard-response","trial_index":197,"time_elapsed":377675,"internal_node_id":"0.0-197.0","subject":"S1C1212","sona":"41500","block":2,"time":"2021-09-15T17:06:57.453Z","response":"2nd","certainty":"high","char":"L","transposition":-2,"order":["swapped","shifted"],"probe_pitches":[11,10,11,12,5,14,3,12,5,14,5,7],"shifted_pitches":[11,10,11,12,5,13,3,12,5,14,5,7],"swapped_pitches":[11,10,11,12,5,3,14,12,5,14,5,7],"shift_direction":-1,"question_num":171,"has_decoy":false},{"rt":1269.5,"stimulus":"[A] option 1, [L] option 2, [G] neither","key_press":65,"name":"choice","trial_type":"html-keyboard-response","trial_index":208,"time_elapsed":397309,"internal_node_id":"0.0-208.0","subject":"S1C1212","sona":"41500","block":2,"time":"2021-09-15T17:06:57.453Z","response":"1st","certainty":"high","char":"A","transposition":-1,"order":["swapped","shifted"],"probe_pitches":[4,8,10,13,12,8,10,13,3,11,8,5],"shifted_pitches":[4,8,10,13,12,8,9,13,3,11,8,5],"swapped_pitches":[4,8,10,13,12,10,8,13,3,11,8,5],"shift_direction":-1,"question_num":181,"has_decoy":false},{"rt":1349.5999999996275,"stimulus":"[A] option 1, [L] option 2, [G] neither","key_press":65,"name":"choice","trial_type":"html-keyboard-response","trial_index":219,"time_elapsed":419672,"internal_node_id":"0.0-219.0","subject":"S1C1212","sona":"41500","block":2,"time":"2021-09-15T17:06:57.453Z","response":"1st","certainty":"high","char":"A","transposition":-1,"order":["shifted","swapped"],"probe_pitches":[15,14,12,15,14,15,10,14,7,10,3,4],"shifted_pitches":[15,14,12,15,14,15,11,14,7,10,3,4],"swapped_pitches":[15,14,12,15,14,10,15,14,7,10,3,4],"shift_direction":1,"question_num":191,"has_decoy":false}]