[{"rt":1573.3999999938533,"stimulus":"[A] option 1, [L] option 2, [G] neither","key_press":76,"name":"choice","trial_type":"html-keyboard-response","trial_index":10,"time_elapsed":24904,"internal_node_id":"0.0-10.0","subject":"S1C1657","sona":"41636","block":6,"time":"2021-09-23T19:58:23.903Z","response":"2nd","certainty":"high","char":"L","transposition":-1,"order":["shifted","swapped"],"probe_pitches":[14,11,13,12,8,2,12,6,8,4,8,3,2,7,8,10],"shifted_pitches":[14,11,13,12,8,2,12,5,8,4,8,3,2,7,8,10],"swapped_pitches":[14,11,13,12,8,2,12,8,6,4,8,3,2,7,8,10],"shift_direction":-1,"question_num":1,"has_decoy":false},{"rt":1158.8099999940023,"stimulus":"[A] option 1, [L] option 2, [G] neither","key_press":76,"name":"choice","trial_type":"html-keyboard-response","trial_index":21,"time_elapsed":52337,"internal_node_id":"0.0-21.0","subject":"S1C1657","sona":"41636","block":6,"time":"2021-09-23T19:58:23.903Z","response":"2nd","certainty":"high","char":"L","transposition":3,"order":["shifted","swapped"],"probe_pitches":[11,13,8,10,13,5,3,4,6,10,4,8,13,4,11,3],"shifted_pitches":[11,13,8,10,13,5,3,4,7,10,4,8,13,4,11,3],"swapped_pitches":[11,13,8,10,13,5,3,6,4,10,4,8,13,4,11,3],"shift_direction":1,"question_num":11,"has_decoy":false},{"rt":1108.905000001192,"stimulus":"[A] option 1, [L] option 2, [G] neither","key_press":76,"name":"choice","trial_type":"html-keyboard-response","trial_index":32,"time_elapsed":75745,"internal_node_id":"0.0-32.0","subject":"S1C1657","sona":"41636","block":6,"time":"2021-09-23T19:58:23.903Z","response":"2nd","certainty":"high","char":"L","transposition":0,"order":["shifted","swapped"],"probe_pitches":[0,5,8,5,10,8,0,5,-2,0,-2,3,10,5,0,3],"shifted_pitches":[0,5,8,5,10,8,0,4,-2,0,-2,3,10,5,0,3],"swapped_pitches":[0,5,8,5,10,8,0,-2,5,0,-2,3,10,5,0,3],"shift_direction":-1,"question_num":21,"has_decoy":false},{"rt":1653.9700000141747,"stimulus":"[A] option 1, [L] option 2, [G] neither","key_press":76,"name":"choice","trial_type":"html-keyboard-response","trial_index":43,"time_elapsed":100840,"internal_node_id":"0.0-43.0","subject":"S1C1657","sona":"41636","block":6,"time":"2021-09-23T19:58:23.903Z","response":"2nd","certainty":"high","char":"L","transposition":0,"order":["shifted","swapped"],"probe_pitches":[11,14,7,3,4,11,8,6,10,3,8,2,13,12,10,6],"shifted_pitches":[11,14,7,3,4,11,8,6,9,3,8,2,13,12,10,6],"swapped_pitches":[11,14,7,3,4,11,8,10,6,3,8,2,13,12,10,6],"shift_direction":-1,"question_num":31,"has_decoy":false},{"rt":4706.56500000041,"stimulus":"[A] option 1, [L] option 2, [G] neither","key_press":76,"name":"choice","trial_type":"html-keyboard-response","trial_index":54,"time_elapsed":127589,"internal_node_id":"0.0-54.0","subject":"S1C1657","sona":"41636","block":6,"time":"2021-09-23T19:58:23.903Z","response":"2nd","certainty":"high","char":"L","transposition":-3,"order":["swapped","shifted"],"probe_pitches":[6,3,10,8,3,10,1,6,8,3,1,10,3,1,6,10],"shifted_pitches":[6,3,10,8,3,10,1,6,7,3,1,10,3,1,6,10],"swapped_pitches":[6,3,10,8,3,10,1,8,6,3,1,10,3,1,6,10],"shift_direction":-1,"question_num":41,"has_decoy":false},{"rt":1145.120000001043,"stimulus":"[A] option 1, [L] option 2, [G] neither","key_press":76,"name":"choice","trial_type":"html-keyboard-response","trial_index":65,"time_elapsed":150958,"internal_node_id":"0.0-65.0","subject":"S1C1657","sona":"41636","block":6,"time":"2021-09-23T19:58:23.903Z","response":"2nd","certainty":"high","char":"L","transposition":-1,"order":["shifted","swapped"],"probe_pitches":[10,5,2,0,5,10,7,-2,10,5,10,7,2,-2,5,2],"shifted_pitches":[10,5,2,0,5,10,7,-2,11,5,10,7,2,-2,5,2],"swapped_pitches":[10,5,2,0,5,10,7,10,-2,5,10,7,2,-2,5,2],"shift_direction":1,"question_num":51,"has_decoy":false},{"rt":998.3650000067428,"stimulus":"[A] option 1, [L] option 2, [G] neither","key_press":76,"name":"choice","trial_type":"html-keyboard-response","trial_index":76,"time_elapsed":174345,"internal_node_id":"0.0-76.0","subject":"S1C1657","sona":"41636","block":6,"time":"2021-09-23T19:58:23.903Z","response":"2nd","certainty":"high","char":"L","transposition":-1,"order":["swapped","shifted"],"probe_pitches":[3,0,5,0,8,3,-2,10,5,-2,3,0,10,-2,5,-2],"shifted_pitches":[3,0,5,0,8,3,-2,10,4,-2,3,0,10,-2,5,-2],"swapped_pitches":[3,0,5,0,8,3,-2,5,10,-2,3,0,10,-2,5,-2],"shift_direction":-1,"question_num":61,"has_decoy":false},{"rt":1291.6599999880418,"stimulus":"[A] option 1, [L] option 2, [G] neither","key_press":76,"name":"choice","trial_type":"html-keyboard-response","trial_index":87,"time_elapsed":198910,"internal_node_id":"0.0-87.0","subject":"S1C1657","sona":"41636","block":6,"time":"2021-09-23T19:58:23.903Z","response":"2nd","certainty":"high","char":"L","transposition":-1,"order":["swapped","shifted"],"probe_pitches":[8,12,11,5,4,9,12,5,14,10,5,2,3,2,11,8],"shifted_pitches":[8,12,11,5,4,9,12,6,14,10,5,2,3,2,11,8],"swapped_pitches":[8,12,11,5,4,9,12,14,5,10,5,2,3,2,11,8],"shift_direction":1,"question_num":71,"has_decoy":false},{"rt":23980.34999999823,"stimulus":"[A] option 1, [L] option 2, [G] neither","key_press":76,"name":"choice","trial_type":"html-keyboard-response","trial_index":98,"time_elapsed":246561,"internal_node_id":"0.0-98.0","subject":"S1C1657","sona":"41636","block":6,"time":"2021-09-23T19:58:23.903Z","response":"2nd","certainty":"high","char":"L","transposition":-3,"order":["swapped","shifted"],"probe_pitches":[7,12,6,7,6,12,8,9,11,2,3,12,4,6,8,13],"shifted_pitches":[7,12,6,7,6,12,8,10,11,2,3,12,4,6,8,13],"swapped_pitches":[7,12,6,7,6,12,8,11,9,2,3,12,4,6,8,13],"shift_direction":1,"question_num":81,"has_decoy":false},{"rt":25002.71499998076,"stimulus":"[A] option 1, [L] option 2, [G] neither","key_press":76,"name":"choice","trial_type":"html-keyboard-response","trial_index":109,"time_elapsed":294657,"internal_node_id":"0.0-109.0","subject":"S1C1657","sona":"41636","block":6,"time":"2021-09-23T19:58:23.903Z","response":"2nd","certainty":"high","char":"L","transposition":1,"order":["swapped","shifted"],"probe_pitches":[10,5,8,7,10,6,2,7,5,11,10,7,12,8,13,7],"shifted_pitches":[10,5,8,7,10,6,2,7,4,11,10,7,12,8,13,7],"swapped_pitches":[10,5,8,7,10,6,2,5,7,11,10,7,12,8,13,7],"shift_direction":-1,"question_num":91,"has_decoy":false},{"rt":5090.9499999834225,"stimulus":"[A] option 1, [L] option 2, [G] neither","key_press":76,"name":"choice","trial_type":"html-keyboard-response","trial_index":120,"time_elapsed":322736,"internal_node_id":"0.0-120.0","subject":"S1C1657","sona":"41636","block":6,"time":"2021-09-23T19:58:23.903Z","response":"2nd","certainty":"high","char":"L","transposition":-2,"order":["swapped","shifted"],"probe_pitches":[10,5,0,2,10,0,7,5,0,7,2,5,10,0,10,2],"shifted_pitches":[10,5,0,2,10,0,7,6,0,7,2,5,10,0,10,2],"swapped_pitches":[10,5,0,2,10,0,7,0,5,7,2,5,10,0,10,2],"shift_direction":1,"question_num":101,"has_decoy":false},{"rt":2148.795000015758,"stimulus":"[A] option 1, [L] option 2, [G] neither","key_press":76,"name":"choice","trial_type":"html-keyboard-response","trial_index":131,"time_elapsed":347223,"internal_node_id":"0.0-131.0","subject":"S1C1657","sona":"41636","block":6,"time":"2021-09-23T19:58:23.903Z","response":"2nd","certainty":"high","char":"L","transposition":-2,"order":["swapped","shifted"],"probe_pitches":[5,11,13,14,9,5,13,9,12,11,7,2,12,13,10,6],"shifted_pitches":[5,11,13,14,9,5,13,8,12,11,7,2,12,13,10,6],"swapped_pitches":[5,11,13,14,9,5,13,12,9,11,7,2,12,13,10,6],"shift_direction":-1,"question_num":111,"has_decoy":false},{"rt":447.21000001300126,"stimulus":"[A] option 1, [L] option 2, [G] neither","key_press":76,"name":"choice","trial_type":"html-keyboard-response","trial_index":142,"time_elapsed":370333,"internal_node_id":"0.0-142.0","subject":"S1C1657","sona":"41636","block":6,"time":"2021-09-23T19:58:23.903Z","response":"2nd","certainty":"high","char":"L","transposition":-3,"order":["shifted","swapped"],"probe_pitches":[2,8,3,4,11,10,14,5,2,10,5,4,5,2,7,9],"shifted_pitches":[2,8,3,4,11,10,14,5,1,10,5,4,5,2,7,9],"swapped_pitches":[2,8,3,4,11,10,14,2,5,10,5,4,5,2,7,9],"shift_direction":-1,"question_num":121,"has_decoy":false},{"rt":1243.6349999913946,"stimulus":"[A] option 1, [L] option 2, [G] neither","key_press":76,"name":"choice","trial_type":"html-keyboard-response","trial_index":153,"time_elapsed":393874,"internal_node_id":"0.0-153.0","subject":"S1C1657","sona":"41636","block":6,"time":"2021-09-23T19:58:23.903Z","response":"2nd","certainty":"high","char":"L","transposition":-3,"order":["swapped","shifted"],"probe_pitches":[5,10,3,5,1,5,3,10,8,1,-2,3,5,8,-2,3],"shifted_pitches":[5,10,3,5,1,5,3,11,8,1,-2,3,5,8,-2,3],"swapped_pitches":[5,10,3,5,1,5,3,8,10,1,-2,3,5,8,-2,3],"shift_direction":1,"question_num":131,"has_decoy":false},{"rt":1307.4849999975413,"stimulus":"[A] option 1, [L] option 2, [G] neither","key_press":76,"name":"choice","trial_type":"html-keyboard-response","trial_index":164,"time_elapsed":418232,"internal_node_id":"0.0-164.0","subject":"S1C1657","sona":"41636","block":6,"time":"2021-09-23T19:58:23.903Z","response":"2nd","certainty":"high","char":"L","transposition":2,"order":["shifted","swapped"],"probe_pitches":[7,3,7,5,0,5,0,5,-2,7,-2,3,-2,10,3,0],"shifted_pitches":[7,3,7,5,0,5,0,5,-1,7,-2,3,-2,10,3,0],"swapped_pitches":[7,3,7,5,0,5,0,-2,5,7,-2,3,-2,10,3,0],"shift_direction":1,"question_num":141,"has_decoy":false},{"rt":990.9050000132993,"stimulus":"[A] option 1, [L] option 2, [G] neither","key_press":76,"name":"choice","trial_type":"html-keyboard-response","trial_index":175,"time_elapsed":444300,"internal_node_id":"0.0-175.0","subject":"S1C1657","sona":"41636","block":6,"time":"2021-09-23T19:58:23.903Z","response":"2nd","certainty":"high","char":"L","transposition":1,"order":["shifted","swapped"],"probe_pitches":[1,3,-2,3,5,1,-2,3,1,-2,3,1,5,1,8,10],"shifted_pitches":[1,3,-2,3,5,1,-2,2,1,-2,3,1,5,1,8,10],"swapped_pitches":[1,3,-2,3,5,1,-2,1,3,-2,3,1,5,1,8,10],"shift_direction":-1,"question_num":151,"has_decoy":false},{"rt":447.7049999991432,"stimulus":"[A] option 1, [L] option 2, [G] neither","key_press":76,"name":"choice","trial_type":"html-keyboard-response","trial_index":186,"time_elapsed":467041,"internal_node_id":"0.0-186.0","subject":"S1C1657","sona":"41636","block":6,"time":"2021-09-23T19:58:23.903Z","response":"2nd","certainty":"high","char":"L","transposition":-2,"order":["shifted","swapped"],"probe_pitches":[6,10,12,9,7,6,3,10,9,13,2,5,12,7,2,7],"shifted_pitches":[6,10,12,9,7,6,3,11,9,13,2,5,12,7,2,7],"swapped_pitches":[6,10,12,9,7,6,3,9,10,13,2,5,12,7,2,7],"shift_direction":1,"question_num":161,"has_decoy":false},{"rt":664.9299999987707,"stimulus":"[A] option 1, [L] option 2, [G] neither","key_press":76,"name":"choice","trial_type":"html-keyboard-response","trial_index":197,"time_elapsed":491709,"internal_node_id":"0.0-197.0","subject":"S1C1657","sona":"41636","block":6,"time":"2021-09-23T19:58:23.903Z","response":"2nd","certainty":"high","char":"L","transposition":-2,"order":["swapped","shifted"],"probe_pitches":[-2,1,3,-2,3,6,10,3,-2,10,6,10,-2,6,8,-2],"shifted_pitches":[-2,1,3,-2,3,6,10,3,-3,10,6,10,-2,6,8,-2],"swapped_pitches":[-2,1,3,-2,3,6,10,-2,3,10,6,10,-2,6,8,-2],"shift_direction":-1,"question_num":171,"has_decoy":false},{"rt":1152.0899999886751,"stimulus":"[A] option 1, [L] option 2, [G] neither","key_press":76,"name":"choice","trial_type":"html-keyboard-response","trial_index":208,"time_elapsed":515266,"internal_node_id":"0.0-208.0","subject":"S1C1657","sona":"41636","block":6,"time":"2021-09-23T19:58:23.903Z","response":"2nd","certainty":"high","char":"L","transposition":2,"order":["swapped","shifted"],"probe_pitches":[10,13,10,8,6,3,10,14,11,4,13,6,9,6,5,3],"shifted_pitches":[10,13,10,8,6,3,10,14,12,4,13,6,9,6,5,3],"swapped_pitches":[10,13,10,8,6,3,10,11,14,4,13,6,9,6,5,3],"shift_direction":1,"question_num":181,"has_decoy":false},{"rt":1330.3449999950826,"stimulus":"[A] option 1, [L] option 2, [G] neither","key_press":76,"name":"choice","trial_type":"html-keyboard-response","trial_index":219,"time_elapsed":540296,"internal_node_id":"0.0-219.0","subject":"S1C1657","sona":"41636","block":6,"time":"2021-09-23T19:58:23.903Z","response":"2nd","certainty":"high","char":"L","transposition":3,"order":["shifted","swapped"],"probe_pitches":[0,-2,3,0,7,-2,7,10,3,-2,3,0,10,7,5,7],"shifted_pitches":[0,-2,3,0,7,-2,7,11,3,-2,3,0,10,7,5,7],"swapped_pitches":[0,-2,3,0,7,-2,7,3,10,-2,3,0,10,7,5,7],"shift_direction":1,"question_num":191,"has_decoy":false}]