[{"rt":1315.9050000249408,"stimulus":"[A] option 1, [L] option 2, [G] neither","key_press":76,"name":"choice","trial_type":"html-keyboard-response","trial_index":10,"time_elapsed":28483,"internal_node_id":"0.0-10.0","subject":"S1C1657","sona":"41636","block":2,"time":"2021-09-23T19:21:02.138Z","response":"2nd","certainty":"high","char":"L","transposition":-2,"order":["swapped","shifted"],"probe_pitches":[5,8,9,5,7,-2,5,2,1,6,8,6,-2,6,4,2],"shifted_pitches":[5,8,9,5,7,-2,5,2,0,6,8,6,-2,6,4,2],"swapped_pitches":[5,8,9,5,7,-2,5,1,2,6,8,6,-2,6,4,2],"shift_direction":-1,"question_num":1,"has_decoy":false},{"rt":1213.6250000039581,"stimulus":"[A] option 1, [L] option 2, [G] neither","key_press":65,"name":"choice","trial_type":"html-keyboard-response","trial_index":21,"time_elapsed":53325,"internal_node_id":"0.0-21.0","subject":"S1C1657","sona":"41636","block":2,"time":"2021-09-23T19:21:02.138Z","response":"1st","certainty":"high","char":"A","transposition":0,"order":["shifted","swapped"],"probe_pitches":[-1,3,2,-2,2,1,0,3,-1,9,-2,7,1,-1,9,6],"shifted_pitches":[-1,3,2,-2,2,1,0,4,-1,9,-2,7,1,-1,9,6],"swapped_pitches":[-1,3,2,-2,2,1,0,-1,3,9,-2,7,1,-1,9,6],"shift_direction":1,"question_num":11,"has_decoy":false},{"rt":1087.4600000097416,"stimulus":"[A] option 1, [L] option 2, [G] neither","key_press":65,"name":"choice","trial_type":"html-keyboard-response","trial_index":32,"time_elapsed":76768,"internal_node_id":"0.0-32.0","subject":"S1C1657","sona":"41636","block":2,"time":"2021-09-23T19:21:02.138Z","response":"1st","certainty":"high","char":"A","transposition":3,"order":["swapped","shifted"],"probe_pitches":[5,1,6,4,0,9,5,7,9,4,10,7,9,-2,1,7],"shifted_pitches":[5,1,6,4,0,9,5,7,8,4,10,7,9,-2,1,7],"swapped_pitches":[5,1,6,4,0,9,5,9,7,4,10,7,9,-2,1,7],"shift_direction":-1,"question_num":21,"has_decoy":false},{"rt":7449.404999992112,"stimulus":"[A] option 1, [L] option 2, [G] neither","key_press":76,"name":"choice","trial_type":"html-keyboard-response","trial_index":43,"time_elapsed":115302,"internal_node_id":"0.0-43.0","subject":"S1C1657","sona":"41636","block":2,"time":"2021-09-23T19:21:02.138Z","response":"2nd","certainty":"high","char":"L","transposition":1,"order":["shifted","swapped"],"probe_pitches":[-1,4,8,10,6,4,7,4,9,5,7,1,9,6,1,7],"shifted_pitches":[-1,4,8,10,6,4,7,3,9,5,7,1,9,6,1,7],"swapped_pitches":[-1,4,8,10,6,4,7,9,4,5,7,1,9,6,1,7],"shift_direction":-1,"question_num":31,"has_decoy":false},{"rt":1507.179999985965,"stimulus":"[A] option 1, [L] option 2, [G] neither","key_press":65,"name":"choice","trial_type":"html-keyboard-response","trial_index":54,"time_elapsed":139447,"internal_node_id":"0.0-54.0","subject":"S1C1657","sona":"41636","block":2,"time":"2021-09-23T19:21:02.138Z","response":"1st","certainty":"high","char":"A","transposition":-1,"order":["swapped","shifted"],"probe_pitches":[9,6,2,5,8,10,8,6,3,-1,1,10,5,9,-1,1],"shifted_pitches":[9,6,2,5,8,10,8,7,3,-1,1,10,5,9,-1,1],"swapped_pitches":[9,6,2,5,8,10,8,3,6,-1,1,10,5,9,-1,1],"shift_direction":1,"question_num":41,"has_decoy":false},{"rt":1265.8799999917392,"stimulus":"[A] option 1, [L] option 2, [G] neither","key_press":76,"name":"choice","trial_type":"html-keyboard-response","trial_index":65,"time_elapsed":162926,"internal_node_id":"0.0-65.0","subject":"S1C1657","sona":"41636","block":2,"time":"2021-09-23T19:21:02.138Z","response":"2nd","certainty":"high","char":"L","transposition":-2,"order":["swapped","shifted"],"probe_pitches":[3,5,-2,0,5,7,-2,3,5,0,7,-2,10,-2,10,7],"shifted_pitches":[3,5,-2,0,5,7,-2,3,6,0,7,-2,10,-2,10,7],"swapped_pitches":[3,5,-2,0,5,7,-2,5,3,0,7,-2,10,-2,10,7],"shift_direction":1,"question_num":51,"has_decoy":false},{"rt":369.6199999831151,"stimulus":"[A] option 1, [L] option 2, [G] neither","key_press":65,"name":"choice","trial_type":"html-keyboard-response","trial_index":76,"time_elapsed":185476,"internal_node_id":"0.0-76.0","subject":"S1C1657","sona":"41636","block":2,"time":"2021-09-23T19:21:02.138Z","response":"1st","certainty":"high","char":"A","transposition":-3,"order":["swapped","shifted"],"probe_pitches":[5,-1,0,-2,-1,5,-1,1,3,-2,7,10,9,10,-1,10],"shifted_pitches":[5,-1,0,-2,-1,5,-1,2,3,-2,7,10,9,10,-1,10],"swapped_pitches":[5,-1,0,-2,-1,5,-1,3,1,-2,7,10,9,10,-1,10],"shift_direction":1,"question_num":61,"has_decoy":false},{"rt":2310.1650000025984,"stimulus":"[A] option 1, [L] option 2, [G] neither","key_press":76,"name":"choice","trial_type":"html-keyboard-response","trial_index":87,"time_elapsed":209848,"internal_node_id":"0.0-87.0","subject":"S1C1657","sona":"41636","block":2,"time":"2021-09-23T19:21:02.138Z","response":"2nd","certainty":"high","char":"L","transposition":-3,"order":["swapped","shifted"],"probe_pitches":[6,3,6,10,3,1,-2,6,1,8,-2,1,3,10,8,6],"shifted_pitches":[6,3,6,10,3,1,-2,5,1,8,-2,1,3,10,8,6],"swapped_pitches":[6,3,6,10,3,1,-2,1,6,8,-2,1,3,10,8,6],"shift_direction":-1,"question_num":71,"has_decoy":false},{"rt":314.9799999955576,"stimulus":"[A] option 1, [L] option 2, [G] neither","key_press":76,"name":"choice","trial_type":"html-keyboard-response","trial_index":98,"time_elapsed":233169,"internal_node_id":"0.0-98.0","subject":"S1C1657","sona":"41636","block":2,"time":"2021-09-23T19:21:02.138Z","response":"2nd","certainty":"high","char":"L","transposition":-1,"order":["shifted","swapped"],"probe_pitches":[1,7,10,7,6,1,9,3,6,7,10,4,-2,3,8,9],"shifted_pitches":[1,7,10,7,6,1,9,3,5,7,10,4,-2,3,8,9],"swapped_pitches":[1,7,10,7,6,1,9,6,3,7,10,4,-2,3,8,9],"shift_direction":-1,"question_num":81,"has_decoy":false},{"rt":1066.4300000062212,"stimulus":"[A] option 1, [L] option 2, [G] neither","key_press":76,"name":"choice","trial_type":"html-keyboard-response","trial_index":109,"time_elapsed":256468,"internal_node_id":"0.0-109.0","subject":"S1C1657","sona":"41636","block":2,"time":"2021-09-23T19:21:02.138Z","response":"2nd","certainty":"high","char":"L","transposition":2,"order":["shifted","swapped"],"probe_pitches":[7,10,5,7,5,0,5,-2,2,10,2,10,7,-2,5,-2],"shifted_pitches":[7,10,5,7,5,0,5,-3,2,10,2,10,7,-2,5,-2],"swapped_pitches":[7,10,5,7,5,0,5,2,-2,10,2,10,7,-2,5,-2],"shift_direction":-1,"question_num":91,"has_decoy":false},{"rt":964.9149999895599,"stimulus":"[A] option 1, [L] option 2, [G] neither","key_press":76,"name":"choice","trial_type":"html-keyboard-response","trial_index":120,"time_elapsed":279726,"internal_node_id":"0.0-120.0","subject":"S1C1657","sona":"41636","block":2,"time":"2021-09-23T19:21:02.138Z","response":"2nd","certainty":"high","char":"L","transposition":0,"order":["swapped","shifted"],"probe_pitches":[10,7,2,10,5,2,7,5,10,2,7,10,-2,0,5,2],"shifted_pitches":[10,7,2,10,5,2,7,6,10,2,7,10,-2,0,5,2],"swapped_pitches":[10,7,2,10,5,2,7,10,5,2,7,10,-2,0,5,2],"shift_direction":1,"question_num":101,"has_decoy":false},{"rt":1545.5000000074506,"stimulus":"[A] option 1, [L] option 2, [G] neither","key_press":76,"name":"choice","trial_type":"html-keyboard-response","trial_index":131,"time_elapsed":303695,"internal_node_id":"0.0-131.0","subject":"S1C1657","sona":"41636","block":2,"time":"2021-09-23T19:21:02.138Z","response":"2nd","certainty":"high","char":"L","transposition":-2,"order":["shifted","swapped"],"probe_pitches":[-2,1,3,5,8,5,10,1,-2,5,1,-2,3,8,3,8],"shifted_pitches":[-2,1,3,5,8,5,10,1,-3,5,1,-2,3,8,3,8],"swapped_pitches":[-2,1,3,5,8,5,10,-2,1,5,1,-2,3,8,3,8],"shift_direction":-1,"question_num":111,"has_decoy":false},{"rt":1322.6399999985006,"stimulus":"[A] option 1, [L] option 2, [G] neither","key_press":76,"name":"choice","trial_type":"html-keyboard-response","trial_index":142,"time_elapsed":327320,"internal_node_id":"0.0-142.0","subject":"S1C1657","sona":"41636","block":2,"time":"2021-09-23T19:21:02.138Z","response":"2nd","certainty":"high","char":"L","transposition":-3,"order":["shifted","swapped"],"probe_pitches":[3,6,1,-2,3,-2,8,1,10,8,6,8,6,3,10,8],"shifted_pitches":[3,6,1,-2,3,-2,8,1,11,8,6,8,6,3,10,8],"swapped_pitches":[3,6,1,-2,3,-2,8,10,1,8,6,8,6,3,10,8],"shift_direction":1,"question_num":121,"has_decoy":false},{"rt":905.7800000009593,"stimulus":"[A] option 1, [L] option 2, [G] neither","key_press":76,"name":"choice","trial_type":"html-keyboard-response","trial_index":153,"time_elapsed":350472,"internal_node_id":"0.0-153.0","subject":"S1C1657","sona":"41636","block":2,"time":"2021-09-23T19:21:02.138Z","response":"2nd","certainty":"high","char":"L","transposition":1,"order":["swapped","shifted"],"probe_pitches":[5,10,7,0,7,0,5,3,-2,0,10,3,5,7,-2,10],"shifted_pitches":[5,10,7,0,7,0,5,4,-2,0,10,3,5,7,-2,10],"swapped_pitches":[5,10,7,0,7,0,5,-2,3,0,10,3,5,7,-2,10],"shift_direction":1,"question_num":131,"has_decoy":false},{"rt":1958.2550000050105,"stimulus":"[A] option 1, [L] option 2, [G] neither","key_press":76,"name":"choice","trial_type":"html-keyboard-response","trial_index":164,"time_elapsed":374734,"internal_node_id":"0.0-164.0","subject":"S1C1657","sona":"41636","block":2,"time":"2021-09-23T19:21:02.138Z","response":"2nd","certainty":"high","char":"L","transposition":-1,"order":["shifted","swapped"],"probe_pitches":[3,5,1,-2,3,8,1,5,-2,1,3,-2,3,10,5,1],"shifted_pitches":[3,5,1,-2,3,8,1,4,-2,1,3,-2,3,10,5,1],"swapped_pitches":[3,5,1,-2,3,8,1,-2,5,1,3,-2,3,10,5,1],"shift_direction":-1,"question_num":141,"has_decoy":false},{"rt":1142.630000016652,"stimulus":"[A] option 1, [L] option 2, [G] neither","key_press":76,"name":"choice","trial_type":"html-keyboard-response","trial_index":175,"time_elapsed":400703,"internal_node_id":"0.0-175.0","subject":"S1C1657","sona":"41636","block":2,"time":"2021-09-23T19:21:02.138Z","response":"2nd","certainty":"high","char":"L","transposition":-1,"order":["shifted","swapped"],"probe_pitches":[8,10,5,8,5,8,3,0,10,5,3,-2,3,5,3,10],"shifted_pitches":[8,10,5,8,5,8,3,0,9,5,3,-2,3,5,3,10],"swapped_pitches":[8,10,5,8,5,8,3,10,0,5,3,-2,3,5,3,10],"shift_direction":-1,"question_num":151,"has_decoy":false},{"rt":1171.1450000002515,"stimulus":"[A] option 1, [L] option 2, [G] neither","key_press":76,"name":"choice","trial_type":"html-keyboard-response","trial_index":186,"time_elapsed":424219,"internal_node_id":"0.0-186.0","subject":"S1C1657","sona":"41636","block":2,"time":"2021-09-23T19:21:02.138Z","response":"2nd","certainty":"high","char":"L","transposition":-2,"order":["swapped","shifted"],"probe_pitches":[2,1,8,6,10,5,-2,2,8,-1,4,6,4,2,5,2],"shifted_pitches":[2,1,8,6,10,5,-2,2,9,-1,4,6,4,2,5,2],"swapped_pitches":[2,1,8,6,10,5,-2,8,2,-1,4,6,4,2,5,2],"shift_direction":1,"question_num":161,"has_decoy":false},{"rt":4093.9049999869894,"stimulus":"[A] option 1, [L] option 2, [G] neither","key_press":76,"name":"choice","trial_type":"html-keyboard-response","trial_index":197,"time_elapsed":453480,"internal_node_id":"0.0-197.0","subject":"S1C1657","sona":"41636","block":2,"time":"2021-09-23T19:21:02.138Z","response":"2nd","certainty":"high","char":"L","transposition":-3,"order":["shifted","swapped"],"probe_pitches":[4,1,3,9,10,1,10,9,7,-1,-2,3,4,-2,3,5],"shifted_pitches":[4,1,3,9,10,1,10,9,6,-1,-2,3,4,-2,3,5],"swapped_pitches":[4,1,3,9,10,1,10,7,9,-1,-2,3,4,-2,3,5],"shift_direction":-1,"question_num":171,"has_decoy":false},{"rt":1860.5450000031851,"stimulus":"[A] option 1, [L] option 2, [G] neither","key_press":76,"name":"choice","trial_type":"html-keyboard-response","trial_index":208,"time_elapsed":481833,"internal_node_id":"0.0-208.0","subject":"S1C1657","sona":"41636","block":2,"time":"2021-09-23T19:21:02.138Z","response":"2nd","certainty":"high","char":"L","transposition":2,"order":["shifted","swapped"],"probe_pitches":[5,9,4,7,-2,6,10,0,6,8,0,-1,5,6,9,2],"shifted_pitches":[5,9,4,7,-2,6,10,1,6,8,0,-1,5,6,9,2],"swapped_pitches":[5,9,4,7,-2,6,10,6,0,8,0,-1,5,6,9,2],"shift_direction":1,"question_num":181,"has_decoy":false},{"rt":389.83500000904314,"stimulus":"[A] option 1, [L] option 2, [G] neither","key_press":76,"name":"choice","trial_type":"html-keyboard-response","trial_index":219,"time_elapsed":505052,"internal_node_id":"0.0-219.0","subject":"S1C1657","sona":"41636","block":2,"time":"2021-09-23T19:21:02.138Z","response":"2nd","certainty":"high","char":"L","transposition":3,"order":["swapped","shifted"],"probe_pitches":[0,5,8,10,5,3,10,-2,3,10,-2,3,10,0,3,8],"shifted_pitches":[0,5,8,10,5,3,10,-2,4,10,-2,3,10,0,3,8],"swapped_pitches":[0,5,8,10,5,3,10,3,-2,10,-2,3,10,0,3,8],"shift_direction":1,"question_num":191,"has_decoy":false}]