[{"rt":1785.4349999977276,"stimulus":"[A] option 1, [L] option 2, [G] neither","key_press":76,"name":"choice","trial_type":"html-keyboard-response","trial_index":10,"time_elapsed":25714,"internal_node_id":"0.0-10.0","subject":"S1C1657","sona":"41636","block":5,"time":"2021-09-23T19:49:19.308Z","response":"2nd","certainty":"high","char":"L","transposition":-3,"order":["swapped","shifted"],"probe_pitches":[7,4,7,2,6,11,1,11,6,4,2,9,11,2,0,10],"shifted_pitches":[7,4,7,2,6,11,1,11,5,4,2,9,11,2,0,10],"swapped_pitches":[7,4,7,2,6,11,1,6,11,4,2,9,11,2,0,10],"shift_direction":-1,"question_num":1,"has_decoy":false},{"rt":1289.3200000105426,"stimulus":"[A] option 1, [L] option 2, [G] neither","key_press":76,"name":"choice","trial_type":"html-keyboard-response","trial_index":21,"time_elapsed":50226,"internal_node_id":"0.0-21.0","subject":"S1C1657","sona":"41636","block":5,"time":"2021-09-23T19:49:19.308Z","response":"2nd","certainty":"high","char":"L","transposition":-3,"order":["shifted","swapped"],"probe_pitches":[10,8,5,4,5,2,1,4,5,1,7,3,10,12,5,4],"shifted_pitches":[10,8,5,4,5,2,1,4,6,1,7,3,10,12,5,4],"swapped_pitches":[10,8,5,4,5,2,1,5,4,1,7,3,10,12,5,4],"shift_direction":1,"question_num":11,"has_decoy":false},{"rt":1673.2400000039488,"stimulus":"[A] option 1, [L] option 2, [G] neither","key_press":76,"name":"choice","trial_type":"html-keyboard-response","trial_index":32,"time_elapsed":74626,"internal_node_id":"0.0-32.0","subject":"S1C1657","sona":"41636","block":5,"time":"2021-09-23T19:49:19.308Z","response":"2nd","certainty":"high","char":"L","transposition":2,"order":["shifted","swapped"],"probe_pitches":[0,2,9,3,5,9,8,10,2,4,3,9,1,4,5,6],"shifted_pitches":[0,2,9,3,5,9,8,11,2,4,3,9,1,4,5,6],"swapped_pitches":[0,2,9,3,5,9,8,2,10,4,3,9,1,4,5,6],"shift_direction":1,"question_num":21,"has_decoy":false},{"rt":3934.6450000014156,"stimulus":"[A] option 1, [L] option 2, [G] neither","key_press":65,"name":"choice","trial_type":"html-keyboard-response","trial_index":43,"time_elapsed":125392,"internal_node_id":"0.0-43.0","subject":"S1C1657","sona":"41636","block":5,"time":"2021-09-23T19:49:19.308Z","response":"1st","certainty":"high","char":"A","transposition":-2,"order":["swapped","shifted"],"probe_pitches":[12,6,4,12,11,3,8,10,3,0,3,1,4,3,7,12],"shifted_pitches":[12,6,4,12,11,3,8,10,2,0,3,1,4,3,7,12],"swapped_pitches":[12,6,4,12,11,3,8,3,10,0,3,1,4,3,7,12],"shift_direction":-1,"question_num":31,"has_decoy":false},{"rt":853.3900000038557,"stimulus":"[A] option 1, [L] option 2, [G] neither","key_press":65,"name":"choice","trial_type":"html-keyboard-response","trial_index":54,"time_elapsed":169709,"internal_node_id":"0.0-54.0","subject":"S1C1657","sona":"41636","block":5,"time":"2021-09-23T19:49:19.308Z","response":"1st","certainty":"high","char":"A","transposition":2,"order":["shifted","swapped"],"probe_pitches":[10,8,6,3,6,15,6,8,3,10,6,3,13,15,6,13],"shifted_pitches":[10,8,6,3,6,15,6,9,3,10,6,3,13,15,6,13],"swapped_pitches":[10,8,6,3,6,15,6,3,8,10,6,3,13,15,6,13],"shift_direction":1,"question_num":41,"has_decoy":false},{"rt":421.77999997511506,"stimulus":"[A] option 1, [L] option 2, [G] neither","key_press":76,"name":"choice","trial_type":"html-keyboard-response","trial_index":65,"time_elapsed":192376,"internal_node_id":"0.0-65.0","subject":"S1C1657","sona":"41636","block":5,"time":"2021-09-23T19:49:19.308Z","response":"2nd","certainty":"high","char":"L","transposition":-1,"order":["shifted","swapped"],"probe_pitches":[9,10,9,8,7,9,12,5,7,12,2,0,2,0,1,5],"shifted_pitches":[9,10,9,8,7,9,12,4,7,12,2,0,2,0,1,5],"swapped_pitches":[9,10,9,8,7,9,12,7,5,12,2,0,2,0,1,5],"shift_direction":-1,"question_num":51,"has_decoy":false},{"rt":1388.260000007227,"stimulus":"[A] option 1, [L] option 2, [G] neither","key_press":76,"name":"choice","trial_type":"html-keyboard-response","trial_index":76,"time_elapsed":216569,"internal_node_id":"0.0-76.0","subject":"S1C1657","sona":"41636","block":5,"time":"2021-09-23T19:49:19.308Z","response":"2nd","certainty":"high","char":"L","transposition":-3,"order":["swapped","shifted"],"probe_pitches":[7,5,10,3,12,7,15,3,10,12,5,15,12,10,15,10],"shifted_pitches":[7,5,10,3,12,7,15,2,10,12,5,15,12,10,15,10],"swapped_pitches":[7,5,10,3,12,7,15,10,3,12,5,15,12,10,15,10],"shift_direction":-1,"question_num":61,"has_decoy":false},{"rt":2570.045000000857,"stimulus":"[A] option 1, [L] option 2, [G] neither","key_press":76,"name":"choice","trial_type":"html-keyboard-response","trial_index":87,"time_elapsed":242342,"internal_node_id":"0.0-87.0","subject":"S1C1657","sona":"41636","block":5,"time":"2021-09-23T19:49:19.308Z","response":"2nd","certainty":"high","char":"L","transposition":-1,"order":["swapped","shifted"],"probe_pitches":[8,3,10,8,15,12,5,15,10,12,5,10,15,8,12,10],"shifted_pitches":[8,3,10,8,15,12,5,15,9,12,5,10,15,8,12,10],"swapped_pitches":[8,3,10,8,15,12,5,10,15,12,5,10,15,8,12,10],"shift_direction":-1,"question_num":71,"has_decoy":false},{"rt":1683.74500001641,"stimulus":"[A] option 1, [L] option 2, [G] neither","key_press":76,"name":"choice","trial_type":"html-keyboard-response","trial_index":98,"time_elapsed":267166,"internal_node_id":"0.0-98.0","subject":"S1C1657","sona":"41636","block":5,"time":"2021-09-23T19:49:19.308Z","response":"2nd","certainty":"high","char":"L","transposition":-3,"order":["shifted","swapped"],"probe_pitches":[5,8,15,8,13,15,8,10,15,8,10,15,13,3,5,8],"shifted_pitches":[5,8,15,8,13,15,8,10,14,8,10,15,13,3,5,8],"swapped_pitches":[5,8,15,8,13,15,8,15,10,8,10,15,13,3,5,8],"shift_direction":-1,"question_num":81,"has_decoy":false},{"rt":4644.849999981932,"stimulus":"[A] option 1, [L] option 2, [G] neither","key_press":65,"name":"choice","trial_type":"html-keyboard-response","trial_index":109,"time_elapsed":295571,"internal_node_id":"0.0-109.0","subject":"S1C1657","sona":"41636","block":5,"time":"2021-09-23T19:49:19.308Z","response":"1st","certainty":"high","char":"A","transposition":1,"order":["shifted","swapped"],"probe_pitches":[5,3,2,1,2,5,6,9,12,2,6,10,3,11,5,10],"shifted_pitches":[5,3,2,1,2,5,6,8,12,2,6,10,3,11,5,10],"swapped_pitches":[5,3,2,1,2,5,6,12,9,2,6,10,3,11,5,10],"shift_direction":-1,"question_num":91,"has_decoy":false},{"rt":1183.2549999817275,"stimulus":"[A] option 1, [L] option 2, [G] neither","key_press":76,"name":"choice","trial_type":"html-keyboard-response","trial_index":120,"time_elapsed":318970,"internal_node_id":"0.0-120.0","subject":"S1C1657","sona":"41636","block":5,"time":"2021-09-23T19:49:19.308Z","response":"2nd","certainty":"high","char":"L","transposition":-1,"order":["swapped","shifted"],"probe_pitches":[1,5,0,3,11,1,6,8,5,6,10,0,4,12,3,9],"shifted_pitches":[1,5,0,3,11,1,6,7,5,6,10,0,4,12,3,9],"swapped_pitches":[1,5,0,3,11,1,6,5,8,6,10,0,4,12,3,9],"shift_direction":-1,"question_num":101,"has_decoy":false},{"rt":1970.9299999810755,"stimulus":"[A] option 1, [L] option 2, [G] neither","key_press":76,"name":"choice","trial_type":"html-keyboard-response","trial_index":131,"time_elapsed":343054,"internal_node_id":"0.0-131.0","subject":"S1C1657","sona":"41636","block":5,"time":"2021-09-23T19:49:19.308Z","response":"2nd","certainty":"high","char":"L","transposition":-2,"order":["shifted","swapped"],"probe_pitches":[15,13,11,13,8,13,11,15,13,3,8,6,13,15,3,6],"shifted_pitches":[15,13,11,13,8,13,11,14,13,3,8,6,13,15,3,6],"swapped_pitches":[15,13,11,13,8,13,11,13,15,3,8,6,13,15,3,6],"shift_direction":-1,"question_num":111,"has_decoy":false},{"rt":1545.064999983646,"stimulus":"[A] option 1, [L] option 2, [G] neither","key_press":76,"name":"choice","trial_type":"html-keyboard-response","trial_index":142,"time_elapsed":367381,"internal_node_id":"0.0-142.0","subject":"S1C1657","sona":"41636","block":5,"time":"2021-09-23T19:49:19.308Z","response":"2nd","certainty":"high","char":"L","transposition":-2,"order":["shifted","swapped"],"probe_pitches":[2,8,9,2,4,11,12,2,9,6,5,4,5,7,3,4],"shifted_pitches":[2,8,9,2,4,11,12,2,10,6,5,4,5,7,3,4],"swapped_pitches":[2,8,9,2,4,11,12,9,2,6,5,4,5,7,3,4],"shift_direction":1,"question_num":121,"has_decoy":false},{"rt":1387.300000002142,"stimulus":"[A] option 1, [L] option 2, [G] neither","key_press":76,"name":"choice","trial_type":"html-keyboard-response","trial_index":153,"time_elapsed":391175,"internal_node_id":"0.0-153.0","subject":"S1C1657","sona":"41636","block":5,"time":"2021-09-23T19:49:19.308Z","response":"2nd","certainty":"high","char":"L","transposition":-1,"order":["shifted","swapped"],"probe_pitches":[10,12,15,8,10,8,5,3,8,15,12,15,12,10,15,3],"shifted_pitches":[10,12,15,8,10,8,5,4,8,15,12,15,12,10,15,3],"swapped_pitches":[10,12,15,8,10,8,5,8,3,15,12,15,12,10,15,3],"shift_direction":1,"question_num":131,"has_decoy":false},{"rt":1751.3650000034831,"stimulus":"[A] option 1, [L] option 2, [G] neither","key_press":76,"name":"choice","trial_type":"html-keyboard-response","trial_index":164,"time_elapsed":415328,"internal_node_id":"0.0-164.0","subject":"S1C1657","sona":"41636","block":5,"time":"2021-09-23T19:49:19.308Z","response":"2nd","certainty":"high","char":"L","transposition":0,"order":["swapped","shifted"],"probe_pitches":[10,11,12,5,10,7,1,3,8,0,2,1,0,7,8,1],"shifted_pitches":[10,11,12,5,10,7,1,3,9,0,2,1,0,7,8,1],"swapped_pitches":[10,11,12,5,10,7,1,8,3,0,2,1,0,7,8,1],"shift_direction":1,"question_num":141,"has_decoy":false},{"rt":10606.14499999769,"stimulus":"[A] option 1, [L] option 2, [G] neither","key_press":76,"name":"choice","trial_type":"html-keyboard-response","trial_index":175,"time_elapsed":452002,"internal_node_id":"0.0-175.0","subject":"S1C1657","sona":"41636","block":5,"time":"2021-09-23T19:49:19.308Z","response":"2nd","certainty":"high","char":"L","transposition":-2,"order":["swapped","shifted"],"probe_pitches":[8,11,15,8,15,8,6,13,15,11,13,8,13,6,3,8],"shifted_pitches":[8,11,15,8,15,8,6,13,16,11,13,8,13,6,3,8],"swapped_pitches":[8,11,15,8,15,8,6,15,13,11,13,8,13,6,3,8],"shift_direction":1,"question_num":151,"has_decoy":false},{"rt":1324.5149999856949,"stimulus":"[A] option 1, [L] option 2, [G] neither","key_press":76,"name":"choice","trial_type":"html-keyboard-response","trial_index":186,"time_elapsed":478155,"internal_node_id":"0.0-186.0","subject":"S1C1657","sona":"41636","block":5,"time":"2021-09-23T19:49:19.308Z","response":"2nd","certainty":"high","char":"L","transposition":3,"order":["swapped","shifted"],"probe_pitches":[11,8,11,8,5,0,1,2,11,8,0,5,7,2,0,12],"shifted_pitches":[11,8,11,8,5,0,1,3,11,8,0,5,7,2,0,12],"swapped_pitches":[11,8,11,8,5,0,1,11,2,8,0,5,7,2,0,12],"shift_direction":1,"question_num":161,"has_decoy":false},{"rt":3292.9100000187755,"stimulus":"[A] option 1, [L] option 2, [G] neither","key_press":76,"name":"choice","trial_type":"html-keyboard-response","trial_index":197,"time_elapsed":512614,"internal_node_id":"0.0-197.0","subject":"S1C1657","sona":"41636","block":5,"time":"2021-09-23T19:49:19.308Z","response":"2nd","certainty":"high","char":"L","transposition":3,"order":["shifted","swapped"],"probe_pitches":[10,12,5,7,12,10,3,12,10,15,5,3,5,10,15,7],"shifted_pitches":[10,12,5,7,12,10,3,12,11,15,5,3,5,10,15,7],"swapped_pitches":[10,12,5,7,12,10,3,10,12,15,5,3,5,10,15,7],"shift_direction":1,"question_num":171,"has_decoy":false},{"rt":2770.069999998901,"stimulus":"[A] option 1, [L] option 2, [G] neither","key_press":76,"name":"choice","trial_type":"html-keyboard-response","trial_index":208,"time_elapsed":538133,"internal_node_id":"0.0-208.0","subject":"S1C1657","sona":"41636","block":5,"time":"2021-09-23T19:49:19.308Z","response":"2nd","certainty":"high","char":"L","transposition":0,"order":["swapped","shifted"],"probe_pitches":[15,10,5,10,3,8,5,13,15,8,15,8,5,3,5,10],"shifted_pitches":[15,10,5,10,3,8,5,13,14,8,15,8,5,3,5,10],"swapped_pitches":[15,10,5,10,3,8,5,15,13,8,15,8,5,3,5,10],"shift_direction":-1,"question_num":181,"has_decoy":false},{"rt":5264.999999984633,"stimulus":"[A] option 1, [L] option 2, [G] neither","key_press":76,"name":"choice","trial_type":"html-keyboard-response","trial_index":219,"time_elapsed":566879,"internal_node_id":"0.0-219.0","subject":"S1C1657","sona":"41636","block":5,"time":"2021-09-23T19:49:19.308Z","response":"2nd","certainty":"high","char":"L","transposition":1,"order":["swapped","shifted"],"probe_pitches":[15,10,15,8,15,8,6,3,8,15,13,10,3,10,15,10],"shifted_pitches":[15,10,15,8,15,8,6,4,8,15,13,10,3,10,15,10],"swapped_pitches":[15,10,15,8,15,8,6,8,3,15,13,10,3,10,15,10],"shift_direction":1,"question_num":191,"has_decoy":false}]