[{"rt":1643.7500000174623,"stimulus":"[A] option 1, [L] option 2, [G] neither","key_press":76,"name":"choice","trial_type":"html-keyboard-response","trial_index":10,"time_elapsed":24648,"internal_node_id":"0.0-10.0","subject":"S1C1657","sona":"41636","block":4,"time":"2021-09-23T19:39:49.335Z","response":"2nd","certainty":"high","char":"L","transposition":-3,"order":["swapped","shifted"],"probe_pitches":[9,5,2,4,-2,7,0,4,7,9,3,2,-3,3,0,6],"shifted_pitches":[9,5,2,4,-2,7,0,4,8,9,3,2,-3,3,0,6],"swapped_pitches":[9,5,2,4,-2,7,0,7,4,9,3,2,-3,3,0,6],"shift_direction":1,"question_num":1,"has_decoy":false},{"rt":1243.8750000146683,"stimulus":"[A] option 1, [L] option 2, [G] neither","key_press":76,"name":"choice","trial_type":"html-keyboard-response","trial_index":21,"time_elapsed":55253,"internal_node_id":"0.0-21.0","subject":"S1C1657","sona":"41636","block":4,"time":"2021-09-23T19:39:49.335Z","response":"2nd","certainty":"high","char":"L","transposition":-2,"order":["swapped","shifted"],"probe_pitches":[3,-3,3,-3,-1,3,5,9,1,4,0,9,-2,8,6,4],"shifted_pitches":[3,-3,3,-3,-1,3,5,9,2,4,0,9,-2,8,6,4],"swapped_pitches":[3,-3,3,-3,-1,3,5,1,9,4,0,9,-2,8,6,4],"shift_direction":1,"question_num":11,"has_decoy":false},{"rt":11402.455000003101,"stimulus":"[A] option 1, [L] option 2, [G] neither","key_press":76,"name":"choice","trial_type":"html-keyboard-response","trial_index":32,"time_elapsed":95529,"internal_node_id":"0.0-32.0","subject":"S1C1657","sona":"41636","block":4,"time":"2021-09-23T19:39:49.335Z","response":"2nd","certainty":"high","char":"L","transposition":2,"order":["shifted","swapped"],"probe_pitches":[1,3,-2,2,1,2,3,9,-1,8,7,3,8,7,4,1],"shifted_pitches":[1,3,-2,2,1,2,3,9,0,8,7,3,8,7,4,1],"swapped_pitches":[1,3,-2,2,1,2,3,-1,9,8,7,3,8,7,4,1],"shift_direction":1,"question_num":21,"has_decoy":false},{"rt":1301.7200000176672,"stimulus":"[A] option 1, [L] option 2, [G] neither","key_press":76,"name":"choice","trial_type":"html-keyboard-response","trial_index":43,"time_elapsed":129785,"internal_node_id":"0.0-43.0","subject":"S1C1657","sona":"41636","block":4,"time":"2021-09-23T19:39:49.335Z","response":"2nd","certainty":"high","char":"L","transposition":2,"order":["swapped","shifted"],"probe_pitches":[9,4,6,4,2,9,-1,2,11,9,6,2,6,9,-1,4],"shifted_pitches":[9,4,6,4,2,9,-1,2,12,9,6,2,6,9,-1,4],"swapped_pitches":[9,4,6,4,2,9,-1,11,2,9,6,2,6,9,-1,4],"shift_direction":1,"question_num":31,"has_decoy":false},{"rt":11434.940000006463,"stimulus":"[A] option 1, [L] option 2, [G] neither","key_press":76,"name":"choice","trial_type":"html-keyboard-response","trial_index":54,"time_elapsed":170982,"internal_node_id":"0.0-54.0","subject":"S1C1657","sona":"41636","block":4,"time":"2021-09-23T19:39:49.335Z","response":"2nd","certainty":"high","char":"L","transposition":3,"order":["shifted","swapped"],"probe_pitches":[8,6,8,9,3,1,-2,1,8,2,6,1,8,2,5,-3],"shifted_pitches":[8,6,8,9,3,1,-2,1,7,2,6,1,8,2,5,-3],"swapped_pitches":[8,6,8,9,3,1,-2,8,1,2,6,1,8,2,5,-3],"shift_direction":-1,"question_num":41,"has_decoy":false},{"rt":3830.0599999784026,"stimulus":"[A] option 1, [L] option 2, [G] neither","key_press":71,"name":"choice","trial_type":"html-keyboard-response","trial_index":65,"time_elapsed":199862,"internal_node_id":"0.0-65.0","subject":"S1C1657","sona":"41636","block":4,"time":"2021-09-23T19:39:49.335Z","response":"neither","certainty":"high","char":"G","transposition":-3,"order":["swapped","shifted"],"probe_pitches":[5,2,4,3,-2,1,9,2,7,9,8,5,0,-1,-3,-1],"shifted_pitches":[5,2,4,3,-2,1,9,2,6,9,8,5,0,-1,-3,-1],"swapped_pitches":[5,2,4,3,-2,1,9,7,2,9,8,5,0,-1,-3,-1],"shift_direction":-1,"question_num":51,"has_decoy":false},{"rt":1440.6449999951292,"stimulus":"[A] option 1, [L] option 2, [G] neither","key_press":76,"name":"choice","trial_type":"html-keyboard-response","trial_index":76,"time_elapsed":225163,"internal_node_id":"0.0-76.0","subject":"S1C1657","sona":"41636","block":4,"time":"2021-09-23T19:39:49.335Z","response":"2nd","certainty":"high","char":"L","transposition":1,"order":["swapped","shifted"],"probe_pitches":[2,7,3,0,2,5,3,0,8,9,7,2,5,9,7,-3],"shifted_pitches":[2,7,3,0,2,5,3,-1,8,9,7,2,5,9,7,-3],"swapped_pitches":[2,7,3,0,2,5,3,8,0,9,7,2,5,9,7,-3],"shift_direction":-1,"question_num":61,"has_decoy":false},{"rt":806.4349999767728,"stimulus":"[A] option 1, [L] option 2, [G] neither","key_press":71,"name":"choice","trial_type":"html-keyboard-response","trial_index":87,"time_elapsed":249108,"internal_node_id":"0.0-87.0","subject":"S1C1657","sona":"41636","block":4,"time":"2021-09-23T19:39:49.335Z","response":"neither","certainty":"high","char":"G","transposition":-1,"order":["swapped","shifted"],"probe_pitches":[-1,1,-1,4,1,-1,6,8,4,1,8,6,1,11,1,11],"shifted_pitches":[-1,1,-1,4,1,-1,6,8,3,1,8,6,1,11,1,11],"swapped_pitches":[-1,1,-1,4,1,-1,6,4,8,1,8,6,1,11,1,11],"shift_direction":-1,"question_num":71,"has_decoy":false},{"rt":827.4150000070222,"stimulus":"[A] option 1, [L] option 2, [G] neither","key_press":71,"name":"choice","trial_type":"html-keyboard-response","trial_index":98,"time_elapsed":277191,"internal_node_id":"0.0-98.0","subject":"S1C1657","sona":"41636","block":4,"time":"2021-09-23T19:39:49.335Z","response":"neither","certainty":"high","char":"G","transposition":-3,"order":["shifted","swapped"],"probe_pitches":[11,6,11,6,1,6,11,9,-1,4,1,-1,1,-1,4,6],"shifted_pitches":[11,6,11,6,1,6,11,9,0,4,1,-1,1,-1,4,6],"swapped_pitches":[11,6,11,6,1,6,11,-1,9,4,1,-1,1,-1,4,6],"shift_direction":1,"question_num":81,"has_decoy":false},{"rt":1892.3350000113714,"stimulus":"[A] option 1, [L] option 2, [G] neither","key_press":65,"name":"choice","trial_type":"html-keyboard-response","trial_index":109,"time_elapsed":302271,"internal_node_id":"0.0-109.0","subject":"S1C1657","sona":"41636","block":4,"time":"2021-09-23T19:39:49.335Z","response":"1st","certainty":"high","char":"A","transposition":-1,"order":["shifted","swapped"],"probe_pitches":[11,7,11,9,11,9,11,7,4,11,7,9,4,2,-1,2],"shifted_pitches":[11,7,11,9,11,9,11,6,4,11,7,9,4,2,-1,2],"swapped_pitches":[11,7,11,9,11,9,11,4,7,11,7,9,4,2,-1,2],"shift_direction":-1,"question_num":91,"has_decoy":false},{"rt":423.03499998524785,"stimulus":"[A] option 1, [L] option 2, [G] neither","key_press":65,"name":"choice","trial_type":"html-keyboard-response","trial_index":120,"time_elapsed":325166,"internal_node_id":"0.0-120.0","subject":"S1C1657","sona":"41636","block":4,"time":"2021-09-23T19:39:49.335Z","response":"1st","certainty":"high","char":"A","transposition":-3,"order":["swapped","shifted"],"probe_pitches":[-1,1,6,11,6,8,11,8,-1,6,11,1,8,3,-1,8],"shifted_pitches":[-1,1,6,11,6,8,11,8,0,6,11,1,8,3,-1,8],"swapped_pitches":[-1,1,6,11,6,8,11,-1,8,6,11,1,8,3,-1,8],"shift_direction":1,"question_num":101,"has_decoy":false},{"rt":1793.805000022985,"stimulus":"[A] option 1, [L] option 2, [G] neither","key_press":76,"name":"choice","trial_type":"html-keyboard-response","trial_index":131,"time_elapsed":350181,"internal_node_id":"0.0-131.0","subject":"S1C1657","sona":"41636","block":4,"time":"2021-09-23T19:39:49.335Z","response":"2nd","certainty":"high","char":"L","transposition":3,"order":["swapped","shifted"],"probe_pitches":[11,6,9,4,6,1,11,6,9,4,1,11,-1,4,9,11],"shifted_pitches":[11,6,9,4,6,1,11,5,9,4,1,11,-1,4,9,11],"swapped_pitches":[11,6,9,4,6,1,11,9,6,4,1,11,-1,4,9,11],"shift_direction":-1,"question_num":111,"has_decoy":false},{"rt":817.1849999926053,"stimulus":"[A] option 1, [L] option 2, [G] neither","key_press":76,"name":"choice","trial_type":"html-keyboard-response","trial_index":142,"time_elapsed":373116,"internal_node_id":"0.0-142.0","subject":"S1C1657","sona":"41636","block":4,"time":"2021-09-23T19:39:49.335Z","response":"2nd","certainty":"high","char":"L","transposition":0,"order":["shifted","swapped"],"probe_pitches":[5,4,5,-3,4,-3,-1,4,-2,0,-3,-2,5,-2,8,0],"shifted_pitches":[5,4,5,-3,4,-3,-1,3,-2,0,-3,-2,5,-2,8,0],"swapped_pitches":[5,4,5,-3,4,-3,-1,-2,4,0,-3,-2,5,-2,8,0],"shift_direction":-1,"question_num":121,"has_decoy":false},{"rt":3540.1100000017323,"stimulus":"[A] option 1, [L] option 2, [G] neither","key_press":71,"name":"choice","trial_type":"html-keyboard-response","trial_index":153,"time_elapsed":401927,"internal_node_id":"0.0-153.0","subject":"S1C1657","sona":"41636","block":4,"time":"2021-09-23T19:39:49.335Z","response":"neither","certainty":"high","char":"G","transposition":-2,"order":["swapped","shifted"],"probe_pitches":[4,8,4,8,11,6,-1,4,11,1,8,6,-1,6,4,11],"shifted_pitches":[4,8,4,8,11,6,-1,3,11,1,8,6,-1,6,4,11],"swapped_pitches":[4,8,4,8,11,6,-1,11,4,1,8,6,-1,6,4,11],"shift_direction":-1,"question_num":131,"has_decoy":false},{"rt":1820.144999976037,"stimulus":"[A] option 1, [L] option 2, [G] neither","key_press":76,"name":"choice","trial_type":"html-keyboard-response","trial_index":164,"time_elapsed":428914,"internal_node_id":"0.0-164.0","subject":"S1C1657","sona":"41636","block":4,"time":"2021-09-23T19:39:49.335Z","response":"2nd","certainty":"high","char":"L","transposition":-1,"order":["swapped","shifted"],"probe_pitches":[9,5,9,8,5,3,-2,0,-3,7,-3,3,-3,-1,6,0],"shifted_pitches":[9,5,9,8,5,3,-2,1,-3,7,-3,3,-3,-1,6,0],"swapped_pitches":[9,5,9,8,5,3,-2,-3,0,7,-3,3,-3,-1,6,0],"shift_direction":1,"question_num":141,"has_decoy":false},{"rt":548.4250000154134,"stimulus":"[A] option 1, [L] option 2, [G] neither","key_press":76,"name":"choice","trial_type":"html-keyboard-response","trial_index":175,"time_elapsed":452981,"internal_node_id":"0.0-175.0","subject":"S1C1657","sona":"41636","block":4,"time":"2021-09-23T19:39:49.335Z","response":"2nd","certainty":"high","char":"L","transposition":-1,"order":["shifted","swapped"],"probe_pitches":[7,3,1,7,1,3,7,4,3,7,-1,4,7,0,6,2],"shifted_pitches":[7,3,1,7,1,3,7,5,3,7,-1,4,7,0,6,2],"swapped_pitches":[7,3,1,7,1,3,7,3,4,7,-1,4,7,0,6,2],"shift_direction":1,"question_num":151,"has_decoy":false},{"rt":1072.3149999976158,"stimulus":"[A] option 1, [L] option 2, [G] neither","key_press":71,"name":"choice","trial_type":"html-keyboard-response","trial_index":186,"time_elapsed":476587,"internal_node_id":"0.0-186.0","subject":"S1C1657","sona":"41636","block":4,"time":"2021-09-23T19:39:49.335Z","response":"neither","certainty":"high","char":"G","transposition":0,"order":["shifted","swapped"],"probe_pitches":[3,1,-1,1,-1,1,-1,11,6,8,-1,8,1,3,1,11],"shifted_pitches":[3,1,-1,1,-1,1,-1,12,6,8,-1,8,1,3,1,11],"swapped_pitches":[3,1,-1,1,-1,1,-1,6,11,8,-1,8,1,3,1,11],"shift_direction":1,"question_num":161,"has_decoy":false},{"rt":630.2999999900348,"stimulus":"[A] option 1, [L] option 2, [G] neither","key_press":65,"name":"choice","trial_type":"html-keyboard-response","trial_index":197,"time_elapsed":499243,"internal_node_id":"0.0-197.0","subject":"S1C1657","sona":"41636","block":4,"time":"2021-09-23T19:39:49.335Z","response":"1st","certainty":"high","char":"A","transposition":1,"order":["shifted","swapped"],"probe_pitches":[4,2,9,4,11,9,2,-1,11,9,6,2,6,2,-1,6],"shifted_pitches":[4,2,9,4,11,9,2,-1,10,9,6,2,6,2,-1,6],"swapped_pitches":[4,2,9,4,11,9,2,11,-1,9,6,2,6,2,-1,6],"shift_direction":-1,"question_num":171,"has_decoy":false},{"rt":1747.4949999884702,"stimulus":"[A] option 1, [L] option 2, [G] neither","key_press":76,"name":"choice","trial_type":"html-keyboard-response","trial_index":208,"time_elapsed":523941,"internal_node_id":"0.0-208.0","subject":"S1C1657","sona":"41636","block":4,"time":"2021-09-23T19:39:49.335Z","response":"2nd","certainty":"high","char":"L","transposition":-2,"order":["shifted","swapped"],"probe_pitches":[7,9,2,7,2,7,9,4,7,-1,9,7,9,-1,7,-1],"shifted_pitches":[7,9,2,7,2,7,9,5,7,-1,9,7,9,-1,7,-1],"swapped_pitches":[7,9,2,7,2,7,9,7,4,-1,9,7,9,-1,7,-1],"shift_direction":1,"question_num":181,"has_decoy":false},{"rt":1191.614999988582,"stimulus":"[A] option 1, [L] option 2, [G] neither","key_press":76,"name":"choice","trial_type":"html-keyboard-response","trial_index":219,"time_elapsed":557107,"internal_node_id":"0.0-219.0","subject":"S1C1657","sona":"41636","block":4,"time":"2021-09-23T19:39:49.335Z","response":"2nd","certainty":"high","char":"L","transposition":-2,"order":["shifted","swapped"],"probe_pitches":[-3,2,5,9,3,0,8,5,3,1,8,0,9,2,-2,6],"shifted_pitches":[-3,2,5,9,3,0,8,4,3,1,8,0,9,2,-2,6],"swapped_pitches":[-3,2,5,9,3,0,8,3,5,1,8,0,9,2,-2,6],"shift_direction":-1,"question_num":191,"has_decoy":false}]