[{"rt":2596.6450000123587,"stimulus":"[A] option 1, [L] option 2, [G] neither","key_press":76,"name":"choice","trial_type":"html-keyboard-response","trial_index":10,"time_elapsed":26989,"internal_node_id":"0.0-10.0","subject":"S1C1657","sona":"41636","block":3,"time":"2021-09-23T19:30:28.584Z","response":"2nd","certainty":"high","char":"L","transposition":-2,"order":["shifted","swapped"],"probe_pitches":[4,2,9,4,2,9,4,9,2,7,11,4,7,9,2,11],"shifted_pitches":[4,2,9,4,2,9,4,10,2,7,11,4,7,9,2,11],"swapped_pitches":[4,2,9,4,2,9,4,2,9,7,11,4,7,9,2,11],"shift_direction":1,"question_num":1,"has_decoy":false},{"rt":1609.6499999985099,"stimulus":"[A] option 1, [L] option 2, [G] neither","key_press":76,"name":"choice","trial_type":"html-keyboard-response","trial_index":21,"time_elapsed":52211,"internal_node_id":"0.0-21.0","subject":"S1C1657","sona":"41636","block":3,"time":"2021-09-23T19:30:28.584Z","response":"2nd","certainty":"high","char":"L","transposition":-1,"order":["shifted","swapped"],"probe_pitches":[-1,3,1,-1,8,-1,8,11,3,-1,11,6,1,11,6,3],"shifted_pitches":[-1,3,1,-1,8,-1,8,10,3,-1,11,6,1,11,6,3],"swapped_pitches":[-1,3,1,-1,8,-1,8,3,11,-1,11,6,1,11,6,3],"shift_direction":-1,"question_num":11,"has_decoy":false},{"rt":3157.3149999894667,"stimulus":"[A] option 1, [L] option 2, [G] neither","key_press":76,"name":"choice","trial_type":"html-keyboard-response","trial_index":32,"time_elapsed":78013,"internal_node_id":"0.0-32.0","subject":"S1C1657","sona":"41636","block":3,"time":"2021-09-23T19:30:28.584Z","response":"2nd","certainty":"high","char":"L","transposition":-3,"order":["swapped","shifted"],"probe_pitches":[1,5,10,9,5,6,4,9,10,1,3,4,-1,10,4,2],"shifted_pitches":[1,5,10,9,5,6,4,8,10,1,3,4,-1,10,4,2],"swapped_pitches":[1,5,10,9,5,6,4,10,9,1,3,4,-1,10,4,2],"shift_direction":-1,"question_num":21,"has_decoy":false},{"rt":358.80500002531335,"stimulus":"[A] option 1, [L] option 2, [G] neither","key_press":76,"name":"choice","trial_type":"html-keyboard-response","trial_index":43,"time_elapsed":100652,"internal_node_id":"0.0-43.0","subject":"S1C1657","sona":"41636","block":3,"time":"2021-09-23T19:30:28.584Z","response":"2nd","certainty":"high","char":"L","transposition":-3,"order":["swapped","shifted"],"probe_pitches":[8,6,8,6,-1,8,1,4,6,11,8,4,8,1,11,1],"shifted_pitches":[8,6,8,6,-1,8,1,5,6,11,8,4,8,1,11,1],"swapped_pitches":[8,6,8,6,-1,8,1,6,4,11,8,4,8,1,11,1],"shift_direction":1,"question_num":31,"has_decoy":false},{"rt":326.26999999047257,"stimulus":"[A] option 1, [L] option 2, [G] neither","key_press":76,"name":"choice","trial_type":"html-keyboard-response","trial_index":54,"time_elapsed":124392,"internal_node_id":"0.0-54.0","subject":"S1C1657","sona":"41636","block":3,"time":"2021-09-23T19:30:28.584Z","response":"2nd","certainty":"high","char":"L","transposition":-2,"order":["swapped","shifted"],"probe_pitches":[-1,2,-1,2,9,-1,9,11,2,-1,4,11,9,6,-1,2],"shifted_pitches":[-1,2,-1,2,9,-1,9,11,3,-1,4,11,9,6,-1,2],"swapped_pitches":[-1,2,-1,2,9,-1,9,2,11,-1,4,11,9,6,-1,2],"shift_direction":1,"question_num":41,"has_decoy":false},{"rt":546.8999999866355,"stimulus":"[A] option 1, [L] option 2, [G] neither","key_press":76,"name":"choice","trial_type":"html-keyboard-response","trial_index":65,"time_elapsed":147293,"internal_node_id":"0.0-65.0","subject":"S1C1657","sona":"41636","block":3,"time":"2021-09-23T19:30:28.584Z","response":"2nd","certainty":"high","char":"L","transposition":0,"order":["swapped","shifted"],"probe_pitches":[9,7,4,-1,2,4,-1,2,11,7,2,4,7,-1,11,9],"shifted_pitches":[9,7,4,-1,2,4,-1,2,10,7,2,4,7,-1,11,9],"swapped_pitches":[9,7,4,-1,2,4,-1,11,2,7,2,4,7,-1,11,9],"shift_direction":-1,"question_num":51,"has_decoy":false},{"rt":1815.6200000084937,"stimulus":"[A] option 1, [L] option 2, [G] neither","key_press":76,"name":"choice","trial_type":"html-keyboard-response","trial_index":76,"time_elapsed":171800,"internal_node_id":"0.0-76.0","subject":"S1C1657","sona":"41636","block":3,"time":"2021-09-23T19:30:28.584Z","response":"2nd","certainty":"high","char":"L","transposition":2,"order":["swapped","shifted"],"probe_pitches":[0,3,5,2,9,2,1,7,9,4,8,3,10,9,11,10],"shifted_pitches":[0,3,5,2,9,2,1,6,9,4,8,3,10,9,11,10],"swapped_pitches":[0,3,5,2,9,2,1,9,7,4,8,3,10,9,11,10],"shift_direction":-1,"question_num":61,"has_decoy":false},{"rt":1624.5900000212714,"stimulus":"[A] option 1, [L] option 2, [G] neither","key_press":76,"name":"choice","trial_type":"html-keyboard-response","trial_index":87,"time_elapsed":196507,"internal_node_id":"0.0-87.0","subject":"S1C1657","sona":"41636","block":3,"time":"2021-09-23T19:30:28.584Z","response":"2nd","certainty":"high","char":"L","transposition":1,"order":["swapped","shifted"],"probe_pitches":[3,6,11,6,1,11,8,-1,11,3,-1,8,6,1,8,3],"shifted_pitches":[3,6,11,6,1,11,8,0,11,3,-1,8,6,1,8,3],"swapped_pitches":[3,6,11,6,1,11,8,11,-1,3,-1,8,6,1,8,3],"shift_direction":1,"question_num":71,"has_decoy":false},{"rt":1438.4750000026543,"stimulus":"[A] option 1, [L] option 2, [G] neither","key_press":76,"name":"choice","trial_type":"html-keyboard-response","trial_index":98,"time_elapsed":224168,"internal_node_id":"0.0-98.0","subject":"S1C1657","sona":"41636","block":3,"time":"2021-09-23T19:30:28.584Z","response":"2nd","certainty":"high","char":"L","transposition":2,"order":["shifted","swapped"],"probe_pitches":[9,6,9,1,6,11,6,4,-1,1,6,4,9,11,1,6],"shifted_pitches":[9,6,9,1,6,11,6,4,-2,1,6,4,9,11,1,6],"swapped_pitches":[9,6,9,1,6,11,6,-1,4,1,6,4,9,11,1,6],"shift_direction":-1,"question_num":81,"has_decoy":false},{"rt":2745.484999992186,"stimulus":"[A] option 1, [L] option 2, [G] neither","key_press":76,"name":"choice","trial_type":"html-keyboard-response","trial_index":109,"time_elapsed":255592,"internal_node_id":"0.0-109.0","subject":"S1C1657","sona":"41636","block":3,"time":"2021-09-23T19:30:28.584Z","response":"2nd","certainty":"high","char":"L","transposition":1,"order":["shifted","swapped"],"probe_pitches":[-1,1,3,1,6,2,7,9,1,8,7,1,9,1,8,3],"shifted_pitches":[-1,1,3,1,6,2,7,10,1,8,7,1,9,1,8,3],"swapped_pitches":[-1,1,3,1,6,2,7,1,9,8,7,1,9,1,8,3],"shift_direction":1,"question_num":91,"has_decoy":false},{"rt":1591.950000001816,"stimulus":"[A] option 1, [L] option 2, [G] neither","key_press":76,"name":"choice","trial_type":"html-keyboard-response","trial_index":120,"time_elapsed":283261,"internal_node_id":"0.0-120.0","subject":"S1C1657","sona":"41636","block":3,"time":"2021-09-23T19:30:28.584Z","response":"2nd","certainty":"high","char":"L","transposition":-3,"order":["swapped","shifted"],"probe_pitches":[1,-1,1,6,4,11,1,11,6,-1,11,9,11,6,9,1],"shifted_pitches":[1,-1,1,6,4,11,1,11,7,-1,11,9,11,6,9,1],"swapped_pitches":[1,-1,1,6,4,11,1,6,11,-1,11,9,11,6,9,1],"shift_direction":1,"question_num":101,"has_decoy":false},{"rt":1383.1549999886192,"stimulus":"[A] option 1, [L] option 2, [G] neither","key_press":76,"name":"choice","trial_type":"html-keyboard-response","trial_index":131,"time_elapsed":308432,"internal_node_id":"0.0-131.0","subject":"S1C1657","sona":"41636","block":3,"time":"2021-09-23T19:30:28.584Z","response":"2nd","certainty":"high","char":"L","transposition":-3,"order":["swapped","shifted"],"probe_pitches":[-1,1,6,8,-1,1,10,5,2,-1,7,1,6,10,6,8],"shifted_pitches":[-1,1,6,8,-1,1,10,4,2,-1,7,1,6,10,6,8],"swapped_pitches":[-1,1,6,8,-1,1,10,2,5,-1,7,1,6,10,6,8],"shift_direction":-1,"question_num":111,"has_decoy":false},{"rt":1878.2399999909103,"stimulus":"[A] option 1, [L] option 2, [G] neither","key_press":76,"name":"choice","trial_type":"html-keyboard-response","trial_index":142,"time_elapsed":346945,"internal_node_id":"0.0-142.0","subject":"S1C1657","sona":"41636","block":3,"time":"2021-09-23T19:30:28.584Z","response":"2nd","certainty":"high","char":"L","transposition":-1,"order":["shifted","swapped"],"probe_pitches":[4,8,11,6,4,9,7,4,2,1,6,9,0,1,4,6],"shifted_pitches":[4,8,11,6,4,9,7,4,3,1,6,9,0,1,4,6],"swapped_pitches":[4,8,11,6,4,9,7,2,4,1,6,9,0,1,4,6],"shift_direction":1,"question_num":121,"has_decoy":false},{"rt":4329.335000016727,"stimulus":"[A] option 1, [L] option 2, [G] neither","key_press":76,"name":"choice","trial_type":"html-keyboard-response","trial_index":153,"time_elapsed":381917,"internal_node_id":"0.0-153.0","subject":"S1C1657","sona":"41636","block":3,"time":"2021-09-23T19:30:28.584Z","response":"2nd","certainty":"high","char":"L","transposition":3,"order":["shifted","swapped"],"probe_pitches":[3,8,2,7,1,9,6,7,4,-1,3,0,2,9,3,7],"shifted_pitches":[3,8,2,7,1,9,6,7,5,-1,3,0,2,9,3,7],"swapped_pitches":[3,8,2,7,1,9,6,4,7,-1,3,0,2,9,3,7],"shift_direction":1,"question_num":131,"has_decoy":false},{"rt":1211.1999999906402,"stimulus":"[A] option 1, [L] option 2, [G] neither","key_press":76,"name":"choice","trial_type":"html-keyboard-response","trial_index":164,"time_elapsed":416468,"internal_node_id":"0.0-164.0","subject":"S1C1657","sona":"41636","block":3,"time":"2021-09-23T19:30:28.584Z","response":"2nd","certainty":"high","char":"L","transposition":3,"order":["shifted","swapped"],"probe_pitches":[-1,4,8,1,6,4,6,11,-1,1,6,11,-1,6,1,11],"shifted_pitches":[-1,4,8,1,6,4,6,10,-1,1,6,11,-1,6,1,11],"swapped_pitches":[-1,4,8,1,6,4,6,-1,11,1,6,11,-1,6,1,11],"shift_direction":-1,"question_num":141,"has_decoy":false},{"rt":3591.8750000128057,"stimulus":"[A] option 1, [L] option 2, [G] neither","key_press":76,"name":"choice","trial_type":"html-keyboard-response","trial_index":175,"time_elapsed":451293,"internal_node_id":"0.0-175.0","subject":"S1C1657","sona":"41636","block":3,"time":"2021-09-23T19:30:28.584Z","response":"2nd","certainty":"high","char":"L","transposition":-2,"order":["shifted","swapped"],"probe_pitches":[8,10,5,-1,7,10,0,4,8,-1,5,10,8,2,0,4],"shifted_pitches":[8,10,5,-1,7,10,0,4,9,-1,5,10,8,2,0,4],"swapped_pitches":[8,10,5,-1,7,10,0,8,4,-1,5,10,8,2,0,4],"shift_direction":1,"question_num":151,"has_decoy":false},{"rt":1330.5799999798182,"stimulus":"[A] option 1, [L] option 2, [G] neither","key_press":76,"name":"choice","trial_type":"html-keyboard-response","trial_index":186,"time_elapsed":475475,"internal_node_id":"0.0-186.0","subject":"S1C1657","sona":"41636","block":3,"time":"2021-09-23T19:30:28.584Z","response":"2nd","certainty":"high","char":"L","transposition":-1,"order":["shifted","swapped"],"probe_pitches":[11,9,6,11,2,4,9,-1,4,2,9,6,-1,2,9,4],"shifted_pitches":[11,9,6,11,2,4,9,-1,3,2,9,6,-1,2,9,4],"swapped_pitches":[11,9,6,11,2,4,9,4,-1,2,9,6,-1,2,9,4],"shift_direction":-1,"question_num":161,"has_decoy":false},{"rt":1465.9449999744538,"stimulus":"[A] option 1, [L] option 2, [G] neither","key_press":76,"name":"choice","trial_type":"html-keyboard-response","trial_index":197,"time_elapsed":503521,"internal_node_id":"0.0-197.0","subject":"S1C1657","sona":"41636","block":3,"time":"2021-09-23T19:30:28.584Z","response":"2nd","certainty":"high","char":"L","transposition":0,"order":["shifted","swapped"],"probe_pitches":[9,4,-1,2,6,11,1,4,8,11,3,8,6,10,4,3],"shifted_pitches":[9,4,-1,2,6,11,1,4,7,11,3,8,6,10,4,3],"swapped_pitches":[9,4,-1,2,6,11,1,8,4,11,3,8,6,10,4,3],"shift_direction":-1,"question_num":171,"has_decoy":false},{"rt":2885.8000000182074,"stimulus":"[A] option 1, [L] option 2, [G] neither","key_press":76,"name":"choice","trial_type":"html-keyboard-response","trial_index":208,"time_elapsed":529444,"internal_node_id":"0.0-208.0","subject":"S1C1657","sona":"41636","block":3,"time":"2021-09-23T19:30:28.584Z","response":"2nd","certainty":"high","char":"L","transposition":-2,"order":["swapped","shifted"],"probe_pitches":[6,3,8,6,7,5,3,-1,0,7,-1,2,9,10,8,3],"shifted_pitches":[6,3,8,6,7,5,3,-1,1,7,-1,2,9,10,8,3],"swapped_pitches":[6,3,8,6,7,5,3,0,-1,7,-1,2,9,10,8,3],"shift_direction":1,"question_num":181,"has_decoy":false},{"rt":1173.6800000071526,"stimulus":"[A] option 1, [L] option 2, [G] neither","key_press":76,"name":"choice","trial_type":"html-keyboard-response","trial_index":219,"time_elapsed":562401,"internal_node_id":"0.0-219.0","subject":"S1C1657","sona":"41636","block":3,"time":"2021-09-23T19:30:28.584Z","response":"2nd","certainty":"high","char":"L","transposition":-1,"order":["swapped","shifted"],"probe_pitches":[-1,5,6,5,8,10,8,3,9,11,1,10,0,9,7,-1],"shifted_pitches":[-1,5,6,5,8,10,8,2,9,11,1,10,0,9,7,-1],"swapped_pitches":[-1,5,6,5,8,10,8,9,3,11,1,10,0,9,7,-1],"shift_direction":-1,"question_num":191,"has_decoy":false}]