[{"rt":9855.275000008987,"stimulus":"[A] option 1, [L] option 2, [G] neither","key_press":65,"name":"choice","trial_type":"html-keyboard-response","trial_index":15,"time_elapsed":71113,"internal_node_id":"0.0-15.0","response":"1st","certainty":"high","char":"A","transposition":-2,"order":["shifted","swapped"],"probe_pitches":[2,6,2,-3,-1,2,-3,2,4,-3,-1,2,4,6,9,2],"shifted_pitches":[2,6,2,-3,-1,2,-3,2,3,-3,-1,2,4,6,9,2],"swapped_pitches":[2,6,2,-3,-1,2,-3,4,2,-3,-1,2,4,6,9,2],"shift_direction":-1,"question_num":1,"has_decoy":false,"subject":"S1C1657","sona":"41636","block":1,"time":"2021-09-23T19:12:34.480Z"},{"rt":15373.040000005858,"stimulus":"[A] option 1, [L] option 2, [G] neither","key_press":76,"name":"choice","trial_type":"html-keyboard-response","trial_index":26,"time_elapsed":112227,"internal_node_id":"0.0-26.0","response":"2nd","certainty":"high","char":"L","transposition":-2,"order":["swapped","shifted"],"probe_pitches":[10,4,10,5,4,2,-2,9,4,0,2,9,-2,1,3,0],"shifted_pitches":[10,4,10,5,4,2,-2,8,4,0,2,9,-2,1,3,0],"swapped_pitches":[10,4,10,5,4,2,-2,4,9,0,2,9,-2,1,3,0],"shift_direction":-1,"question_num":11,"has_decoy":false,"subject":"S1C1657","sona":"41636","block":1,"time":"2021-09-23T19:12:34.480Z"},{"rt":2857.274999987567,"stimulus":"[A] option 1, [L] option 2, [G] neither","key_press":65,"name":"choice","trial_type":"html-keyboard-response","trial_index":37,"time_elapsed":138913,"internal_node_id":"0.0-37.0","response":"1st","certainty":"high","char":"A","transposition":2,"order":["shifted","swapped"],"probe_pitches":[-1,2,0,8,3,-1,0,-1,8,0,3,-1,3,-1,0,-2],"shifted_pitches":[-1,2,0,8,3,-1,0,-1,9,0,3,-1,3,-1,0,-2],"swapped_pitches":[-1,2,0,8,3,-1,0,8,-1,0,3,-1,3,-1,0,-2],"shift_direction":1,"question_num":21,"has_decoy":false,"subject":"S1C1657","sona":"41636","block":1,"time":"2021-09-23T19:12:34.480Z"},{"rt":1321.2400000193156,"stimulus":"[A] option 1, [L] option 2, [G] neither","key_press":65,"name":"choice","trial_type":"html-keyboard-response","trial_index":48,"time_elapsed":163587,"internal_node_id":"0.0-48.0","response":"1st","certainty":"high","char":"A","transposition":-2,"order":["shifted","swapped"],"probe_pitches":[-2,0,7,9,10,1,9,0,5,3,8,-1,0,5,10,-2],"shifted_pitches":[-2,0,7,9,10,1,9,0,6,3,8,-1,0,5,10,-2],"swapped_pitches":[-2,0,7,9,10,1,9,5,0,3,8,-1,0,5,10,-2],"shift_direction":1,"question_num":31,"has_decoy":false,"subject":"S1C1657","sona":"41636","block":1,"time":"2021-09-23T19:12:34.480Z"},{"rt":1440.150000009453,"stimulus":"[A] option 1, [L] option 2, [G] neither","key_press":76,"name":"choice","trial_type":"html-keyboard-response","trial_index":59,"time_elapsed":187832,"internal_node_id":"0.0-59.0","response":"2nd","certainty":"high","char":"L","transposition":3,"order":["shifted","swapped"],"probe_pitches":[2,6,-1,5,10,6,5,1,6,0,8,4,6,-1,0,-2],"shifted_pitches":[2,6,-1,5,10,6,5,1,7,0,8,4,6,-1,0,-2],"swapped_pitches":[2,6,-1,5,10,6,5,6,1,0,8,4,6,-1,0,-2],"shift_direction":1,"question_num":41,"has_decoy":false,"subject":"S1C1657","sona":"41636","block":1,"time":"2021-09-23T19:12:34.480Z"},{"rt":5272.739999985788,"stimulus":"[A] option 1, [L] option 2, [G] neither","key_press":76,"name":"choice","trial_type":"html-keyboard-response","trial_index":70,"time_elapsed":215333,"internal_node_id":"0.0-70.0","response":"2nd","certainty":"high","char":"L","transposition":-1,"order":["swapped","shifted"],"probe_pitches":[-1,4,6,9,4,6,1,6,4,-3,6,1,6,1,6,9],"shifted_pitches":[-1,4,6,9,4,6,1,5,4,-3,6,1,6,1,6,9],"swapped_pitches":[-1,4,6,9,4,6,1,4,6,-3,6,1,6,1,6,9],"shift_direction":-1,"question_num":51,"has_decoy":false,"subject":"S1C1657","sona":"41636","block":1,"time":"2021-09-23T19:12:34.480Z"},{"rt":371.99499999405816,"stimulus":"[A] option 1, [L] option 2, [G] neither","key_press":65,"name":"choice","trial_type":"html-keyboard-response","trial_index":81,"time_elapsed":237809,"internal_node_id":"0.0-81.0","response":"1st","certainty":"high","char":"A","transposition":-3,"order":["swapped","shifted"],"probe_pitches":[-2,-1,0,6,5,-1,3,9,5,6,-1,8,-2,7,0,6],"shifted_pitches":[-2,-1,0,6,5,-1,3,9,4,6,-1,8,-2,7,0,6],"swapped_pitches":[-2,-1,0,6,5,-1,3,5,9,6,-1,8,-2,7,0,6],"shift_direction":-1,"question_num":61,"has_decoy":false,"subject":"S1C1657","sona":"41636","block":1,"time":"2021-09-23T19:12:34.480Z"},{"rt":2590.425000002142,"stimulus":"[A] option 1, [L] option 2, [G] neither","key_press":76,"name":"choice","trial_type":"html-keyboard-response","trial_index":92,"time_elapsed":263044,"internal_node_id":"0.0-92.0","response":"2nd","certainty":"high","char":"L","transposition":-1,"order":["shifted","swapped"],"probe_pitches":[2,-3,4,2,-3,-1,-3,4,7,2,9,7,9,-3,9,4],"shifted_pitches":[2,-3,4,2,-3,-1,-3,4,8,2,9,7,9,-3,9,4],"swapped_pitches":[2,-3,4,2,-3,-1,-3,7,4,2,9,7,9,-3,9,4],"shift_direction":1,"question_num":71,"has_decoy":false,"subject":"S1C1657","sona":"41636","block":1,"time":"2021-09-23T19:12:34.480Z"},{"rt":3654.9900000100024,"stimulus":"[A] option 1, [L] option 2, [G] neither","key_press":65,"name":"choice","trial_type":"html-keyboard-response","trial_index":103,"time_elapsed":289036,"internal_node_id":"0.0-103.0","response":"1st","certainty":"high","char":"A","transposition":-3,"order":["shifted","swapped"],"probe_pitches":[0,2,-3,5,2,7,2,0,-3,7,9,5,9,0,2,5],"shifted_pitches":[0,2,-3,5,2,7,2,1,-3,7,9,5,9,0,2,5],"swapped_pitches":[0,2,-3,5,2,7,2,-3,0,7,9,5,9,0,2,5],"shift_direction":1,"question_num":81,"has_decoy":false,"subject":"S1C1657","sona":"41636","block":1,"time":"2021-09-23T19:12:34.480Z"},{"rt":310.72999999742024,"stimulus":"[A] option 1, [L] option 2, [G] neither","key_press":76,"name":"choice","trial_type":"html-keyboard-response","trial_index":114,"time_elapsed":315228,"internal_node_id":"0.0-114.0","response":"2nd","certainty":"high","char":"L","transposition":0,"order":["swapped","shifted"],"probe_pitches":[7,10,5,10,9,6,10,1,9,4,6,5,10,4,0,4],"shifted_pitches":[7,10,5,10,9,6,10,2,9,4,6,5,10,4,0,4],"swapped_pitches":[7,10,5,10,9,6,10,9,1,4,6,5,10,4,0,4],"shift_direction":1,"question_num":91,"has_decoy":false,"subject":"S1C1657","sona":"41636","block":1,"time":"2021-09-23T19:12:34.480Z"},{"rt":3017.1900000132155,"stimulus":"[A] option 1, [L] option 2, [G] neither","key_press":65,"name":"choice","trial_type":"html-keyboard-response","trial_index":125,"time_elapsed":340488,"internal_node_id":"0.0-125.0","response":"1st","certainty":"high","char":"A","transposition":3,"order":["swapped","shifted"],"probe_pitches":[2,0,-3,4,9,2,0,9,2,4,9,7,0,7,-3,9],"shifted_pitches":[2,0,-3,4,9,2,0,9,1,4,9,7,0,7,-3,9],"swapped_pitches":[2,0,-3,4,9,2,0,2,9,4,9,7,0,7,-3,9],"shift_direction":-1,"question_num":101,"has_decoy":false,"subject":"S1C1657","sona":"41636","block":1,"time":"2021-09-23T19:12:34.480Z"},{"rt":226.38499998720363,"stimulus":"[A] option 1, [L] option 2, [G] neither","key_press":76,"name":"choice","trial_type":"html-keyboard-response","trial_index":136,"time_elapsed":362787,"internal_node_id":"0.0-136.0","response":"2nd","certainty":"high","char":"L","transposition":2,"order":["swapped","shifted"],"probe_pitches":[-1,2,-1,-3,-1,-3,2,6,-1,4,-3,9,-1,4,-1,-3],"shifted_pitches":[-1,2,-1,-3,-1,-3,2,5,-1,4,-3,9,-1,4,-1,-3],"swapped_pitches":[-1,2,-1,-3,-1,-3,2,-1,6,4,-3,9,-1,4,-1,-3],"shift_direction":-1,"question_num":111,"has_decoy":false,"subject":"S1C1657","sona":"41636","block":1,"time":"2021-09-23T19:12:34.480Z"},{"rt":1212.5550000055227,"stimulus":"[A] option 1, [L] option 2, [G] neither","key_press":65,"name":"choice","trial_type":"html-keyboard-response","trial_index":147,"time_elapsed":386750,"internal_node_id":"0.0-147.0","response":"1st","certainty":"high","char":"A","transposition":-2,"order":["shifted","swapped"],"probe_pitches":[4,9,4,7,4,-3,0,2,4,7,9,7,0,2,7,-3],"shifted_pitches":[4,9,4,7,4,-3,0,1,4,7,9,7,0,2,7,-3],"swapped_pitches":[4,9,4,7,4,-3,0,4,2,7,9,7,0,2,7,-3],"shift_direction":-1,"question_num":121,"has_decoy":false,"subject":"S1C1657","sona":"41636","block":1,"time":"2021-09-23T19:12:34.480Z"},{"rt":309.17999998200685,"stimulus":"[A] option 1, [L] option 2, [G] neither","key_press":76,"name":"choice","trial_type":"html-keyboard-response","trial_index":158,"time_elapsed":409729,"internal_node_id":"0.0-158.0","response":"2nd","certainty":"high","char":"L","transposition":1,"order":["swapped","shifted"],"probe_pitches":[5,0,-3,0,7,5,2,9,-3,0,9,0,9,0,-3,7],"shifted_pitches":[5,0,-3,0,7,5,2,10,-3,0,9,0,9,0,-3,7],"swapped_pitches":[5,0,-3,0,7,5,2,-3,9,0,9,0,9,0,-3,7],"shift_direction":1,"question_num":131,"has_decoy":false,"subject":"S1C1657","sona":"41636","block":1,"time":"2021-09-23T19:12:34.480Z"},{"rt":157.63000000151806,"stimulus":"[A] option 1, [L] option 2, [G] neither","key_press":65,"name":"choice","trial_type":"html-keyboard-response","trial_index":169,"time_elapsed":432612,"internal_node_id":"0.0-169.0","response":"1st","certainty":"high","char":"A","transposition":0,"order":["shifted","swapped"],"probe_pitches":[4,2,9,7,9,7,-1,4,9,-1,-3,4,-1,4,2,-3],"shifted_pitches":[4,2,9,7,9,7,-1,4,10,-1,-3,4,-1,4,2,-3],"swapped_pitches":[4,2,9,7,9,7,-1,9,4,-1,-3,4,-1,4,2,-3],"shift_direction":1,"question_num":141,"has_decoy":false,"subject":"S1C1657","sona":"41636","block":1,"time":"2021-09-23T19:12:34.480Z"},{"rt":6272.245000000112,"stimulus":"[A] option 1, [L] option 2, [G] neither","key_press":65,"name":"choice","trial_type":"html-keyboard-response","trial_index":180,"time_elapsed":461570,"internal_node_id":"0.0-180.0","response":"1st","certainty":"high","char":"A","transposition":1,"order":["swapped","shifted"],"probe_pitches":[2,0,3,6,5,8,7,2,6,5,10,0,10,5,8,6],"shifted_pitches":[2,0,3,6,5,8,7,1,6,5,10,0,10,5,8,6],"swapped_pitches":[2,0,3,6,5,8,7,6,2,5,10,0,10,5,8,6],"shift_direction":-1,"question_num":151,"has_decoy":false,"subject":"S1C1657","sona":"41636","block":1,"time":"2021-09-23T19:12:34.480Z"},{"rt":314.26500002271496,"stimulus":"[A] option 1, [L] option 2, [G] neither","key_press":76,"name":"choice","trial_type":"html-keyboard-response","trial_index":191,"time_elapsed":484150,"internal_node_id":"0.0-191.0","response":"2nd","certainty":"high","char":"L","transposition":-1,"order":["shifted","swapped"],"probe_pitches":[10,7,8,7,0,6,7,-1,6,3,-2,8,7,10,3,4],"shifted_pitches":[10,7,8,7,0,6,7,-1,5,3,-2,8,7,10,3,4],"swapped_pitches":[10,7,8,7,0,6,7,6,-1,3,-2,8,7,10,3,4],"shift_direction":-1,"question_num":161,"has_decoy":false,"subject":"S1C1657","sona":"41636","block":1,"time":"2021-09-23T19:12:34.480Z"},{"rt":216.22000000206754,"stimulus":"[A] option 1, [L] option 2, [G] neither","key_press":65,"name":"choice","trial_type":"html-keyboard-response","trial_index":202,"time_elapsed":506663,"internal_node_id":"0.0-202.0","response":"1st","certainty":"high","char":"A","transposition":-3,"order":["shifted","swapped"],"probe_pitches":[2,7,3,1,3,5,2,-1,10,3,4,10,2,9,4,10],"shifted_pitches":[2,7,3,1,3,5,2,0,10,3,4,10,2,9,4,10],"swapped_pitches":[2,7,3,1,3,5,2,10,-1,3,4,10,2,9,4,10],"shift_direction":1,"question_num":171,"has_decoy":false,"subject":"S1C1657","sona":"41636","block":1,"time":"2021-09-23T19:12:34.480Z"},{"rt":993.6799999850336,"stimulus":"[A] option 1, [L] option 2, [G] neither","key_press":76,"name":"choice","trial_type":"html-keyboard-response","trial_index":213,"time_elapsed":529964,"internal_node_id":"0.0-213.0","response":"2nd","certainty":"high","char":"L","transposition":-3,"order":["swapped","shifted"],"probe_pitches":[-3,-1,-3,1,-1,6,4,-3,-1,4,9,6,4,6,1,9],"shifted_pitches":[-3,-1,-3,1,-1,6,4,-3,0,4,9,6,4,6,1,9],"swapped_pitches":[-3,-1,-3,1,-1,6,4,-1,-3,4,9,6,4,6,1,9],"shift_direction":1,"question_num":181,"has_decoy":false,"subject":"S1C1657","sona":"41636","block":1,"time":"2021-09-23T19:12:34.480Z"},{"rt":2508.2750000001397,"stimulus":"[A] option 1, [L] option 2, [G] neither","key_press":76,"name":"choice","trial_type":"html-keyboard-response","trial_index":224,"time_elapsed":554827,"internal_node_id":"0.0-224.0","response":"2nd","certainty":"high","char":"L","transposition":-1,"order":["swapped","shifted"],"probe_pitches":[-1,-2,-1,4,5,4,6,4,0,8,1,-2,5,-1,5,8],"shifted_pitches":[-1,-2,-1,4,5,4,6,3,0,8,1,-2,5,-1,5,8],"swapped_pitches":[-1,-2,-1,4,5,4,6,0,4,8,1,-2,5,-1,5,8],"shift_direction":-1,"question_num":191,"has_decoy":false,"subject":"S1C1657","sona":"41636","block":1,"time":"2021-09-23T19:12:34.480Z"}]