[{"rt":546.9000000003725,"stimulus":"[A] option 1, [L] option 2, [G] neither","key_press":65,"name":"choice","trial_type":"html-keyboard-response","trial_index":10,"time_elapsed":26475,"internal_node_id":"0.0-10.0","subject":"S1C0803","sona":"41201","block":3,"time":"2021-09-04T21:06:40.091Z","response":"1st","certainty":"high","char":"A","transposition":1,"order":["swapped","shifted"],"probe_pitches":[1,-1,3,8,11,3,6,-1],"shifted_pitches":[1,-1,3,8,12,3,6,-1],"swapped_pitches":[1,-1,3,11,8,3,6,-1],"shift_direction":1,"question_num":1,"has_decoy":false},{"rt":654.7999999988824,"stimulus":"[A] option 1, [L] option 2, [G] neither","key_press":65,"name":"choice","trial_type":"html-keyboard-response","trial_index":21,"time_elapsed":42658,"internal_node_id":"0.0-21.0","subject":"S1C0803","sona":"41201","block":3,"time":"2021-09-04T21:06:40.091Z","response":"1st","certainty":"high","char":"A","transposition":-1,"order":["swapped","shifted"],"probe_pitches":[2,7,4,11,9,7,2,-1],"shifted_pitches":[2,7,4,11,8,7,2,-1],"swapped_pitches":[2,7,4,9,11,7,2,-1],"shift_direction":-1,"question_num":11,"has_decoy":false},{"rt":655.5,"stimulus":"[A] option 1, [L] option 2, [G] neither","key_press":65,"name":"choice","trial_type":"html-keyboard-response","trial_index":32,"time_elapsed":57730,"internal_node_id":"0.0-32.0","subject":"S1C0803","sona":"41201","block":3,"time":"2021-09-04T21:06:40.091Z","response":"1st","certainty":"high","char":"A","transposition":-3,"order":["swapped","shifted"],"probe_pitches":[6,9,4,2,6,11,9,11],"shifted_pitches":[6,9,4,3,6,11,9,11],"swapped_pitches":[6,9,4,6,2,11,9,11],"shift_direction":1,"question_num":21,"has_decoy":false},{"rt":705.7000000011176,"stimulus":"[A] option 1, [L] option 2, [G] neither","key_press":76,"name":"choice","trial_type":"html-keyboard-response","trial_index":43,"time_elapsed":73887,"internal_node_id":"0.0-43.0","subject":"S1C0803","sona":"41201","block":3,"time":"2021-09-04T21:06:40.091Z","response":"2nd","certainty":"high","char":"L","transposition":-1,"order":["swapped","shifted"],"probe_pitches":[1,3,4,9,1,7,2,5],"shifted_pitches":[1,3,4,9,0,7,2,5],"swapped_pitches":[1,3,4,1,9,7,2,5],"shift_direction":-1,"question_num":31,"has_decoy":false},{"rt":495.30000000074506,"stimulus":"[A] option 1, [L] option 2, [G] neither","key_press":65,"name":"choice","trial_type":"html-keyboard-response","trial_index":54,"time_elapsed":89442,"internal_node_id":"0.0-54.0","subject":"S1C0803","sona":"41201","block":3,"time":"2021-09-04T21:06:40.091Z","response":"1st","certainty":"high","char":"A","transposition":0,"order":["swapped","shifted"],"probe_pitches":[9,8,10,8,2,9,10,2],"shifted_pitches":[9,8,10,7,2,9,10,2],"swapped_pitches":[9,8,10,2,8,9,10,2],"shift_direction":-1,"question_num":41,"has_decoy":false},{"rt":292.69999999925494,"stimulus":"[A] option 1, [L] option 2, [G] neither","key_press":76,"name":"choice","trial_type":"html-keyboard-response","trial_index":65,"time_elapsed":104887,"internal_node_id":"0.0-65.0","subject":"S1C0803","sona":"41201","block":3,"time":"2021-09-04T21:06:40.091Z","response":"2nd","certainty":"high","char":"L","transposition":2,"order":["shifted","swapped"],"probe_pitches":[8,4,6,1,9,0,8,6],"shifted_pitches":[8,4,6,2,9,0,8,6],"swapped_pitches":[8,4,6,9,1,0,8,6],"shift_direction":1,"question_num":51,"has_decoy":false},{"rt":850.1999999992549,"stimulus":"[A] option 1, [L] option 2, [G] neither","key_press":76,"name":"choice","trial_type":"html-keyboard-response","trial_index":76,"time_elapsed":121914,"internal_node_id":"0.0-76.0","subject":"S1C0803","sona":"41201","block":3,"time":"2021-09-04T21:06:40.091Z","response":"2nd","certainty":"high","char":"L","transposition":-3,"order":["shifted","swapped"],"probe_pitches":[2,5,1,2,3,10,5,7],"shifted_pitches":[2,5,1,2,4,10,5,7],"swapped_pitches":[2,5,1,3,2,10,5,7],"shift_direction":1,"question_num":61,"has_decoy":false},{"rt":416.6000000014901,"stimulus":"[A] option 1, [L] option 2, [G] neither","key_press":76,"name":"choice","trial_type":"html-keyboard-response","trial_index":87,"time_elapsed":137006,"internal_node_id":"0.0-87.0","subject":"S1C0803","sona":"41201","block":3,"time":"2021-09-04T21:06:40.091Z","response":"2nd","certainty":"high","char":"L","transposition":-1,"order":["shifted","swapped"],"probe_pitches":[1,4,5,9,4,5,-1,6],"shifted_pitches":[1,4,5,8,4,5,-1,6],"swapped_pitches":[1,4,5,4,9,5,-1,6],"shift_direction":-1,"question_num":71,"has_decoy":false},{"rt":449.7000000011176,"stimulus":"[A] option 1, [L] option 2, [G] neither","key_press":76,"name":"choice","trial_type":"html-keyboard-response","trial_index":98,"time_elapsed":151871,"internal_node_id":"0.0-98.0","subject":"S1C0803","sona":"41201","block":3,"time":"2021-09-04T21:06:40.091Z","response":"2nd","certainty":"high","char":"L","transposition":3,"order":["shifted","swapped"],"probe_pitches":[7,1,8,3,7,1,2,0],"shifted_pitches":[7,1,8,3,6,1,2,0],"swapped_pitches":[7,1,8,7,3,1,2,0],"shift_direction":-1,"question_num":81,"has_decoy":false},{"rt":331.09999999962747,"stimulus":"[A] option 1, [L] option 2, [G] neither","key_press":76,"name":"choice","trial_type":"html-keyboard-response","trial_index":109,"time_elapsed":167715,"internal_node_id":"0.0-109.0","subject":"S1C0803","sona":"41201","block":3,"time":"2021-09-04T21:06:40.091Z","response":"2nd","certainty":"high","char":"L","transposition":-2,"order":["shifted","swapped"],"probe_pitches":[9,11,4,6,9,2,9,4],"shifted_pitches":[9,11,4,7,9,2,9,4],"swapped_pitches":[9,11,4,9,6,2,9,4],"shift_direction":1,"question_num":91,"has_decoy":false},{"rt":490.8999999985099,"stimulus":"[A] option 1, [L] option 2, [G] neither","key_press":65,"name":"choice","trial_type":"html-keyboard-response","trial_index":120,"time_elapsed":183075,"internal_node_id":"0.0-120.0","subject":"S1C0803","sona":"41201","block":3,"time":"2021-09-04T21:06:40.091Z","response":"1st","certainty":"high","char":"A","transposition":0,"order":["swapped","shifted"],"probe_pitches":[9,11,9,4,-1,6,11,1],"shifted_pitches":[9,11,9,3,-1,6,11,1],"swapped_pitches":[9,11,9,-1,4,6,11,1],"shift_direction":-1,"question_num":101,"has_decoy":false},{"rt":380.69999999925494,"stimulus":"[A] option 1, [L] option 2, [G] neither","key_press":76,"name":"choice","trial_type":"html-keyboard-response","trial_index":131,"time_elapsed":201092,"internal_node_id":"0.0-131.0","subject":"S1C0803","sona":"41201","block":3,"time":"2021-09-04T21:06:40.091Z","response":"2nd","certainty":"high","char":"L","transposition":3,"order":["shifted","swapped"],"probe_pitches":[4,-1,4,1,6,-1,8,4],"shifted_pitches":[4,-1,4,1,5,-1,8,4],"swapped_pitches":[4,-1,4,6,1,-1,8,4],"shift_direction":-1,"question_num":111,"has_decoy":false},{"rt":470.59999999962747,"stimulus":"[A] option 1, [L] option 2, [G] neither","key_press":76,"name":"choice","trial_type":"html-keyboard-response","trial_index":142,"time_elapsed":216803,"internal_node_id":"0.0-142.0","subject":"S1C0803","sona":"41201","block":3,"time":"2021-09-04T21:06:40.091Z","response":"2nd","certainty":"high","char":"L","transposition":2,"order":["shifted","swapped"],"probe_pitches":[2,7,9,4,2,7,11,-1],"shifted_pitches":[2,7,9,5,2,7,11,-1],"swapped_pitches":[2,7,9,2,4,7,11,-1],"shift_direction":1,"question_num":121,"has_decoy":false},{"rt":537.4000000003725,"stimulus":"[A] option 1, [L] option 2, [G] neither","key_press":65,"name":"choice","trial_type":"html-keyboard-response","trial_index":153,"time_elapsed":234299,"internal_node_id":"0.0-153.0","subject":"S1C0803","sona":"41201","block":3,"time":"2021-09-04T21:06:40.091Z","response":"1st","certainty":"high","char":"A","transposition":-3,"order":["swapped","shifted"],"probe_pitches":[1,4,8,10,2,5,8,4],"shifted_pitches":[1,4,8,10,3,5,8,4],"swapped_pitches":[1,4,8,2,10,5,8,4],"shift_direction":1,"question_num":131,"has_decoy":false},{"rt":411,"stimulus":"[A] option 1, [L] option 2, [G] neither","key_press":65,"name":"choice","trial_type":"html-keyboard-response","trial_index":164,"time_elapsed":250114,"internal_node_id":"0.0-164.0","subject":"S1C0803","sona":"41201","block":3,"time":"2021-09-04T21:06:40.091Z","response":"1st","certainty":"high","char":"A","transposition":1,"order":["swapped","shifted"],"probe_pitches":[10,8,2,6,10,1,2,3],"shifted_pitches":[10,8,2,5,10,1,2,3],"swapped_pitches":[10,8,2,10,6,1,2,3],"shift_direction":-1,"question_num":141,"has_decoy":false},{"rt":311.90000000037253,"stimulus":"[A] option 1, [L] option 2, [G] neither","key_press":76,"name":"choice","trial_type":"html-keyboard-response","trial_index":175,"time_elapsed":265439,"internal_node_id":"0.0-175.0","subject":"S1C0803","sona":"41201","block":3,"time":"2021-09-04T21:06:40.091Z","response":"2nd","certainty":"high","char":"L","transposition":-2,"order":["shifted","swapped"],"probe_pitches":[1,7,4,1,8,3,1,6],"shifted_pitches":[1,7,4,1,9,3,1,6],"swapped_pitches":[1,7,4,8,1,3,1,6],"shift_direction":1,"question_num":151,"has_decoy":false},{"rt":503.5,"stimulus":"[A] option 1, [L] option 2, [G] neither","key_press":76,"name":"choice","trial_type":"html-keyboard-response","trial_index":186,"time_elapsed":280500,"internal_node_id":"0.0-186.0","subject":"S1C0803","sona":"41201","block":3,"time":"2021-09-04T21:06:40.091Z","response":"2nd","certainty":"high","char":"L","transposition":-2,"order":["swapped","shifted"],"probe_pitches":[6,4,1,-1,4,8,11,-1],"shifted_pitches":[6,4,1,-1,3,8,11,-1],"swapped_pitches":[6,4,1,4,-1,8,11,-1],"shift_direction":-1,"question_num":161,"has_decoy":false},{"rt":426.59999999962747,"stimulus":"[A] option 1, [L] option 2, [G] neither","key_press":76,"name":"choice","trial_type":"html-keyboard-response","trial_index":197,"time_elapsed":295756,"internal_node_id":"0.0-197.0","subject":"S1C0803","sona":"41201","block":3,"time":"2021-09-04T21:06:40.091Z","response":"2nd","certainty":"high","char":"L","transposition":-1,"order":["shifted","swapped"],"probe_pitches":[-1,4,9,6,4,1,-1,6],"shifted_pitches":[-1,4,9,7,4,1,-1,6],"swapped_pitches":[-1,4,9,4,6,1,-1,6],"shift_direction":1,"question_num":171,"has_decoy":false},{"rt":355.2999999988824,"stimulus":"[A] option 1, [L] option 2, [G] neither","key_press":76,"name":"choice","trial_type":"html-keyboard-response","trial_index":208,"time_elapsed":310891,"internal_node_id":"0.0-208.0","subject":"S1C0803","sona":"41201","block":3,"time":"2021-09-04T21:06:40.091Z","response":"2nd","certainty":"high","char":"L","transposition":-3,"order":["shifted","swapped"],"probe_pitches":[1,6,1,-1,8,11,1,3],"shifted_pitches":[1,6,1,-1,7,11,1,3],"swapped_pitches":[1,6,1,8,-1,11,1,3],"shift_direction":-1,"question_num":181,"has_decoy":false},{"rt":1491.3999999985099,"stimulus":"[A] option 1, [L] option 2, [G] neither","key_press":65,"name":"choice","trial_type":"html-keyboard-response","trial_index":219,"time_elapsed":327994,"internal_node_id":"0.0-219.0","subject":"S1C0803","sona":"41201","block":3,"time":"2021-09-04T21:06:40.091Z","response":"1st","certainty":"high","char":"A","transposition":-2,"order":["swapped","shifted"],"probe_pitches":[10,5,4,0,5,-2,9,0],"shifted_pitches":[10,5,4,1,5,-2,9,0],"swapped_pitches":[10,5,4,5,0,-2,9,0],"shift_direction":1,"question_num":191,"has_decoy":false}]