[{"rt":3656.5999999996275,"stimulus":"[A] option 1, [L] option 2, [G] neither","key_press":76,"name":"choice","trial_type":"html-keyboard-response","trial_index":10,"time_elapsed":72260,"internal_node_id":"0.0-10.0","subject":"S1C0803","sona":"41201","block":4,"time":"2021-09-04T21:25:44.956Z","response":"2nd","certainty":"high","char":"L","transposition":2,"order":["swapped","shifted"],"probe_pitches":[7,2,8,0,2,-1,1,5],"shifted_pitches":[7,2,8,0,3,-1,1,5],"swapped_pitches":[7,2,8,2,0,-1,1,5],"shift_direction":1,"question_num":1,"has_decoy":false},{"rt":2454.7000000011176,"stimulus":"[A] option 1, [L] option 2, [G] neither","key_press":76,"name":"choice","trial_type":"html-keyboard-response","trial_index":21,"time_elapsed":212779,"internal_node_id":"0.0-21.0","subject":"S1C0803","sona":"41201","block":4,"time":"2021-09-04T21:25:44.956Z","response":"2nd","certainty":"high","char":"L","transposition":-2,"order":["shifted","swapped"],"probe_pitches":[5,3,8,2,10,8,5,0],"shifted_pitches":[5,3,8,1,10,8,5,0],"swapped_pitches":[5,3,8,10,2,8,5,0],"shift_direction":-1,"question_num":11,"has_decoy":false},{"rt":361.69999999925494,"stimulus":"[A] option 1, [L] option 2, [G] neither","key_press":65,"name":"choice","trial_type":"html-keyboard-response","trial_index":32,"time_elapsed":265732,"internal_node_id":"0.0-32.0","subject":"S1C0803","sona":"41201","block":4,"time":"2021-09-04T21:25:44.956Z","response":"1st","certainty":"high","char":"A","transposition":0,"order":["swapped","shifted"],"probe_pitches":[3,-1,3,4,6,0,6,8],"shifted_pitches":[3,-1,3,5,6,0,6,8],"swapped_pitches":[3,-1,3,6,4,0,6,8],"shift_direction":1,"question_num":21,"has_decoy":false},{"rt":917.5,"stimulus":"[A] option 1, [L] option 2, [G] neither","key_press":65,"name":"choice","trial_type":"html-keyboard-response","trial_index":43,"time_elapsed":282123,"internal_node_id":"0.0-43.0","subject":"S1C0803","sona":"41201","block":4,"time":"2021-09-04T21:25:44.956Z","response":"1st","certainty":"high","char":"A","transposition":-3,"order":["swapped","shifted"],"probe_pitches":[0,3,10,8,5,-2,3,10],"shifted_pitches":[0,3,10,8,4,-2,3,10],"swapped_pitches":[0,3,10,5,8,-2,3,10],"shift_direction":-1,"question_num":31,"has_decoy":false},{"rt":1853.199999999255,"stimulus":"[A] option 1, [L] option 2, [G] neither","key_press":65,"name":"choice","trial_type":"html-keyboard-response","trial_index":54,"time_elapsed":301330,"internal_node_id":"0.0-54.0","subject":"S1C0803","sona":"41201","block":4,"time":"2021-09-04T21:25:44.956Z","response":"1st","certainty":"high","char":"A","transposition":-2,"order":["swapped","shifted"],"probe_pitches":[1,7,2,1,7,0,9,5],"shifted_pitches":[1,7,2,1,8,0,9,5],"swapped_pitches":[1,7,2,7,1,0,9,5],"shift_direction":1,"question_num":41,"has_decoy":false},{"rt":5114.5999999996275,"stimulus":"[A] option 1, [L] option 2, [G] neither","key_press":76,"name":"choice","trial_type":"html-keyboard-response","trial_index":65,"time_elapsed":321653,"internal_node_id":"0.0-65.0","subject":"S1C0803","sona":"41201","block":4,"time":"2021-09-04T21:25:44.956Z","response":"2nd","certainty":"high","char":"L","transposition":-1,"order":["shifted","swapped"],"probe_pitches":[4,2,3,6,8,11,8,5],"shifted_pitches":[4,2,3,6,7,11,8,5],"swapped_pitches":[4,2,3,8,6,11,8,5],"shift_direction":-1,"question_num":51,"has_decoy":false},{"rt":1670.5,"stimulus":"[A] option 1, [L] option 2, [G] neither","key_press":76,"name":"choice","trial_type":"html-keyboard-response","trial_index":76,"time_elapsed":338694,"internal_node_id":"0.0-76.0","subject":"S1C0803","sona":"41201","block":4,"time":"2021-09-04T21:25:44.956Z","response":"2nd","certainty":"high","char":"L","transposition":-1,"order":["shifted","swapped"],"probe_pitches":[8,10,9,1,-1,5,4,7],"shifted_pitches":[8,10,9,2,-1,5,4,7],"swapped_pitches":[8,10,9,-1,1,5,4,7],"shift_direction":1,"question_num":61,"has_decoy":false},{"rt":9848.5,"stimulus":"[A] option 1, [L] option 2, [G] neither","key_press":76,"name":"choice","trial_type":"html-keyboard-response","trial_index":87,"time_elapsed":364295,"internal_node_id":"0.0-87.0","subject":"S1C0803","sona":"41201","block":4,"time":"2021-09-04T21:25:44.956Z","response":"2nd","certainty":"high","char":"L","transposition":-3,"order":["swapped","shifted"],"probe_pitches":[7,4,1,8,10,1,0,6],"shifted_pitches":[7,4,1,8,9,1,0,6],"swapped_pitches":[7,4,1,10,8,1,0,6],"shift_direction":-1,"question_num":71,"has_decoy":false},{"rt":1020.1999999992549,"stimulus":"[A] option 1, [L] option 2, [G] neither","key_press":76,"name":"choice","trial_type":"html-keyboard-response","trial_index":98,"time_elapsed":385808,"internal_node_id":"0.0-98.0","subject":"S1C0803","sona":"41201","block":4,"time":"2021-09-04T21:25:44.956Z","response":"2nd","certainty":"high","char":"L","transposition":2,"order":["swapped","shifted"],"probe_pitches":[6,3,-2,6,3,8,10,1],"shifted_pitches":[6,3,-2,7,3,8,10,1],"swapped_pitches":[6,3,-2,3,6,8,10,1],"shift_direction":1,"question_num":81,"has_decoy":false},{"rt":18763,"stimulus":"[A] option 1, [L] option 2, [G] neither","key_press":76,"name":"choice","trial_type":"html-keyboard-response","trial_index":109,"time_elapsed":420719,"internal_node_id":"0.0-109.0","subject":"S1C0803","sona":"41201","block":4,"time":"2021-09-04T21:25:44.956Z","response":"2nd","certainty":"high","char":"L","transposition":3,"order":["swapped","shifted"],"probe_pitches":[1,-2,5,8,1,3,-2,10],"shifted_pitches":[1,-2,5,7,1,3,-2,10],"swapped_pitches":[1,-2,5,1,8,3,-2,10],"shift_direction":-1,"question_num":91,"has_decoy":false},{"rt":561,"stimulus":"[A] option 1, [L] option 2, [G] neither","key_press":76,"name":"choice","trial_type":"html-keyboard-response","trial_index":120,"time_elapsed":447820,"internal_node_id":"0.0-120.0","subject":"S1C0803","sona":"41201","block":4,"time":"2021-09-04T21:25:44.956Z","response":"2nd","certainty":"high","char":"L","transposition":-3,"order":["shifted","swapped"],"probe_pitches":[6,3,6,8,1,10,6,-2],"shifted_pitches":[6,3,6,8,2,10,6,-2],"swapped_pitches":[6,3,6,1,8,10,6,-2],"shift_direction":1,"question_num":101,"has_decoy":false},{"rt":1869.3999999985099,"stimulus":"[A] option 1, [L] option 2, [G] neither","key_press":76,"name":"choice","trial_type":"html-keyboard-response","trial_index":131,"time_elapsed":465145,"internal_node_id":"0.0-131.0","subject":"S1C0803","sona":"41201","block":4,"time":"2021-09-04T21:25:44.956Z","response":"2nd","certainty":"high","char":"L","transposition":-1,"order":["shifted","swapped"],"probe_pitches":[10,7,2,0,7,5,0,5],"shifted_pitches":[10,7,2,0,8,5,0,5],"swapped_pitches":[10,7,2,7,0,5,0,5],"shift_direction":1,"question_num":111,"has_decoy":false},{"rt":49885.5,"stimulus":"[A] option 1, [L] option 2, [G] neither","key_press":76,"name":"choice","trial_type":"html-keyboard-response","trial_index":142,"time_elapsed":536851,"internal_node_id":"0.0-142.0","subject":"S1C0803","sona":"41201","block":4,"time":"2021-09-04T21:25:44.956Z","response":"2nd","certainty":"high","char":"L","transposition":1,"order":["shifted","swapped"],"probe_pitches":[3,8,5,9,6,2,4,-1],"shifted_pitches":[3,8,5,10,6,2,4,-1],"swapped_pitches":[3,8,5,6,9,2,4,-1],"shift_direction":1,"question_num":121,"has_decoy":false},{"rt":3139,"stimulus":"[A] option 1, [L] option 2, [G] neither","key_press":65,"name":"choice","trial_type":"html-keyboard-response","trial_index":153,"time_elapsed":556639,"internal_node_id":"0.0-153.0","subject":"S1C0803","sona":"41201","block":4,"time":"2021-09-04T21:25:44.956Z","response":"1st","certainty":"high","char":"A","transposition":3,"order":["swapped","shifted"],"probe_pitches":[3,9,3,7,5,9,2,3],"shifted_pitches":[3,9,3,7,4,9,2,3],"swapped_pitches":[3,9,3,5,7,9,2,3],"shift_direction":-1,"question_num":131,"has_decoy":false},{"rt":116.20000000111759,"stimulus":"[A] option 1, [L] option 2, [G] neither","key_press":76,"name":"choice","trial_type":"html-keyboard-response","trial_index":164,"time_elapsed":1012405,"internal_node_id":"0.0-164.0","subject":"S1C0803","sona":"41201","block":4,"time":"2021-09-04T21:25:44.956Z","response":"2nd","certainty":"high","char":"L","transposition":-3,"order":["shifted","swapped"],"probe_pitches":[9,5,1,7,4,5,7,0],"shifted_pitches":[9,5,1,6,4,5,7,0],"swapped_pitches":[9,5,1,4,7,5,7,0],"shift_direction":-1,"question_num":141,"has_decoy":false},{"rt":4241,"stimulus":"[A] option 1, [L] option 2, [G] neither","key_press":76,"name":"choice","trial_type":"html-keyboard-response","trial_index":175,"time_elapsed":1034469,"internal_node_id":"0.0-175.0","subject":"S1C0803","sona":"41201","block":4,"time":"2021-09-04T21:25:44.956Z","response":"2nd","certainty":"high","char":"L","transposition":-2,"order":["swapped","shifted"],"probe_pitches":[1,5,1,-2,5,8,5,3],"shifted_pitches":[1,5,1,-3,5,8,5,3],"swapped_pitches":[1,5,1,5,-2,8,5,3],"shift_direction":-1,"question_num":151,"has_decoy":false},{"rt":538.3000000007451,"stimulus":"[A] option 1, [L] option 2, [G] neither","key_press":65,"name":"choice","trial_type":"html-keyboard-response","trial_index":186,"time_elapsed":1050851,"internal_node_id":"0.0-186.0","subject":"S1C0803","sona":"41201","block":4,"time":"2021-09-04T21:25:44.956Z","response":"1st","certainty":"high","char":"A","transposition":-2,"order":["swapped","shifted"],"probe_pitches":[3,5,10,5,0,7,-2,5],"shifted_pitches":[3,5,10,6,0,7,-2,5],"swapped_pitches":[3,5,10,0,5,7,-2,5],"shift_direction":1,"question_num":161,"has_decoy":false},{"rt":438.09999999962747,"stimulus":"[A] option 1, [L] option 2, [G] neither","key_press":76,"name":"choice","trial_type":"html-keyboard-response","trial_index":197,"time_elapsed":1066756,"internal_node_id":"0.0-197.0","subject":"S1C0803","sona":"41201","block":4,"time":"2021-09-04T21:25:44.956Z","response":"2nd","certainty":"high","char":"L","transposition":-1,"order":["shifted","swapped"],"probe_pitches":[10,5,7,3,0,5,7,-2],"shifted_pitches":[10,5,7,3,-1,5,7,-2],"swapped_pitches":[10,5,7,0,3,5,7,-2],"shift_direction":-1,"question_num":171,"has_decoy":false},{"rt":34040.199999999255,"stimulus":"[A] option 1, [L] option 2, [G] neither","key_press":76,"name":"choice","trial_type":"html-keyboard-response","trial_index":208,"time_elapsed":1116229,"internal_node_id":"0.0-208.0","subject":"S1C0803","sona":"41201","block":4,"time":"2021-09-04T21:25:44.956Z","response":"2nd","certainty":"high","char":"L","transposition":1,"order":["shifted","swapped"],"probe_pitches":[0,5,0,2,5,7,5,10],"shifted_pitches":[0,5,0,3,5,7,5,10],"swapped_pitches":[0,5,0,5,2,7,5,10],"shift_direction":1,"question_num":181,"has_decoy":false},{"rt":2375.300000000745,"stimulus":"[A] option 1, [L] option 2, [G] neither","key_press":65,"name":"choice","trial_type":"html-keyboard-response","trial_index":219,"time_elapsed":1136693,"internal_node_id":"0.0-219.0","subject":"S1C0803","sona":"41201","block":4,"time":"2021-09-04T21:25:44.956Z","response":"1st","certainty":"high","char":"A","transposition":0,"order":["shifted","swapped"],"probe_pitches":[5,8,10,5,-2,0,3,10],"shifted_pitches":[5,8,10,5,-3,0,3,10],"swapped_pitches":[5,8,10,-2,5,0,3,10],"shift_direction":-1,"question_num":191,"has_decoy":false}]