[{"rt":1202.1000000005588,"stimulus":"[A] option 1, [L] option 2, [G] neither","key_press":65,"name":"choice","trial_type":"html-keyboard-response","trial_index":10,"time_elapsed":21139,"internal_node_id":"0.0-10.0","subject":"S1C0803","sona":"41201","block":2,"time":"2021-09-04T20:51:00.011Z","response":"1st","certainty":"high","char":"A","transposition":-1,"order":["swapped","shifted"],"probe_pitches":[0,2,4,8,7,-2,5,0],"shifted_pitches":[0,2,4,8,6,-2,5,0],"swapped_pitches":[0,2,4,7,8,-2,5,0],"shift_direction":-1,"question_num":1,"has_decoy":false},{"rt":393.29999999981374,"stimulus":"[A] option 1, [L] option 2, [G] neither","key_press":76,"name":"choice","trial_type":"html-keyboard-response","trial_index":21,"time_elapsed":37839,"internal_node_id":"0.0-21.0","subject":"S1C0803","sona":"41201","block":2,"time":"2021-09-04T20:51:00.011Z","response":"2nd","certainty":"high","char":"L","transposition":-2,"order":["shifted","swapped"],"probe_pitches":[8,5,3,-1,1,7,8,0],"shifted_pitches":[8,5,3,-1,2,7,8,0],"swapped_pitches":[8,5,3,1,-1,7,8,0],"shift_direction":1,"question_num":11,"has_decoy":false},{"rt":658.2000000001863,"stimulus":"[A] option 1, [L] option 2, [G] neither","key_press":76,"name":"choice","trial_type":"html-keyboard-response","trial_index":32,"time_elapsed":53298,"internal_node_id":"0.0-32.0","subject":"S1C0803","sona":"41201","block":2,"time":"2021-09-04T20:51:00.011Z","response":"2nd","certainty":"high","char":"L","transposition":1,"order":["shifted","swapped"],"probe_pitches":[3,6,10,13,8,6,10,15],"shifted_pitches":[3,6,10,13,7,6,10,15],"swapped_pitches":[3,6,10,8,13,6,10,15],"shift_direction":-1,"question_num":21,"has_decoy":false},{"rt":667.7000000001863,"stimulus":"[A] option 1, [L] option 2, [G] neither","key_press":65,"name":"choice","trial_type":"html-keyboard-response","trial_index":43,"time_elapsed":68043,"internal_node_id":"0.0-43.0","subject":"S1C0803","sona":"41201","block":2,"time":"2021-09-04T20:51:00.011Z","response":"1st","certainty":"high","char":"A","transposition":-1,"order":["swapped","shifted"],"probe_pitches":[5,8,12,8,10,15,10,8],"shifted_pitches":[5,8,12,7,10,15,10,8],"swapped_pitches":[5,8,12,10,8,15,10,8],"shift_direction":-1,"question_num":31,"has_decoy":false},{"rt":408.1000000005588,"stimulus":"[A] option 1, [L] option 2, [G] neither","key_press":65,"name":"choice","trial_type":"html-keyboard-response","trial_index":54,"time_elapsed":86925,"internal_node_id":"0.0-54.0","subject":"S1C0803","sona":"41201","block":2,"time":"2021-09-04T20:51:00.011Z","response":"1st","certainty":"high","char":"A","transposition":2,"order":["swapped","shifted"],"probe_pitches":[0,5,9,2,8,5,2,8],"shifted_pitches":[0,5,9,2,7,5,2,8],"swapped_pitches":[0,5,9,8,2,5,2,8],"shift_direction":-1,"question_num":41,"has_decoy":false},{"rt":1295,"stimulus":"[A] option 1, [L] option 2, [G] neither","key_press":76,"name":"choice","trial_type":"html-keyboard-response","trial_index":65,"time_elapsed":103083,"internal_node_id":"0.0-65.0","subject":"S1C0803","sona":"41201","block":2,"time":"2021-09-04T20:51:00.011Z","response":"2nd","certainty":"high","char":"L","transposition":-3,"order":["swapped","shifted"],"probe_pitches":[12,10,3,8,12,5,10,15],"shifted_pitches":[12,10,3,7,12,5,10,15],"swapped_pitches":[12,10,3,12,8,5,10,15],"shift_direction":-1,"question_num":51,"has_decoy":false},{"rt":412.59999999962747,"stimulus":"[A] option 1, [L] option 2, [G] neither","key_press":76,"name":"choice","trial_type":"html-keyboard-response","trial_index":76,"time_elapsed":317191,"internal_node_id":"0.0-76.0","subject":"S1C0803","sona":"41201","block":2,"time":"2021-09-04T20:51:00.011Z","response":"2nd","certainty":"high","char":"L","transposition":1,"order":["shifted","swapped"],"probe_pitches":[10,7,8,1,7,9,7,3],"shifted_pitches":[10,7,8,0,7,9,7,3],"swapped_pitches":[10,7,8,7,1,9,7,3],"shift_direction":-1,"question_num":61,"has_decoy":false},{"rt":506.8999999985099,"stimulus":"[A] option 1, [L] option 2, [G] neither","key_press":76,"name":"choice","trial_type":"html-keyboard-response","trial_index":87,"time_elapsed":507049,"internal_node_id":"0.0-87.0","subject":"S1C0803","sona":"41201","block":2,"time":"2021-09-04T20:51:00.011Z","response":"2nd","certainty":"high","char":"L","transposition":-3,"order":["shifted","swapped"],"probe_pitches":[8,3,7,0,6,8,10,7],"shifted_pitches":[8,3,7,0,5,8,10,7],"swapped_pitches":[8,3,7,6,0,8,10,7],"shift_direction":-1,"question_num":71,"has_decoy":false},{"rt":530.5,"stimulus":"[A] option 1, [L] option 2, [G] neither","key_press":76,"name":"choice","trial_type":"html-keyboard-response","trial_index":98,"time_elapsed":522972,"internal_node_id":"0.0-98.0","subject":"S1C0803","sona":"41201","block":2,"time":"2021-09-04T20:51:00.011Z","response":"2nd","certainty":"high","char":"L","transposition":-2,"order":["shifted","swapped"],"probe_pitches":[13,8,6,13,11,15,11,13],"shifted_pitches":[13,8,6,13,10,15,11,13],"swapped_pitches":[13,8,6,11,13,15,11,13],"shift_direction":-1,"question_num":81,"has_decoy":false},{"rt":421,"stimulus":"[A] option 1, [L] option 2, [G] neither","key_press":76,"name":"choice","trial_type":"html-keyboard-response","trial_index":109,"time_elapsed":708801,"internal_node_id":"0.0-109.0","subject":"S1C0803","sona":"41201","block":2,"time":"2021-09-04T20:51:00.011Z","response":"2nd","certainty":"high","char":"L","transposition":-2,"order":["shifted","swapped"],"probe_pitches":[7,9,5,9,3,7,0,3],"shifted_pitches":[7,9,5,9,4,7,0,3],"swapped_pitches":[7,9,5,3,9,7,0,3],"shift_direction":1,"question_num":91,"has_decoy":false},{"rt":1232.199999999255,"stimulus":"[A] option 1, [L] option 2, [G] neither","key_press":76,"name":"choice","trial_type":"html-keyboard-response","trial_index":120,"time_elapsed":727752,"internal_node_id":"0.0-120.0","subject":"S1C0803","sona":"41201","block":2,"time":"2021-09-04T20:51:00.011Z","response":"2nd","certainty":"high","char":"L","transposition":0,"order":["swapped","shifted"],"probe_pitches":[6,10,7,4,-1,9,1,6],"shifted_pitches":[6,10,7,3,-1,9,1,6],"swapped_pitches":[6,10,7,-1,4,9,1,6],"shift_direction":-1,"question_num":101,"has_decoy":false},{"rt":781.7000000011176,"stimulus":"[A] option 1, [L] option 2, [G] neither","key_press":76,"name":"choice","trial_type":"html-keyboard-response","trial_index":131,"time_elapsed":747611,"internal_node_id":"0.0-131.0","subject":"S1C0803","sona":"41201","block":2,"time":"2021-09-04T20:51:00.011Z","response":"2nd","certainty":"high","char":"L","transposition":-3,"order":["swapped","shifted"],"probe_pitches":[15,10,6,8,13,6,15,13],"shifted_pitches":[15,10,6,8,14,6,15,13],"swapped_pitches":[15,10,6,13,8,6,15,13],"shift_direction":1,"question_num":111,"has_decoy":false},{"rt":616.0999999996275,"stimulus":"[A] option 1, [L] option 2, [G] neither","key_press":65,"name":"choice","trial_type":"html-keyboard-response","trial_index":142,"time_elapsed":763611,"internal_node_id":"0.0-142.0","subject":"S1C0803","sona":"41201","block":2,"time":"2021-09-04T20:51:00.011Z","response":"1st","certainty":"high","char":"A","transposition":2,"order":["swapped","shifted"],"probe_pitches":[13,15,8,10,13,3,5,3],"shifted_pitches":[13,15,8,10,14,3,5,3],"swapped_pitches":[13,15,8,13,10,3,5,3],"shift_direction":1,"question_num":121,"has_decoy":false},{"rt":1496.5999999996275,"stimulus":"[A] option 1, [L] option 2, [G] neither","key_press":76,"name":"choice","trial_type":"html-keyboard-response","trial_index":153,"time_elapsed":783595,"internal_node_id":"0.0-153.0","subject":"S1C0803","sona":"41201","block":2,"time":"2021-09-04T20:51:00.011Z","response":"2nd","certainty":"high","char":"L","transposition":0,"order":["shifted","swapped"],"probe_pitches":[11,15,11,13,15,6,8,3],"shifted_pitches":[11,15,11,13,16,6,8,3],"swapped_pitches":[11,15,11,15,13,6,8,3],"shift_direction":1,"question_num":131,"has_decoy":false},{"rt":472.59999999962747,"stimulus":"[A] option 1, [L] option 2, [G] neither","key_press":65,"name":"choice","trial_type":"html-keyboard-response","trial_index":164,"time_elapsed":798875,"internal_node_id":"0.0-164.0","subject":"S1C0803","sona":"41201","block":2,"time":"2021-09-04T20:51:00.011Z","response":"1st","certainty":"high","char":"A","transposition":-3,"order":["swapped","shifted"],"probe_pitches":[7,8,2,0,-1,3,8,-1],"shifted_pitches":[7,8,2,1,-1,3,8,-1],"swapped_pitches":[7,8,2,-1,0,3,8,-1],"shift_direction":1,"question_num":141,"has_decoy":false},{"rt":330.1000000014901,"stimulus":"[A] option 1, [L] option 2, [G] neither","key_press":76,"name":"choice","trial_type":"html-keyboard-response","trial_index":175,"time_elapsed":814455,"internal_node_id":"0.0-175.0","subject":"S1C0803","sona":"41201","block":2,"time":"2021-09-04T20:51:00.011Z","response":"2nd","certainty":"high","char":"L","transposition":-2,"order":["shifted","swapped"],"probe_pitches":[7,12,7,12,15,10,5,12],"shifted_pitches":[7,12,7,13,15,10,5,12],"swapped_pitches":[7,12,7,15,12,10,5,12],"shift_direction":1,"question_num":151,"has_decoy":false},{"rt":1105.699999999255,"stimulus":"[A] option 1, [L] option 2, [G] neither","key_press":76,"name":"choice","trial_type":"html-keyboard-response","trial_index":186,"time_elapsed":830532,"internal_node_id":"0.0-186.0","subject":"S1C0803","sona":"41201","block":2,"time":"2021-09-04T20:51:00.011Z","response":"2nd","certainty":"high","char":"L","transposition":-1,"order":["swapped","shifted"],"probe_pitches":[1,5,0,7,4,5,6,7],"shifted_pitches":[1,5,0,8,4,5,6,7],"swapped_pitches":[1,5,0,4,7,5,6,7],"shift_direction":1,"question_num":161,"has_decoy":false},{"rt":612.8999999985099,"stimulus":"[A] option 1, [L] option 2, [G] neither","key_press":76,"name":"choice","trial_type":"html-keyboard-response","trial_index":197,"time_elapsed":845868,"internal_node_id":"0.0-197.0","subject":"S1C0803","sona":"41201","block":2,"time":"2021-09-04T20:51:00.011Z","response":"2nd","certainty":"high","char":"L","transposition":3,"order":["shifted","swapped"],"probe_pitches":[4,6,5,8,0,-2,8,7],"shifted_pitches":[4,6,5,9,0,-2,8,7],"swapped_pitches":[4,6,5,0,8,-2,8,7],"shift_direction":1,"question_num":171,"has_decoy":false},{"rt":1702,"stimulus":"[A] option 1, [L] option 2, [G] neither","key_press":65,"name":"choice","trial_type":"html-keyboard-response","trial_index":208,"time_elapsed":862522,"internal_node_id":"0.0-208.0","subject":"S1C0803","sona":"41201","block":2,"time":"2021-09-04T20:51:00.011Z","response":"1st","certainty":"high","char":"A","transposition":3,"order":["swapped","shifted"],"probe_pitches":[5,3,5,12,7,15,12,10],"shifted_pitches":[5,3,5,13,7,15,12,10],"swapped_pitches":[5,3,5,7,12,15,12,10],"shift_direction":1,"question_num":181,"has_decoy":false},{"rt":378,"stimulus":"[A] option 1, [L] option 2, [G] neither","key_press":76,"name":"choice","trial_type":"html-keyboard-response","trial_index":219,"time_elapsed":878145,"internal_node_id":"0.0-219.0","subject":"S1C0803","sona":"41201","block":2,"time":"2021-09-04T20:51:00.011Z","response":"2nd","certainty":"high","char":"L","transposition":-1,"order":["shifted","swapped"],"probe_pitches":[15,13,15,13,10,3,8,5],"shifted_pitches":[15,13,15,12,10,3,8,5],"swapped_pitches":[15,13,15,10,13,3,8,5],"shift_direction":-1,"question_num":191,"has_decoy":false}]