[{"rt":8202.5,"stimulus":"[A] option 1, [L] option 2, [G] neither","key_press":76,"name":"choice","trial_type":"html-keyboard-response","trial_index":10,"time_elapsed":41932,"internal_node_id":"0.0-10.0","subject":"S1C0803","sona":"41201","block":5,"time":"2021-09-04T21:33:48.977Z","response":"2nd","certainty":"high","char":"L","transposition":-3,"order":["swapped","shifted"],"probe_pitches":[3,5,-2,0,8,10,0,10],"shifted_pitches":[3,5,-2,1,8,10,0,10],"swapped_pitches":[3,5,-2,8,0,10,0,10],"shift_direction":1,"question_num":1,"has_decoy":false},{"rt":713.6999999992549,"stimulus":"[A] option 1, [L] option 2, [G] neither","key_press":65,"name":"choice","trial_type":"html-keyboard-response","trial_index":21,"time_elapsed":62501,"internal_node_id":"0.0-21.0","subject":"S1C0803","sona":"41201","block":5,"time":"2021-09-04T21:33:48.977Z","response":"1st","certainty":"high","char":"A","transposition":-3,"order":["swapped","shifted"],"probe_pitches":[9,6,4,7,3,9,3,12],"shifted_pitches":[9,6,4,8,3,9,3,12],"swapped_pitches":[9,6,4,3,7,9,3,12],"shift_direction":1,"question_num":11,"has_decoy":false},{"rt":2333.4000000003725,"stimulus":"[A] option 1, [L] option 2, [G] neither","key_press":65,"name":"choice","trial_type":"html-keyboard-response","trial_index":32,"time_elapsed":84147,"internal_node_id":"0.0-32.0","subject":"S1C0803","sona":"41201","block":5,"time":"2021-09-04T21:33:48.977Z","response":"1st","certainty":"high","char":"A","transposition":1,"order":["shifted","swapped"],"probe_pitches":[12,10,11,10,8,3,5,8],"shifted_pitches":[12,10,11,10,7,3,5,8],"swapped_pitches":[12,10,11,8,10,3,5,8],"shift_direction":-1,"question_num":21,"has_decoy":false},{"rt":1805.5,"stimulus":"[A] option 1, [L] option 2, [G] neither","key_press":76,"name":"choice","trial_type":"html-keyboard-response","trial_index":43,"time_elapsed":104105,"internal_node_id":"0.0-43.0","subject":"S1C0803","sona":"41201","block":5,"time":"2021-09-04T21:33:48.977Z","response":"2nd","certainty":"high","char":"L","transposition":-2,"order":["shifted","swapped"],"probe_pitches":[3,-2,5,1,10,8,5,8],"shifted_pitches":[3,-2,5,1,9,8,5,8],"swapped_pitches":[3,-2,5,10,1,8,5,8],"shift_direction":-1,"question_num":31,"has_decoy":false},{"rt":3680,"stimulus":"[A] option 1, [L] option 2, [G] neither","key_press":65,"name":"choice","trial_type":"html-keyboard-response","trial_index":54,"time_elapsed":129691,"internal_node_id":"0.0-54.0","subject":"S1C0803","sona":"41201","block":5,"time":"2021-09-04T21:33:48.977Z","response":"1st","certainty":"high","char":"A","transposition":0,"order":["swapped","shifted"],"probe_pitches":[10,6,3,6,1,8,-2,1],"shifted_pitches":[10,6,3,5,1,8,-2,1],"swapped_pitches":[10,6,3,1,6,8,-2,1],"shift_direction":-1,"question_num":41,"has_decoy":false},{"rt":2621.699999999255,"stimulus":"[A] option 1, [L] option 2, [G] neither","key_press":65,"name":"choice","trial_type":"html-keyboard-response","trial_index":65,"time_elapsed":151705,"internal_node_id":"0.0-65.0","subject":"S1C0803","sona":"41201","block":5,"time":"2021-09-04T21:33:48.977Z","response":"1st","certainty":"high","char":"A","transposition":-1,"order":["shifted","swapped"],"probe_pitches":[8,6,3,10,6,1,8,-2],"shifted_pitches":[8,6,3,10,5,1,8,-2],"swapped_pitches":[8,6,3,6,10,1,8,-2],"shift_direction":-1,"question_num":51,"has_decoy":false},{"rt":2387.300000000745,"stimulus":"[A] option 1, [L] option 2, [G] neither","key_press":76,"name":"choice","trial_type":"html-keyboard-response","trial_index":76,"time_elapsed":170056,"internal_node_id":"0.0-76.0","subject":"S1C0803","sona":"41201","block":5,"time":"2021-09-04T21:33:48.977Z","response":"2nd","certainty":"high","char":"L","transposition":-2,"order":["shifted","swapped"],"probe_pitches":[4,9,8,10,2,0,6,5],"shifted_pitches":[4,9,8,11,2,0,6,5],"swapped_pitches":[4,9,8,2,10,0,6,5],"shift_direction":1,"question_num":61,"has_decoy":false},{"rt":4629.799999998882,"stimulus":"[A] option 1, [L] option 2, [G] neither","key_press":65,"name":"choice","trial_type":"html-keyboard-response","trial_index":87,"time_elapsed":194517,"internal_node_id":"0.0-87.0","subject":"S1C0803","sona":"41201","block":5,"time":"2021-09-04T21:33:48.977Z","response":"1st","certainty":"high","char":"A","transposition":-1,"order":["swapped","shifted"],"probe_pitches":[3,0,1,0,6,8,11,0],"shifted_pitches":[3,0,1,0,5,8,11,0],"swapped_pitches":[3,0,1,6,0,8,11,0],"shift_direction":-1,"question_num":71,"has_decoy":false},{"rt":3521.5,"stimulus":"[A] option 1, [L] option 2, [G] neither","key_press":65,"name":"choice","trial_type":"html-keyboard-response","trial_index":98,"time_elapsed":218342,"internal_node_id":"0.0-98.0","subject":"S1C0803","sona":"41201","block":5,"time":"2021-09-04T21:33:48.977Z","response":"1st","certainty":"high","char":"A","transposition":-2,"order":["shifted","swapped"],"probe_pitches":[9,7,2,5,10,11,2,1],"shifted_pitches":[9,7,2,6,10,11,2,1],"swapped_pitches":[9,7,2,10,5,11,2,1],"shift_direction":1,"question_num":81,"has_decoy":false},{"rt":3026.800000000745,"stimulus":"[A] option 1, [L] option 2, [G] neither","key_press":76,"name":"choice","trial_type":"html-keyboard-response","trial_index":109,"time_elapsed":236429,"internal_node_id":"0.0-109.0","subject":"S1C0803","sona":"41201","block":5,"time":"2021-09-04T21:33:48.977Z","response":"2nd","certainty":"high","char":"L","transposition":0,"order":["swapped","shifted"],"probe_pitches":[0,1,6,11,3,8,1,8],"shifted_pitches":[0,1,6,11,2,8,1,8],"swapped_pitches":[0,1,6,3,11,8,1,8],"shift_direction":-1,"question_num":91,"has_decoy":false},{"rt":3324.9000000003725,"stimulus":"[A] option 1, [L] option 2, [G] neither","key_press":65,"name":"choice","trial_type":"html-keyboard-response","trial_index":120,"time_elapsed":257159,"internal_node_id":"0.0-120.0","subject":"S1C0803","sona":"41201","block":5,"time":"2021-09-04T21:33:48.977Z","response":"1st","certainty":"high","char":"A","transposition":-1,"order":["swapped","shifted"],"probe_pitches":[-2,3,0,5,10,7,3,10],"shifted_pitches":[-2,3,0,6,10,7,3,10],"swapped_pitches":[-2,3,0,10,5,7,3,10],"shift_direction":1,"question_num":101,"has_decoy":false},{"rt":6362.799999998882,"stimulus":"[A] option 1, [L] option 2, [G] neither","key_press":76,"name":"choice","trial_type":"html-keyboard-response","trial_index":131,"time_elapsed":286447,"internal_node_id":"0.0-131.0","subject":"S1C0803","sona":"41201","block":5,"time":"2021-09-04T21:33:48.977Z","response":"2nd","certainty":"high","char":"L","transposition":-3,"order":["swapped","shifted"],"probe_pitches":[0,3,8,10,3,5,10,8],"shifted_pitches":[0,3,8,10,4,5,10,8],"swapped_pitches":[0,3,8,3,10,5,10,8],"shift_direction":1,"question_num":111,"has_decoy":false},{"rt":3372.7000000011176,"stimulus":"[A] option 1, [L] option 2, [G] neither","key_press":76,"name":"choice","trial_type":"html-keyboard-response","trial_index":142,"time_elapsed":308848,"internal_node_id":"0.0-142.0","subject":"S1C0803","sona":"41201","block":5,"time":"2021-09-04T21:33:48.977Z","response":"2nd","certainty":"high","char":"L","transposition":2,"order":["shifted","swapped"],"probe_pitches":[7,5,-2,0,5,10,0,2],"shifted_pitches":[7,5,-2,1,5,10,0,2],"swapped_pitches":[7,5,-2,5,0,10,0,2],"shift_direction":1,"question_num":121,"has_decoy":false},{"rt":5666.0999999996275,"stimulus":"[A] option 1, [L] option 2, [G] neither","key_press":65,"name":"choice","trial_type":"html-keyboard-response","trial_index":153,"time_elapsed":330555,"internal_node_id":"0.0-153.0","subject":"S1C0803","sona":"41201","block":5,"time":"2021-09-04T21:33:48.977Z","response":"1st","certainty":"high","char":"A","transposition":-1,"order":["shifted","swapped"],"probe_pitches":[3,2,0,4,8,0,4,6],"shifted_pitches":[3,2,0,4,9,0,4,6],"swapped_pitches":[3,2,0,8,4,0,4,6],"shift_direction":1,"question_num":131,"has_decoy":false},{"rt":6047.5999999996275,"stimulus":"[A] option 1, [L] option 2, [G] neither","key_press":65,"name":"choice","trial_type":"html-keyboard-response","trial_index":164,"time_elapsed":357998,"internal_node_id":"0.0-164.0","subject":"S1C0803","sona":"41201","block":5,"time":"2021-09-04T21:33:48.977Z","response":"1st","certainty":"high","char":"A","transposition":2,"order":["swapped","shifted"],"probe_pitches":[10,9,10,5,2,0,2,11],"shifted_pitches":[10,9,10,5,3,0,2,11],"swapped_pitches":[10,9,10,2,5,0,2,11],"shift_direction":1,"question_num":141,"has_decoy":false},{"rt":3246.7000000011176,"stimulus":"[A] option 1, [L] option 2, [G] neither","key_press":65,"name":"choice","trial_type":"html-keyboard-response","trial_index":175,"time_elapsed":385549,"internal_node_id":"0.0-175.0","subject":"S1C0803","sona":"41201","block":5,"time":"2021-09-04T21:33:48.977Z","response":"1st","certainty":"high","char":"A","transposition":-3,"order":["shifted","swapped"],"probe_pitches":[7,4,9,11,4,7,12,7],"shifted_pitches":[7,4,9,10,4,7,12,7],"swapped_pitches":[7,4,9,4,11,7,12,7],"shift_direction":-1,"question_num":151,"has_decoy":false},{"rt":3776.199999999255,"stimulus":"[A] option 1, [L] option 2, [G] neither","key_press":76,"name":"choice","trial_type":"html-keyboard-response","trial_index":186,"time_elapsed":409646,"internal_node_id":"0.0-186.0","subject":"S1C0803","sona":"41201","block":5,"time":"2021-09-04T21:33:48.977Z","response":"2nd","certainty":"high","char":"L","transposition":1,"order":["shifted","swapped"],"probe_pitches":[5,8,3,1,5,10,3,8],"shifted_pitches":[5,8,3,2,5,10,3,8],"swapped_pitches":[5,8,3,5,1,10,3,8],"shift_direction":1,"question_num":161,"has_decoy":false},{"rt":4470.299999998882,"stimulus":"[A] option 1, [L] option 2, [G] neither","key_press":76,"name":"choice","trial_type":"html-keyboard-response","trial_index":197,"time_elapsed":432180,"internal_node_id":"0.0-197.0","subject":"S1C0803","sona":"41201","block":5,"time":"2021-09-04T21:33:48.977Z","response":"2nd","certainty":"high","char":"L","transposition":3,"order":["swapped","shifted"],"probe_pitches":[7,10,5,2,10,0,7,10],"shifted_pitches":[7,10,5,2,9,0,7,10],"swapped_pitches":[7,10,5,10,2,0,7,10],"shift_direction":-1,"question_num":171,"has_decoy":false},{"rt":4242.5,"stimulus":"[A] option 1, [L] option 2, [G] neither","key_press":76,"name":"choice","trial_type":"html-keyboard-response","trial_index":208,"time_elapsed":452751,"internal_node_id":"0.0-208.0","subject":"S1C0803","sona":"41201","block":5,"time":"2021-09-04T21:33:48.977Z","response":"2nd","certainty":"high","char":"L","transposition":3,"order":["swapped","shifted"],"probe_pitches":[1,2,7,5,9,1,9,7],"shifted_pitches":[1,2,7,4,9,1,9,7],"swapped_pitches":[1,2,7,9,5,1,9,7],"shift_direction":-1,"question_num":181,"has_decoy":false},{"rt":4964.200000001118,"stimulus":"[A] option 1, [L] option 2, [G] neither","key_press":65,"name":"choice","trial_type":"html-keyboard-response","trial_index":219,"time_elapsed":474065,"internal_node_id":"0.0-219.0","subject":"S1C0803","sona":"41201","block":5,"time":"2021-09-04T21:33:48.977Z","response":"1st","certainty":"high","char":"A","transposition":-2,"order":["shifted","swapped"],"probe_pitches":[3,7,10,7,0,10,5,7],"shifted_pitches":[3,7,10,7,-1,10,5,7],"swapped_pitches":[3,7,10,0,7,10,5,7],"shift_direction":-1,"question_num":191,"has_decoy":false}]