[{"rt":8933.099999999627,"stimulus":"[A] option 1, [L] option 2, [G] neither","key_press":76,"name":"choice","trial_type":"html-keyboard-response","trial_index":10,"time_elapsed":43369,"internal_node_id":"0.0-10.0","subject":"S1C0803","sona":"41201","block":6,"time":"2021-09-04T21:43:34.516Z","response":"2nd","certainty":"high","char":"L","transposition":2,"order":["shifted","swapped"],"probe_pitches":[11,9,11,3,9,12,7,8],"shifted_pitches":[11,9,11,3,10,12,7,8],"swapped_pitches":[11,9,11,9,3,12,7,8],"shift_direction":1,"question_num":1,"has_decoy":false},{"rt":2712.5999999996275,"stimulus":"[A] option 1, [L] option 2, [G] neither","key_press":65,"name":"choice","trial_type":"html-keyboard-response","trial_index":21,"time_elapsed":74054,"internal_node_id":"0.0-21.0","subject":"S1C0803","sona":"41201","block":6,"time":"2021-09-04T21:43:34.516Z","response":"1st","certainty":"high","char":"A","transposition":-2,"order":["swapped","shifted"],"probe_pitches":[0,5,7,10,3,-2,5,0],"shifted_pitches":[0,5,7,11,3,-2,5,0],"swapped_pitches":[0,5,7,3,10,-2,5,0],"shift_direction":1,"question_num":11,"has_decoy":false},{"rt":703.1999999992549,"stimulus":"[A] option 1, [L] option 2, [G] neither","key_press":76,"name":"choice","trial_type":"html-keyboard-response","trial_index":32,"time_elapsed":196012,"internal_node_id":"0.0-32.0","subject":"S1C0803","sona":"41201","block":6,"time":"2021-09-04T21:43:34.516Z","response":"2nd","certainty":"high","char":"L","transposition":-1,"order":["shifted","swapped"],"probe_pitches":[10,8,12,6,2,10,5,2],"shifted_pitches":[10,8,12,7,2,10,5,2],"swapped_pitches":[10,8,12,2,6,10,5,2],"shift_direction":1,"question_num":21,"has_decoy":false},{"rt":13788.400000000373,"stimulus":"[A] option 1, [L] option 2, [G] neither","key_press":76,"name":"choice","trial_type":"html-keyboard-response","trial_index":43,"time_elapsed":228665,"internal_node_id":"0.0-43.0","subject":"S1C0803","sona":"41201","block":6,"time":"2021-09-04T21:43:34.516Z","response":"2nd","certainty":"high","char":"L","transposition":1,"order":["swapped","shifted"],"probe_pitches":[1,6,10,3,8,1,8,1],"shifted_pitches":[1,6,10,2,8,1,8,1],"swapped_pitches":[1,6,10,8,3,1,8,1],"shift_direction":-1,"question_num":31,"has_decoy":false},{"rt":29846,"stimulus":"[A] option 1, [L] option 2, [G] neither","key_press":76,"name":"choice","trial_type":"html-keyboard-response","trial_index":54,"time_elapsed":277773,"internal_node_id":"0.0-54.0","subject":"S1C0803","sona":"41201","block":6,"time":"2021-09-04T21:43:34.516Z","response":"2nd","certainty":"high","char":"L","transposition":-3,"order":["swapped","shifted"],"probe_pitches":[7,9,3,9,12,3,5,8],"shifted_pitches":[7,9,3,9,11,3,5,8],"swapped_pitches":[7,9,3,12,9,3,5,8],"shift_direction":-1,"question_num":41,"has_decoy":false},{"rt":517.6000000014901,"stimulus":"[A] option 1, [L] option 2, [G] neither","key_press":76,"name":"choice","trial_type":"html-keyboard-response","trial_index":65,"time_elapsed":295751,"internal_node_id":"0.0-65.0","subject":"S1C0803","sona":"41201","block":6,"time":"2021-09-04T21:43:34.516Z","response":"2nd","certainty":"high","char":"L","transposition":-2,"order":["shifted","swapped"],"probe_pitches":[1,4,3,10,6,13,2,13],"shifted_pitches":[1,4,3,9,6,13,2,13],"swapped_pitches":[1,4,3,6,10,13,2,13],"shift_direction":-1,"question_num":51,"has_decoy":false},{"rt":2611.2000000011176,"stimulus":"[A] option 1, [L] option 2, [G] neither","key_press":76,"name":"choice","trial_type":"html-keyboard-response","trial_index":76,"time_elapsed":312799,"internal_node_id":"0.0-76.0","subject":"S1C0803","sona":"41201","block":6,"time":"2021-09-04T21:43:34.516Z","response":"2nd","certainty":"high","char":"L","transposition":3,"order":["shifted","swapped"],"probe_pitches":[5,1,3,8,5,10,1,-2],"shifted_pitches":[5,1,3,8,4,10,1,-2],"swapped_pitches":[5,1,3,5,8,10,1,-2],"shift_direction":-1,"question_num":61,"has_decoy":false},{"rt":1625.4000000003725,"stimulus":"[A] option 1, [L] option 2, [G] neither","key_press":76,"name":"choice","trial_type":"html-keyboard-response","trial_index":87,"time_elapsed":330448,"internal_node_id":"0.0-87.0","subject":"S1C0803","sona":"41201","block":6,"time":"2021-09-04T21:43:34.516Z","response":"2nd","certainty":"high","char":"L","transposition":1,"order":["swapped","shifted"],"probe_pitches":[7,6,13,5,7,1,3,6],"shifted_pitches":[7,6,13,4,7,1,3,6],"swapped_pitches":[7,6,13,7,5,1,3,6],"shift_direction":-1,"question_num":71,"has_decoy":false},{"rt":1959.699999999255,"stimulus":"[A] option 1, [L] option 2, [G] neither","key_press":76,"name":"choice","trial_type":"html-keyboard-response","trial_index":98,"time_elapsed":351929,"internal_node_id":"0.0-98.0","subject":"S1C0803","sona":"41201","block":6,"time":"2021-09-04T21:43:34.516Z","response":"2nd","certainty":"high","char":"L","transposition":2,"order":["swapped","shifted"],"probe_pitches":[-2,1,5,8,1,3,8,10],"shifted_pitches":[-2,1,5,8,2,3,8,10],"swapped_pitches":[-2,1,5,1,8,3,8,10],"shift_direction":1,"question_num":81,"has_decoy":false},{"rt":2524.0999999996275,"stimulus":"[A] option 1, [L] option 2, [G] neither","key_press":65,"name":"choice","trial_type":"html-keyboard-response","trial_index":109,"time_elapsed":370925,"internal_node_id":"0.0-109.0","subject":"S1C0803","sona":"41201","block":6,"time":"2021-09-04T21:43:34.516Z","response":"1st","certainty":"high","char":"A","transposition":0,"order":["shifted","swapped"],"probe_pitches":[8,3,-2,5,8,0,5,3],"shifted_pitches":[8,3,-2,5,9,0,5,3],"swapped_pitches":[8,3,-2,8,5,0,5,3],"shift_direction":1,"question_num":91,"has_decoy":false},{"rt":4611.699999999255,"stimulus":"[A] option 1, [L] option 2, [G] neither","key_press":76,"name":"choice","trial_type":"html-keyboard-response","trial_index":120,"time_elapsed":393193,"internal_node_id":"0.0-120.0","subject":"S1C0803","sona":"41201","block":6,"time":"2021-09-04T21:43:34.516Z","response":"2nd","certainty":"high","char":"L","transposition":-3,"order":["swapped","shifted"],"probe_pitches":[1,6,10,8,6,3,-2,3],"shifted_pitches":[1,6,10,9,6,3,-2,3],"swapped_pitches":[1,6,10,6,8,3,-2,3],"shift_direction":1,"question_num":101,"has_decoy":false},{"rt":2701.5999999996275,"stimulus":"[A] option 1, [L] option 2, [G] neither","key_press":76,"name":"choice","trial_type":"html-keyboard-response","trial_index":131,"time_elapsed":413182,"internal_node_id":"0.0-131.0","subject":"S1C0803","sona":"41201","block":6,"time":"2021-09-04T21:43:34.516Z","response":"2nd","certainty":"high","char":"L","transposition":-1,"order":["swapped","shifted"],"probe_pitches":[4,1,6,13,4,2,3,12],"shifted_pitches":[4,1,6,13,5,2,3,12],"swapped_pitches":[4,1,6,4,13,2,3,12],"shift_direction":1,"question_num":111,"has_decoy":false},{"rt":1.800000000745058,"stimulus":"[A] option 1, [L] option 2, [G] neither","key_press":76,"name":"choice","trial_type":"html-keyboard-response","trial_index":142,"time_elapsed":433543,"internal_node_id":"0.0-142.0","subject":"S1C0803","sona":"41201","block":6,"time":"2021-09-04T21:43:34.516Z","response":"2nd","certainty":"high","char":"L","transposition":-1,"order":["shifted","swapped"],"probe_pitches":[2,0,-2,5,10,7,0,-2],"shifted_pitches":[2,0,-2,5,9,7,0,-2],"swapped_pitches":[2,0,-2,10,5,7,0,-2],"shift_direction":-1,"question_num":121,"has_decoy":false},{"rt":2201,"stimulus":"[A] option 1, [L] option 2, [G] neither","key_press":65,"name":"choice","trial_type":"html-keyboard-response","trial_index":153,"time_elapsed":450788,"internal_node_id":"0.0-153.0","subject":"S1C0803","sona":"41201","block":6,"time":"2021-09-04T21:43:34.516Z","response":"1st","certainty":"high","char":"A","transposition":3,"order":["shifted","swapped"],"probe_pitches":[7,9,12,10,9,11,6,9],"shifted_pitches":[7,9,12,10,8,11,6,9],"swapped_pitches":[7,9,12,9,10,11,6,9],"shift_direction":-1,"question_num":131,"has_decoy":false},{"rt":2180.5,"stimulus":"[A] option 1, [L] option 2, [G] neither","key_press":76,"name":"choice","trial_type":"html-keyboard-response","trial_index":164,"time_elapsed":473487,"internal_node_id":"0.0-164.0","subject":"S1C0803","sona":"41201","block":6,"time":"2021-09-04T21:43:34.516Z","response":"2nd","certainty":"high","char":"L","transposition":-1,"order":["swapped","shifted"],"probe_pitches":[7,2,0,5,10,7,10,5],"shifted_pitches":[7,2,0,5,9,7,10,5],"swapped_pitches":[7,2,0,10,5,7,10,5],"shift_direction":-1,"question_num":141,"has_decoy":false},{"rt":2676.39999999851,"stimulus":"[A] option 1, [L] option 2, [G] neither","key_press":76,"name":"choice","trial_type":"html-keyboard-response","trial_index":175,"time_elapsed":494377,"internal_node_id":"0.0-175.0","subject":"S1C0803","sona":"41201","block":6,"time":"2021-09-04T21:43:34.516Z","response":"2nd","certainty":"high","char":"L","transposition":-2,"order":["shifted","swapped"],"probe_pitches":[7,3,7,0,3,10,5,0],"shifted_pitches":[7,3,7,-1,3,10,5,0],"swapped_pitches":[7,3,7,3,0,10,5,0],"shift_direction":-1,"question_num":151,"has_decoy":false},{"rt":4346.4000000003725,"stimulus":"[A] option 1, [L] option 2, [G] neither","key_press":76,"name":"choice","trial_type":"html-keyboard-response","trial_index":186,"time_elapsed":518820,"internal_node_id":"0.0-186.0","subject":"S1C0803","sona":"41201","block":6,"time":"2021-09-04T21:43:34.516Z","response":"2nd","certainty":"high","char":"L","transposition":-2,"order":["swapped","shifted"],"probe_pitches":[13,10,9,4,11,7,10,3],"shifted_pitches":[13,10,9,4,12,7,10,3],"swapped_pitches":[13,10,9,11,4,7,10,3],"shift_direction":1,"question_num":161,"has_decoy":false},{"rt":2038,"stimulus":"[A] option 1, [L] option 2, [G] neither","key_press":76,"name":"choice","trial_type":"html-keyboard-response","trial_index":197,"time_elapsed":537301,"internal_node_id":"0.0-197.0","subject":"S1C0803","sona":"41201","block":6,"time":"2021-09-04T21:43:34.516Z","response":"2nd","certainty":"high","char":"L","transposition":0,"order":["swapped","shifted"],"probe_pitches":[9,10,13,5,12,3,11,13],"shifted_pitches":[9,10,13,6,12,3,11,13],"swapped_pitches":[9,10,13,12,5,3,11,13],"shift_direction":1,"question_num":171,"has_decoy":false},{"rt":3508.199999999255,"stimulus":"[A] option 1, [L] option 2, [G] neither","key_press":76,"name":"choice","trial_type":"html-keyboard-response","trial_index":208,"time_elapsed":562291,"internal_node_id":"0.0-208.0","subject":"S1C0803","sona":"41201","block":6,"time":"2021-09-04T21:43:34.516Z","response":"2nd","certainty":"high","char":"L","transposition":-3,"order":["shifted","swapped"],"probe_pitches":[9,12,11,4,2,1,11,12],"shifted_pitches":[9,12,11,3,2,1,11,12],"swapped_pitches":[9,12,11,2,4,1,11,12],"shift_direction":-1,"question_num":181,"has_decoy":false},{"rt":2727.5,"stimulus":"[A] option 1, [L] option 2, [G] neither","key_press":76,"name":"choice","trial_type":"html-keyboard-response","trial_index":219,"time_elapsed":581697,"internal_node_id":"0.0-219.0","subject":"S1C0803","sona":"41201","block":6,"time":"2021-09-04T21:43:34.516Z","response":"2nd","certainty":"high","char":"L","transposition":-3,"order":["shifted","swapped"],"probe_pitches":[5,8,3,-2,5,0,3,5],"shifted_pitches":[5,8,3,-1,5,0,3,5],"swapped_pitches":[5,8,3,5,-2,0,3,5],"shift_direction":1,"question_num":191,"has_decoy":false}]