[{"rt":9033.5,"stimulus":"[A] option 1, [L] option 2, [G] neither","key_press":65,"name":"choice","trial_type":"html-keyboard-response","trial_index":15,"time_elapsed":138870,"internal_node_id":"0.0-15.0","response":"1st","certainty":"high","char":"A","transposition":-1,"order":["swapped","shifted"],"probe_pitches":[-1,2,6,-1,4,9,2,9],"shifted_pitches":[-1,2,6,-1,5,9,2,9],"swapped_pitches":[-1,2,6,4,-1,9,2,9],"shift_direction":1,"question_num":1,"has_decoy":false,"subject":"S1C0803","sona":"41201","block":1,"time":"2021-09-04T20:36:15.582Z"},{"rt":2614.2999999998137,"stimulus":"[A] option 1, [L] option 2, [G] neither","key_press":76,"name":"choice","trial_type":"html-keyboard-response","trial_index":26,"time_elapsed":158082,"internal_node_id":"0.0-26.0","response":"2nd","certainty":"high","char":"L","transposition":-1,"order":["shifted","swapped"],"probe_pitches":[2,8,3,7,4,13,12,8],"shifted_pitches":[2,8,3,6,4,13,12,8],"swapped_pitches":[2,8,3,4,7,13,12,8],"shift_direction":-1,"question_num":11,"has_decoy":false,"subject":"S1C0803","sona":"41201","block":1,"time":"2021-09-04T20:36:15.582Z"},{"rt":1274.7999999998137,"stimulus":"[A] option 1, [L] option 2, [G] neither","key_press":76,"name":"choice","trial_type":"html-keyboard-response","trial_index":37,"time_elapsed":174646,"internal_node_id":"0.0-37.0","response":"2nd","certainty":"high","char":"L","transposition":1,"order":["shifted","swapped"],"probe_pitches":[11,5,11,3,10,8,9,2],"shifted_pitches":[11,5,11,4,10,8,9,2],"swapped_pitches":[11,5,11,10,3,8,9,2],"shift_direction":1,"question_num":21,"has_decoy":false,"subject":"S1C0803","sona":"41201","block":1,"time":"2021-09-04T20:36:15.582Z"},{"rt":1265.2000000001863,"stimulus":"[A] option 1, [L] option 2, [G] neither","key_press":76,"name":"choice","trial_type":"html-keyboard-response","trial_index":48,"time_elapsed":195170,"internal_node_id":"0.0-48.0","response":"2nd","certainty":"high","char":"L","transposition":3,"order":["shifted","swapped"],"probe_pitches":[13,12,14,9,8,7,5,4],"shifted_pitches":[13,12,14,10,8,7,5,4],"swapped_pitches":[13,12,14,8,9,7,5,4],"shift_direction":1,"question_num":31,"has_decoy":false,"subject":"S1C0803","sona":"41201","block":1,"time":"2021-09-04T20:36:15.582Z"},{"rt":1397,"stimulus":"[A] option 1, [L] option 2, [G] neither","key_press":65,"name":"choice","trial_type":"html-keyboard-response","trial_index":59,"time_elapsed":212021,"internal_node_id":"0.0-59.0","response":"1st","certainty":"high","char":"A","transposition":-1,"order":["swapped","shifted"],"probe_pitches":[4,3,7,13,6,10,3,4],"shifted_pitches":[4,3,7,13,5,10,3,4],"swapped_pitches":[4,3,7,6,13,10,3,4],"shift_direction":-1,"question_num":41,"has_decoy":false,"subject":"S1C0803","sona":"41201","block":1,"time":"2021-09-04T20:36:15.582Z"},{"rt":8435.799999999814,"stimulus":"[A] option 1, [L] option 2, [G] neither","key_press":76,"name":"choice","trial_type":"html-keyboard-response","trial_index":70,"time_elapsed":238993,"internal_node_id":"0.0-70.0","response":"2nd","certainty":"high","char":"L","transposition":-3,"order":["swapped","shifted"],"probe_pitches":[1,6,-1,6,9,4,-1,4],"shifted_pitches":[1,6,-1,6,8,4,-1,4],"swapped_pitches":[1,6,-1,9,6,4,-1,4],"shift_direction":-1,"question_num":51,"has_decoy":false,"subject":"S1C0803","sona":"41201","block":1,"time":"2021-09-04T20:36:15.582Z"},{"rt":2620.5,"stimulus":"[A] option 1, [L] option 2, [G] neither","key_press":65,"name":"choice","trial_type":"html-keyboard-response","trial_index":81,"time_elapsed":256722,"internal_node_id":"0.0-81.0","response":"1st","certainty":"high","char":"A","transposition":-1,"order":["shifted","swapped"],"probe_pitches":[-1,4,-1,6,4,8,1,11],"shifted_pitches":[-1,4,-1,6,5,8,1,11],"swapped_pitches":[-1,4,-1,4,6,8,1,11],"shift_direction":1,"question_num":61,"has_decoy":false,"subject":"S1C0803","sona":"41201","block":1,"time":"2021-09-04T20:36:15.582Z"},{"rt":1190.9000000003725,"stimulus":"[A] option 1, [L] option 2, [G] neither","key_press":65,"name":"choice","trial_type":"html-keyboard-response","trial_index":92,"time_elapsed":274929,"internal_node_id":"0.0-92.0","response":"1st","certainty":"high","char":"A","transposition":2,"order":["swapped","shifted"],"probe_pitches":[9,5,11,9,12,6,12,6],"shifted_pitches":[9,5,11,9,13,6,12,6],"swapped_pitches":[9,5,11,12,9,6,12,6],"shift_direction":1,"question_num":71,"has_decoy":false,"subject":"S1C0803","sona":"41201","block":1,"time":"2021-09-04T20:36:15.582Z"},{"rt":411.09999999962747,"stimulus":"[A] option 1, [L] option 2, [G] neither","key_press":76,"name":"choice","trial_type":"html-keyboard-response","trial_index":103,"time_elapsed":290043,"internal_node_id":"0.0-103.0","response":"2nd","certainty":"high","char":"L","transposition":0,"order":["shifted","swapped"],"probe_pitches":[11,8,11,3,8,1,8,6],"shifted_pitches":[11,8,11,2,8,1,8,6],"swapped_pitches":[11,8,11,8,3,1,8,6],"shift_direction":-1,"question_num":81,"has_decoy":false,"subject":"S1C0803","sona":"41201","block":1,"time":"2021-09-04T20:36:15.582Z"},{"rt":1463.5999999996275,"stimulus":"[A] option 1, [L] option 2, [G] neither","key_press":65,"name":"choice","trial_type":"html-keyboard-response","trial_index":114,"time_elapsed":306492,"internal_node_id":"0.0-114.0","response":"1st","certainty":"high","char":"A","transposition":1,"order":["swapped","shifted"],"probe_pitches":[1,4,11,4,9,1,6,9],"shifted_pitches":[1,4,11,4,8,1,6,9],"swapped_pitches":[1,4,11,9,4,1,6,9],"shift_direction":-1,"question_num":91,"has_decoy":false,"subject":"S1C0803","sona":"41201","block":1,"time":"2021-09-04T20:36:15.582Z"},{"rt":369.20000000018626,"stimulus":"[A] option 1, [L] option 2, [G] neither","key_press":76,"name":"choice","trial_type":"html-keyboard-response","trial_index":125,"time_elapsed":321681,"internal_node_id":"0.0-125.0","response":"2nd","certainty":"high","char":"L","transposition":-2,"order":["shifted","swapped"],"probe_pitches":[4,5,10,11,9,12,5,2],"shifted_pitches":[4,5,10,11,8,12,5,2],"swapped_pitches":[4,5,10,9,11,12,5,2],"shift_direction":-1,"question_num":101,"has_decoy":false,"subject":"S1C0803","sona":"41201","block":1,"time":"2021-09-04T20:36:15.582Z"},{"rt":1403.4000000003725,"stimulus":"[A] option 1, [L] option 2, [G] neither","key_press":65,"name":"choice","trial_type":"html-keyboard-response","trial_index":136,"time_elapsed":338784,"internal_node_id":"0.0-136.0","response":"1st","certainty":"high","char":"A","transposition":-2,"order":["swapped","shifted"],"probe_pitches":[3,9,4,11,2,5,14,2],"shifted_pitches":[3,9,4,12,2,5,14,2],"swapped_pitches":[3,9,4,2,11,5,14,2],"shift_direction":1,"question_num":111,"has_decoy":false,"subject":"S1C0803","sona":"41201","block":1,"time":"2021-09-04T20:36:15.582Z"},{"rt":383.29999999981374,"stimulus":"[A] option 1, [L] option 2, [G] neither","key_press":76,"name":"choice","trial_type":"html-keyboard-response","trial_index":147,"time_elapsed":355151,"internal_node_id":"0.0-147.0","response":"2nd","certainty":"high","char":"L","transposition":2,"order":["shifted","swapped"],"probe_pitches":[7,11,9,7,4,2,4,11],"shifted_pitches":[7,11,9,8,4,2,4,11],"swapped_pitches":[7,11,9,4,7,2,4,11],"shift_direction":1,"question_num":121,"has_decoy":false,"subject":"S1C0803","sona":"41201","block":1,"time":"2021-09-04T20:36:15.582Z"},{"rt":537.1000000005588,"stimulus":"[A] option 1, [L] option 2, [G] neither","key_press":76,"name":"choice","trial_type":"html-keyboard-response","trial_index":158,"time_elapsed":371933,"internal_node_id":"0.0-158.0","response":"2nd","certainty":"high","char":"L","transposition":-3,"order":["swapped","shifted"],"probe_pitches":[5,8,12,10,14,4,3,4],"shifted_pitches":[5,8,12,9,14,4,3,4],"swapped_pitches":[5,8,12,14,10,4,3,4],"shift_direction":-1,"question_num":131,"has_decoy":false,"subject":"S1C0803","sona":"41201","block":1,"time":"2021-09-04T20:36:15.582Z"},{"rt":362.40000000037253,"stimulus":"[A] option 1, [L] option 2, [G] neither","key_press":76,"name":"choice","trial_type":"html-keyboard-response","trial_index":169,"time_elapsed":387428,"internal_node_id":"0.0-169.0","response":"2nd","certainty":"high","char":"L","transposition":-2,"order":["shifted","swapped"],"probe_pitches":[11,7,4,2,7,9,-1,4],"shifted_pitches":[11,7,4,2,8,9,-1,4],"swapped_pitches":[11,7,4,7,2,9,-1,4],"shift_direction":1,"question_num":141,"has_decoy":false,"subject":"S1C0803","sona":"41201","block":1,"time":"2021-09-04T20:36:15.582Z"},{"rt":1863.0999999996275,"stimulus":"[A] option 1, [L] option 2, [G] neither","key_press":76,"name":"choice","trial_type":"html-keyboard-response","trial_index":180,"time_elapsed":404230,"internal_node_id":"0.0-180.0","response":"2nd","certainty":"high","char":"L","transposition":3,"order":["swapped","shifted"],"probe_pitches":[4,6,-1,1,4,11,8,11],"shifted_pitches":[4,6,-1,2,4,11,8,11],"swapped_pitches":[4,6,-1,4,1,11,8,11],"shift_direction":1,"question_num":151,"has_decoy":false,"subject":"S1C0803","sona":"41201","block":1,"time":"2021-09-04T20:36:15.582Z"},{"rt":868.0999999996275,"stimulus":"[A] option 1, [L] option 2, [G] neither","key_press":65,"name":"choice","trial_type":"html-keyboard-response","trial_index":191,"time_elapsed":420077,"internal_node_id":"0.0-191.0","response":"1st","certainty":"high","char":"A","transposition":0,"order":["swapped","shifted"],"probe_pitches":[5,3,9,10,6,3,14,6],"shifted_pitches":[5,3,9,10,7,3,14,6],"swapped_pitches":[5,3,9,6,10,3,14,6],"shift_direction":1,"question_num":161,"has_decoy":false,"subject":"S1C0803","sona":"41201","block":1,"time":"2021-09-04T20:36:15.582Z"},{"rt":487.6000000005588,"stimulus":"[A] option 1, [L] option 2, [G] neither","key_press":76,"name":"choice","trial_type":"html-keyboard-response","trial_index":202,"time_elapsed":435067,"internal_node_id":"0.0-202.0","response":"2nd","certainty":"high","char":"L","transposition":-2,"order":["shifted","swapped"],"probe_pitches":[2,6,11,6,9,-1,2,4],"shifted_pitches":[2,6,11,5,9,-1,2,4],"swapped_pitches":[2,6,11,9,6,-1,2,4],"shift_direction":-1,"question_num":171,"has_decoy":false,"subject":"S1C0803","sona":"41201","block":1,"time":"2021-09-04T20:36:15.582Z"},{"rt":393,"stimulus":"[A] option 1, [L] option 2, [G] neither","key_press":76,"name":"choice","trial_type":"html-keyboard-response","trial_index":213,"time_elapsed":450898,"internal_node_id":"0.0-213.0","response":"2nd","certainty":"high","char":"L","transposition":-3,"order":["shifted","swapped"],"probe_pitches":[2,6,7,4,12,3,10,6],"shifted_pitches":[2,6,7,4,11,3,10,6],"swapped_pitches":[2,6,7,12,4,3,10,6],"shift_direction":-1,"question_num":181,"has_decoy":false,"subject":"S1C0803","sona":"41201","block":1,"time":"2021-09-04T20:36:15.582Z"},{"rt":674.7999999998137,"stimulus":"[A] option 1, [L] option 2, [G] neither","key_press":76,"name":"choice","trial_type":"html-keyboard-response","trial_index":224,"time_elapsed":466337,"internal_node_id":"0.0-224.0","response":"2nd","certainty":"high","char":"L","transposition":-3,"order":["swapped","shifted"],"probe_pitches":[11,6,8,6,1,11,1,3],"shifted_pitches":[11,6,8,5,1,11,1,3],"swapped_pitches":[11,6,8,1,6,11,1,3],"shift_direction":-1,"question_num":191,"has_decoy":false,"subject":"S1C0803","sona":"41201","block":1,"time":"2021-09-04T20:36:15.582Z"}]