[{"rt":5386.800000011921,"stimulus":"[A] option 1, [L] option 2, [G] neither","key_press":76,"name":"choice","trial_type":"html-keyboard-response","trial_index":10,"time_elapsed":29247,"internal_node_id":"0.0-10.0","subject":"S1C1634","sona":"39944","block":6,"time":"2021-09-18T13:17:12.717Z","response":"2nd","certainty":"high","char":"L","transposition":-2,"order":["shifted","swapped"],"probe_pitches":[-2,2,-2,5,10,0,5,-2,10,2,0,7,2,10,-2,5],"shifted_pitches":[-2,2,-2,5,10,0,5,-2,9,2,0,7,2,10,-2,5],"swapped_pitches":[-2,2,-2,5,10,0,5,10,-2,2,0,7,2,10,-2,5],"shift_direction":-1,"question_num":1,"has_decoy":false},{"rt":0.30000001192092896,"stimulus":"[A] option 1, [L] option 2, [G] neither","key_press":76,"name":"choice","trial_type":"html-keyboard-response","trial_index":21,"time_elapsed":51536,"internal_node_id":"0.0-21.0","subject":"S1C1634","sona":"39944","block":6,"time":"2021-09-18T13:17:12.717Z","response":"2nd","certainty":"high","char":"L","transposition":-3,"order":["swapped","shifted"],"probe_pitches":[7,10,7,0,-2,0,7,2,0,7,2,5,-2,5,-2,2],"shifted_pitches":[7,10,7,0,-2,0,7,2,1,7,2,5,-2,5,-2,2],"swapped_pitches":[7,10,7,0,-2,0,7,0,2,7,2,5,-2,5,-2,2],"shift_direction":1,"question_num":11,"has_decoy":false},{"rt":2773.2999999523163,"stimulus":"[A] option 1, [L] option 2, [G] neither","key_press":71,"name":"choice","trial_type":"html-keyboard-response","trial_index":32,"time_elapsed":76375,"internal_node_id":"0.0-32.0","subject":"S1C1634","sona":"39944","block":6,"time":"2021-09-18T13:17:12.717Z","response":"neither","certainty":"high","char":"G","transposition":-2,"order":["shifted","swapped"],"probe_pitches":[8,9,4,9,1,7,-2,0,3,5,6,5,-1,-2,-1,5],"shifted_pitches":[8,9,4,9,1,7,-2,0,2,5,6,5,-1,-2,-1,5],"swapped_pitches":[8,9,4,9,1,7,-2,3,0,5,6,5,-1,-2,-1,5],"shift_direction":-1,"question_num":21,"has_decoy":false},{"rt":344.60000002384186,"stimulus":"[A] option 1, [L] option 2, [G] neither","key_press":76,"name":"choice","trial_type":"html-keyboard-response","trial_index":43,"time_elapsed":98820,"internal_node_id":"0.0-43.0","subject":"S1C1634","sona":"39944","block":6,"time":"2021-09-18T13:17:12.717Z","response":"2nd","certainty":"high","char":"L","transposition":-3,"order":["swapped","shifted"],"probe_pitches":[3,5,-2,0,5,8,-2,8,0,-2,0,10,-2,8,3,5],"shifted_pitches":[3,5,-2,0,5,8,-2,7,0,-2,0,10,-2,8,3,5],"swapped_pitches":[3,5,-2,0,5,8,-2,0,8,-2,0,10,-2,8,3,5],"shift_direction":-1,"question_num":31,"has_decoy":false},{"rt":1499.5,"stimulus":"[A] option 1, [L] option 2, [G] neither","key_press":71,"name":"choice","trial_type":"html-keyboard-response","trial_index":54,"time_elapsed":122342,"internal_node_id":"0.0-54.0","subject":"S1C1634","sona":"39944","block":6,"time":"2021-09-18T13:17:12.717Z","response":"neither","certainty":"high","char":"G","transposition":-1,"order":["shifted","swapped"],"probe_pitches":[8,3,5,8,5,1,10,3,1,8,5,8,1,10,8,3],"shifted_pitches":[8,3,5,8,5,1,10,3,2,8,5,8,1,10,8,3],"swapped_pitches":[8,3,5,8,5,1,10,1,3,8,5,8,1,10,8,3],"shift_direction":1,"question_num":41,"has_decoy":false},{"rt":51.09999996423721,"stimulus":"[A] option 1, [L] option 2, [G] neither","key_press":65,"name":"choice","trial_type":"html-keyboard-response","trial_index":65,"time_elapsed":144398,"internal_node_id":"0.0-65.0","subject":"S1C1634","sona":"39944","block":6,"time":"2021-09-18T13:17:12.717Z","response":"1st","certainty":"high","char":"A","transposition":1,"order":["swapped","shifted"],"probe_pitches":[10,6,1,-2,6,-2,1,3,6,1,8,6,3,10,1,-2],"shifted_pitches":[10,6,1,-2,6,-2,1,3,7,1,8,6,3,10,1,-2],"swapped_pitches":[10,6,1,-2,6,-2,1,6,3,1,8,6,3,10,1,-2],"shift_direction":1,"question_num":51,"has_decoy":false},{"rt":2043.1000000238419,"stimulus":"[A] option 1, [L] option 2, [G] neither","key_press":76,"name":"choice","trial_type":"html-keyboard-response","trial_index":76,"time_elapsed":168707,"internal_node_id":"0.0-76.0","subject":"S1C1634","sona":"39944","block":6,"time":"2021-09-18T13:17:12.717Z","response":"2nd","certainty":"high","char":"L","transposition":-1,"order":["shifted","swapped"],"probe_pitches":[5,9,10,4,8,10,-1,4,10,-2,2,4,5,-2,5,9],"shifted_pitches":[5,9,10,4,8,10,-1,3,10,-2,2,4,5,-2,5,9],"swapped_pitches":[5,9,10,4,8,10,-1,10,4,-2,2,4,5,-2,5,9],"shift_direction":-1,"question_num":61,"has_decoy":false},{"rt":113,"stimulus":"[A] option 1, [L] option 2, [G] neither","key_press":76,"name":"choice","trial_type":"html-keyboard-response","trial_index":87,"time_elapsed":190930,"internal_node_id":"0.0-87.0","subject":"S1C1634","sona":"39944","block":6,"time":"2021-09-18T13:17:12.717Z","response":"2nd","certainty":"high","char":"L","transposition":-1,"order":["swapped","shifted"],"probe_pitches":[3,8,5,8,3,-2,3,5,1,-2,8,5,3,8,10,8],"shifted_pitches":[3,8,5,8,3,-2,3,4,1,-2,8,5,3,8,10,8],"swapped_pitches":[3,8,5,8,3,-2,3,1,5,-2,8,5,3,8,10,8],"shift_direction":-1,"question_num":71,"has_decoy":false},{"rt":4765.900000035763,"stimulus":"[A] option 1, [L] option 2, [G] neither","key_press":71,"name":"choice","trial_type":"html-keyboard-response","trial_index":98,"time_elapsed":217764,"internal_node_id":"0.0-98.0","subject":"S1C1634","sona":"39944","block":6,"time":"2021-09-18T13:17:12.717Z","response":"neither","certainty":"high","char":"G","transposition":-3,"order":["swapped","shifted"],"probe_pitches":[1,-2,-1,1,3,10,6,-2,9,-1,9,0,5,9,2,7],"shifted_pitches":[1,-2,-1,1,3,10,6,-2,8,-1,9,0,5,9,2,7],"swapped_pitches":[1,-2,-1,1,3,10,6,9,-2,-1,9,0,5,9,2,7],"shift_direction":-1,"question_num":81,"has_decoy":false},{"rt":1379.3999999761581,"stimulus":"[A] option 1, [L] option 2, [G] neither","key_press":71,"name":"choice","trial_type":"html-keyboard-response","trial_index":109,"time_elapsed":241156,"internal_node_id":"0.0-109.0","subject":"S1C1634","sona":"39944","block":6,"time":"2021-09-18T13:17:12.717Z","response":"neither","certainty":"high","char":"G","transposition":-2,"order":["shifted","swapped"],"probe_pitches":[5,3,0,7,10,5,3,5,0,3,0,3,5,-2,7,0],"shifted_pitches":[5,3,0,7,10,5,3,6,0,3,0,3,5,-2,7,0],"swapped_pitches":[5,3,0,7,10,5,3,0,5,3,0,3,5,-2,7,0],"shift_direction":1,"question_num":91,"has_decoy":false},{"rt":1398.300000011921,"stimulus":"[A] option 1, [L] option 2, [G] neither","key_press":65,"name":"choice","trial_type":"html-keyboard-response","trial_index":120,"time_elapsed":264649,"internal_node_id":"0.0-120.0","subject":"S1C1634","sona":"39944","block":6,"time":"2021-09-18T13:17:12.717Z","response":"1st","certainty":"high","char":"A","transposition":3,"order":["swapped","shifted"],"probe_pitches":[6,1,3,8,1,10,3,6,8,10,6,10,6,3,1,6],"shifted_pitches":[6,1,3,8,1,10,3,5,8,10,6,10,6,3,1,6],"swapped_pitches":[6,1,3,8,1,10,3,8,6,10,6,10,6,3,1,6],"shift_direction":-1,"question_num":101,"has_decoy":false},{"rt":42.90000003576279,"stimulus":"[A] option 1, [L] option 2, [G] neither","key_press":65,"name":"choice","trial_type":"html-keyboard-response","trial_index":131,"time_elapsed":286754,"internal_node_id":"0.0-131.0","subject":"S1C1634","sona":"39944","block":6,"time":"2021-09-18T13:17:12.717Z","response":"1st","certainty":"high","char":"A","transposition":0,"order":["shifted","swapped"],"probe_pitches":[10,7,5,0,5,3,10,0,3,10,3,7,10,5,-2,7],"shifted_pitches":[10,7,5,0,5,3,10,-1,3,10,3,7,10,5,-2,7],"swapped_pitches":[10,7,5,0,5,3,10,3,0,10,3,7,10,5,-2,7],"shift_direction":-1,"question_num":111,"has_decoy":false},{"rt":3008.300000011921,"stimulus":"[A] option 1, [L] option 2, [G] neither","key_press":71,"name":"choice","trial_type":"html-keyboard-response","trial_index":142,"time_elapsed":311982,"internal_node_id":"0.0-142.0","subject":"S1C1634","sona":"39944","block":6,"time":"2021-09-18T13:17:12.717Z","response":"neither","certainty":"high","char":"G","transposition":-2,"order":["shifted","swapped"],"probe_pitches":[0,-2,5,7,5,1,3,2,5,10,0,7,8,4,5,-2],"shifted_pitches":[0,-2,5,7,5,1,3,2,6,10,0,7,8,4,5,-2],"swapped_pitches":[0,-2,5,7,5,1,3,5,2,10,0,7,8,4,5,-2],"shift_direction":1,"question_num":121,"has_decoy":false},{"rt":839.6000000238419,"stimulus":"[A] option 1, [L] option 2, [G] neither","key_press":71,"name":"choice","trial_type":"html-keyboard-response","trial_index":153,"time_elapsed":334961,"internal_node_id":"0.0-153.0","subject":"S1C1634","sona":"39944","block":6,"time":"2021-09-18T13:17:12.717Z","response":"neither","certainty":"high","char":"G","transposition":2,"order":["shifted","swapped"],"probe_pitches":[3,-2,5,10,5,8,0,8,3,10,-2,5,10,3,8,10],"shifted_pitches":[3,-2,5,10,5,8,0,8,4,10,-2,5,10,3,8,10],"swapped_pitches":[3,-2,5,10,5,8,0,3,8,10,-2,5,10,3,8,10],"shift_direction":1,"question_num":131,"has_decoy":false},{"rt":270.5999999642372,"stimulus":"[A] option 1, [L] option 2, [G] neither","key_press":65,"name":"choice","trial_type":"html-keyboard-response","trial_index":164,"time_elapsed":357319,"internal_node_id":"0.0-164.0","subject":"S1C1634","sona":"39944","block":6,"time":"2021-09-18T13:17:12.717Z","response":"1st","certainty":"high","char":"A","transposition":-1,"order":["swapped","shifted"],"probe_pitches":[2,7,0,-2,5,2,3,5,0,3,-2,4,8,-2,-1,-2],"shifted_pitches":[2,7,0,-2,5,2,3,5,1,3,-2,4,8,-2,-1,-2],"swapped_pitches":[2,7,0,-2,5,2,3,0,5,3,-2,4,8,-2,-1,-2],"shift_direction":1,"question_num":141,"has_decoy":false},{"rt":4394.600000023842,"stimulus":"[A] option 1, [L] option 2, [G] neither","key_press":76,"name":"choice","trial_type":"html-keyboard-response","trial_index":175,"time_elapsed":383734,"internal_node_id":"0.0-175.0","subject":"S1C1634","sona":"39944","block":6,"time":"2021-09-18T13:17:12.717Z","response":"2nd","certainty":"high","char":"L","transposition":2,"order":["swapped","shifted"],"probe_pitches":[1,0,3,8,10,7,3,6,-1,2,4,1,8,1,2,-1],"shifted_pitches":[1,0,3,8,10,7,3,5,-1,2,4,1,8,1,2,-1],"swapped_pitches":[1,0,3,8,10,7,3,-1,6,2,4,1,8,1,2,-1],"shift_direction":-1,"question_num":151,"has_decoy":false},{"rt":2244.300000011921,"stimulus":"[A] option 1, [L] option 2, [G] neither","key_press":76,"name":"choice","trial_type":"html-keyboard-response","trial_index":186,"time_elapsed":408011,"internal_node_id":"0.0-186.0","subject":"S1C1634","sona":"39944","block":6,"time":"2021-09-18T13:17:12.717Z","response":"2nd","certainty":"high","char":"L","transposition":-3,"order":["swapped","shifted"],"probe_pitches":[9,8,3,0,1,0,7,3,0,-1,0,-1,1,6,-1,8],"shifted_pitches":[9,8,3,0,1,0,7,4,0,-1,0,-1,1,6,-1,8],"swapped_pitches":[9,8,3,0,1,0,7,0,3,-1,0,-1,1,6,-1,8],"shift_direction":1,"question_num":161,"has_decoy":false},{"rt":3393.599999964237,"stimulus":"[A] option 1, [L] option 2, [G] neither","key_press":65,"name":"choice","trial_type":"html-keyboard-response","trial_index":197,"time_elapsed":433517,"internal_node_id":"0.0-197.0","subject":"S1C1634","sona":"39944","block":6,"time":"2021-09-18T13:17:12.717Z","response":"1st","certainty":"high","char":"A","transposition":3,"order":["shifted","swapped"],"probe_pitches":[0,1,7,6,10,1,2,3,-2,10,1,-1,1,7,3,10],"shifted_pitches":[0,1,7,6,10,1,2,3,-3,10,1,-1,1,7,3,10],"swapped_pitches":[0,1,7,6,10,1,2,-2,3,10,1,-1,1,7,3,10],"shift_direction":-1,"question_num":171,"has_decoy":false},{"rt":200.80000001192093,"stimulus":"[A] option 1, [L] option 2, [G] neither","key_press":65,"name":"choice","trial_type":"html-keyboard-response","trial_index":208,"time_elapsed":455938,"internal_node_id":"0.0-208.0","subject":"S1C1634","sona":"39944","block":6,"time":"2021-09-18T13:17:12.717Z","response":"1st","certainty":"high","char":"A","transposition":0,"order":["shifted","swapped"],"probe_pitches":[10,5,3,4,-2,6,-2,-1,6,5,8,1,4,9,-1,7],"shifted_pitches":[10,5,3,4,-2,6,-2,0,6,5,8,1,4,9,-1,7],"swapped_pitches":[10,5,3,4,-2,6,-2,6,-1,5,8,1,4,9,-1,7],"shift_direction":1,"question_num":181,"has_decoy":false},{"rt":63.5,"stimulus":"[A] option 1, [L] option 2, [G] neither","key_press":76,"name":"choice","trial_type":"html-keyboard-response","trial_index":219,"time_elapsed":478017,"internal_node_id":"0.0-219.0","subject":"S1C1634","sona":"39944","block":6,"time":"2021-09-18T13:17:12.717Z","response":"2nd","certainty":"high","char":"L","transposition":1,"order":["swapped","shifted"],"probe_pitches":[9,8,9,1,0,10,5,6,-2,2,3,5,4,5,2,6],"shifted_pitches":[9,8,9,1,0,10,5,7,-2,2,3,5,4,5,2,6],"swapped_pitches":[9,8,9,1,0,10,5,-2,6,2,3,5,4,5,2,6],"shift_direction":1,"question_num":191,"has_decoy":false}]