[{"rt":303.89999997615814,"stimulus":"[A] option 1, [L] option 2, [G] neither","key_press":76,"name":"choice","trial_type":"html-keyboard-response","trial_index":10,"time_elapsed":38893,"internal_node_id":"0.0-10.0","subject":"S1C1634","sona":"39944","block":3,"time":"2021-09-18T12:53:23.550Z","response":"2nd","certainty":"high","char":"L","transposition":-1,"order":["shifted","swapped"],"probe_pitches":[6,8,11,3,8,11,3,6,1,3,6,1,13,11,8,1],"shifted_pitches":[6,8,11,3,8,11,3,7,1,3,6,1,13,11,8,1],"swapped_pitches":[6,8,11,3,8,11,3,1,6,3,6,1,13,11,8,1],"shift_direction":1,"question_num":1,"has_decoy":false},{"rt":1472.5,"stimulus":"[A] option 1, [L] option 2, [G] neither","key_press":71,"name":"choice","trial_type":"html-keyboard-response","trial_index":21,"time_elapsed":62493,"internal_node_id":"0.0-21.0","subject":"S1C1634","sona":"39944","block":3,"time":"2021-09-18T12:53:23.550Z","response":"neither","certainty":"high","char":"G","transposition":-2,"order":["swapped","shifted"],"probe_pitches":[11,7,1,0,1,2,0,8,5,0,1,11,5,9,3,10],"shifted_pitches":[11,7,1,0,1,2,0,8,4,0,1,11,5,9,3,10],"swapped_pitches":[11,7,1,0,1,2,0,5,8,0,1,11,5,9,3,10],"shift_direction":-1,"question_num":11,"has_decoy":false},{"rt":104,"stimulus":"[A] option 1, [L] option 2, [G] neither","key_press":65,"name":"choice","trial_type":"html-keyboard-response","trial_index":32,"time_elapsed":84658,"internal_node_id":"0.0-32.0","subject":"S1C1634","sona":"39944","block":3,"time":"2021-09-18T12:53:23.550Z","response":"1st","certainty":"high","char":"A","transposition":1,"order":["shifted","swapped"],"probe_pitches":[4,6,4,11,13,9,1,9,13,4,6,11,13,9,1,4],"shifted_pitches":[4,6,4,11,13,9,1,9,12,4,6,11,13,9,1,4],"swapped_pitches":[4,6,4,11,13,9,1,13,9,4,6,11,13,9,1,4],"shift_direction":-1,"question_num":21,"has_decoy":false},{"rt":88.29999995231628,"stimulus":"[A] option 1, [L] option 2, [G] neither","key_press":71,"name":"choice","trial_type":"html-keyboard-response","trial_index":43,"time_elapsed":106754,"internal_node_id":"0.0-43.0","subject":"S1C1634","sona":"39944","block":3,"time":"2021-09-18T12:53:23.550Z","response":"neither","certainty":"high","char":"G","transposition":-2,"order":["shifted","swapped"],"probe_pitches":[5,8,4,7,0,3,6,2,10,-1,2,10,4,-1,3,10],"shifted_pitches":[5,8,4,7,0,3,6,1,10,-1,2,10,4,-1,3,10],"swapped_pitches":[5,8,4,7,0,3,6,10,2,-1,2,10,4,-1,3,10],"shift_direction":-1,"question_num":31,"has_decoy":false},{"rt":656,"stimulus":"[A] option 1, [L] option 2, [G] neither","key_press":71,"name":"choice","trial_type":"html-keyboard-response","trial_index":54,"time_elapsed":129468,"internal_node_id":"0.0-54.0","subject":"S1C1634","sona":"39944","block":3,"time":"2021-09-18T12:53:23.550Z","response":"neither","certainty":"high","char":"G","transposition":-1,"order":["swapped","shifted"],"probe_pitches":[7,4,2,8,5,11,6,10,8,-1,3,4,11,-1,2,11],"shifted_pitches":[7,4,2,8,5,11,6,9,8,-1,3,4,11,-1,2,11],"swapped_pitches":[7,4,2,8,5,11,6,8,10,-1,3,4,11,-1,2,11],"shift_direction":-1,"question_num":41,"has_decoy":false},{"rt":2110.900000035763,"stimulus":"[A] option 1, [L] option 2, [G] neither","key_press":76,"name":"choice","trial_type":"html-keyboard-response","trial_index":65,"time_elapsed":153673,"internal_node_id":"0.0-65.0","subject":"S1C1634","sona":"39944","block":3,"time":"2021-09-18T12:53:23.550Z","response":"2nd","certainty":"high","char":"L","transposition":0,"order":["swapped","shifted"],"probe_pitches":[5,11,8,1,9,2,4,6,5,3,9,3,8,11,9,11],"shifted_pitches":[5,11,8,1,9,2,4,7,5,3,9,3,8,11,9,11],"swapped_pitches":[5,11,8,1,9,2,4,5,6,3,9,3,8,11,9,11],"shift_direction":1,"question_num":51,"has_decoy":false},{"rt":1179,"stimulus":"[A] option 1, [L] option 2, [G] neither","key_press":76,"name":"choice","trial_type":"html-keyboard-response","trial_index":76,"time_elapsed":177755,"internal_node_id":"0.0-76.0","subject":"S1C1634","sona":"39944","block":3,"time":"2021-09-18T12:53:23.550Z","response":"2nd","certainty":"high","char":"L","transposition":-3,"order":["swapped","shifted"],"probe_pitches":[6,4,11,3,10,2,0,6,7,1,-1,11,0,9,7,9],"shifted_pitches":[6,4,11,3,10,2,0,6,8,1,-1,11,0,9,7,9],"swapped_pitches":[6,4,11,3,10,2,0,7,6,1,-1,11,0,9,7,9],"shift_direction":1,"question_num":61,"has_decoy":false},{"rt":71.39999997615814,"stimulus":"[A] option 1, [L] option 2, [G] neither","key_press":76,"name":"choice","trial_type":"html-keyboard-response","trial_index":87,"time_elapsed":199903,"internal_node_id":"0.0-87.0","subject":"S1C1634","sona":"39944","block":3,"time":"2021-09-18T12:53:23.550Z","response":"2nd","certainty":"high","char":"L","transposition":2,"order":["swapped","shifted"],"probe_pitches":[13,11,8,11,6,4,6,1,11,4,8,11,6,4,13,4],"shifted_pitches":[13,11,8,11,6,4,6,1,12,4,8,11,6,4,13,4],"swapped_pitches":[13,11,8,11,6,4,6,11,1,4,8,11,6,4,13,4],"shift_direction":1,"question_num":71,"has_decoy":false},{"rt":3051.400000035763,"stimulus":"[A] option 1, [L] option 2, [G] neither","key_press":76,"name":"choice","trial_type":"html-keyboard-response","trial_index":98,"time_elapsed":225197,"internal_node_id":"0.0-98.0","subject":"S1C1634","sona":"39944","block":3,"time":"2021-09-18T12:53:23.550Z","response":"2nd","certainty":"high","char":"L","transposition":-3,"order":["shifted","swapped"],"probe_pitches":[1,-1,1,2,4,-1,5,6,9,11,9,3,5,-1,6,4],"shifted_pitches":[1,-1,1,2,4,-1,5,6,10,11,9,3,5,-1,6,4],"swapped_pitches":[1,-1,1,2,4,-1,5,9,6,11,9,3,5,-1,6,4],"shift_direction":1,"question_num":81,"has_decoy":false},{"rt":1452.3999999761581,"stimulus":"[A] option 1, [L] option 2, [G] neither","key_press":71,"name":"choice","trial_type":"html-keyboard-response","trial_index":109,"time_elapsed":248699,"internal_node_id":"0.0-109.0","subject":"S1C1634","sona":"39944","block":3,"time":"2021-09-18T12:53:23.550Z","response":"neither","certainty":"high","char":"G","transposition":1,"order":["shifted","swapped"],"probe_pitches":[-1,0,7,-1,0,6,8,-1,3,5,-1,6,0,3,9,7],"shifted_pitches":[-1,0,7,-1,0,6,8,-1,2,5,-1,6,0,3,9,7],"swapped_pitches":[-1,0,7,-1,0,6,8,3,-1,5,-1,6,0,3,9,7],"shift_direction":-1,"question_num":91,"has_decoy":false},{"rt":73.89999997615814,"stimulus":"[A] option 1, [L] option 2, [G] neither","key_press":76,"name":"choice","trial_type":"html-keyboard-response","trial_index":120,"time_elapsed":270796,"internal_node_id":"0.0-120.0","subject":"S1C1634","sona":"39944","block":3,"time":"2021-09-18T12:53:23.550Z","response":"2nd","certainty":"high","char":"L","transposition":-1,"order":["swapped","shifted"],"probe_pitches":[3,6,1,8,11,6,11,1,6,8,13,8,11,13,11,1],"shifted_pitches":[3,6,1,8,11,6,11,0,6,8,13,8,11,13,11,1],"swapped_pitches":[3,6,1,8,11,6,11,6,1,8,13,8,11,13,11,1],"shift_direction":-1,"question_num":101,"has_decoy":false},{"rt":482.69999998807907,"stimulus":"[A] option 1, [L] option 2, [G] neither","key_press":71,"name":"choice","trial_type":"html-keyboard-response","trial_index":131,"time_elapsed":293323,"internal_node_id":"0.0-131.0","subject":"S1C1634","sona":"39944","block":3,"time":"2021-09-18T12:53:23.550Z","response":"neither","certainty":"high","char":"G","transposition":3,"order":["shifted","swapped"],"probe_pitches":[8,6,5,6,8,4,7,2,-1,7,0,7,9,2,10,6],"shifted_pitches":[8,6,5,6,8,4,7,3,-1,7,0,7,9,2,10,6],"swapped_pitches":[8,6,5,6,8,4,7,-1,2,7,0,7,9,2,10,6],"shift_direction":1,"question_num":111,"has_decoy":false},{"rt":39.19999998807907,"stimulus":"[A] option 1, [L] option 2, [G] neither","key_press":76,"name":"choice","trial_type":"html-keyboard-response","trial_index":142,"time_elapsed":315392,"internal_node_id":"0.0-142.0","subject":"S1C1634","sona":"39944","block":3,"time":"2021-09-18T12:53:23.550Z","response":"2nd","certainty":"high","char":"L","transposition":0,"order":["swapped","shifted"],"probe_pitches":[11,13,11,9,6,4,13,11,1,4,13,4,6,11,13,4],"shifted_pitches":[11,13,11,9,6,4,13,10,1,4,13,4,6,11,13,4],"swapped_pitches":[11,13,11,9,6,4,13,1,11,4,13,4,6,11,13,4],"shift_direction":-1,"question_num":121,"has_decoy":false},{"rt":100.5,"stimulus":"[A] option 1, [L] option 2, [G] neither","key_press":71,"name":"choice","trial_type":"html-keyboard-response","trial_index":153,"time_elapsed":337506,"internal_node_id":"0.0-153.0","subject":"S1C1634","sona":"39944","block":3,"time":"2021-09-18T12:53:23.550Z","response":"neither","certainty":"high","char":"G","transposition":-3,"order":["shifted","swapped"],"probe_pitches":[10,8,6,8,1,3,8,6,13,1,6,13,1,3,8,1],"shifted_pitches":[10,8,6,8,1,3,8,7,13,1,6,13,1,3,8,1],"swapped_pitches":[10,8,6,8,1,3,8,13,6,1,6,13,1,3,8,1],"shift_direction":1,"question_num":131,"has_decoy":false},{"rt":152.19999998807907,"stimulus":"[A] option 1, [L] option 2, [G] neither","key_press":71,"name":"choice","trial_type":"html-keyboard-response","trial_index":164,"time_elapsed":359739,"internal_node_id":"0.0-164.0","subject":"S1C1634","sona":"39944","block":3,"time":"2021-09-18T12:53:23.550Z","response":"neither","certainty":"high","char":"G","transposition":-1,"order":["swapped","shifted"],"probe_pitches":[4,7,8,2,7,6,10,6,9,7,2,8,9,4,0,2],"shifted_pitches":[4,7,8,2,7,6,10,5,9,7,2,8,9,4,0,2],"swapped_pitches":[4,7,8,2,7,6,10,9,6,7,2,8,9,4,0,2],"shift_direction":-1,"question_num":141,"has_decoy":false},{"rt":1120.4000000357628,"stimulus":"[A] option 1, [L] option 2, [G] neither","key_press":71,"name":"choice","trial_type":"html-keyboard-response","trial_index":175,"time_elapsed":382877,"internal_node_id":"0.0-175.0","subject":"S1C1634","sona":"39944","block":3,"time":"2021-09-18T12:53:23.550Z","response":"neither","certainty":"high","char":"G","transposition":2,"order":["shifted","swapped"],"probe_pitches":[1,7,4,10,3,11,3,4,5,8,4,8,0,3,0,9],"shifted_pitches":[1,7,4,10,3,11,3,4,6,8,4,8,0,3,0,9],"swapped_pitches":[1,7,4,10,3,11,3,5,4,8,4,8,0,3,0,9],"shift_direction":1,"question_num":151,"has_decoy":false},{"rt":1380.199999988079,"stimulus":"[A] option 1, [L] option 2, [G] neither","key_press":71,"name":"choice","trial_type":"html-keyboard-response","trial_index":186,"time_elapsed":406397,"internal_node_id":"0.0-186.0","subject":"S1C1634","sona":"39944","block":3,"time":"2021-09-18T12:53:23.550Z","response":"neither","certainty":"high","char":"G","transposition":-2,"order":["swapped","shifted"],"probe_pitches":[5,8,5,1,10,8,13,5,8,10,1,13,5,10,3,13],"shifted_pitches":[5,8,5,1,10,8,13,5,7,10,1,13,5,10,3,13],"swapped_pitches":[5,8,5,1,10,8,13,8,5,10,1,13,5,10,3,13],"shift_direction":-1,"question_num":161,"has_decoy":false},{"rt":2266.099999964237,"stimulus":"[A] option 1, [L] option 2, [G] neither","key_press":71,"name":"choice","trial_type":"html-keyboard-response","trial_index":197,"time_elapsed":430690,"internal_node_id":"0.0-197.0","subject":"S1C1634","sona":"39944","block":3,"time":"2021-09-18T12:53:23.550Z","response":"neither","certainty":"high","char":"G","transposition":-2,"order":["shifted","swapped"],"probe_pitches":[10,5,1,8,1,3,1,3,5,10,8,5,3,1,13,8],"shifted_pitches":[10,5,1,8,1,3,1,3,6,10,8,5,3,1,13,8],"swapped_pitches":[10,5,1,8,1,3,1,5,3,10,8,5,3,1,13,8],"shift_direction":1,"question_num":171,"has_decoy":false},{"rt":165.69999998807907,"stimulus":"[A] option 1, [L] option 2, [G] neither","key_press":76,"name":"choice","trial_type":"html-keyboard-response","trial_index":208,"time_elapsed":454711,"internal_node_id":"0.0-208.0","subject":"S1C1634","sona":"39944","block":3,"time":"2021-09-18T12:53:23.550Z","response":"2nd","certainty":"high","char":"L","transposition":3,"order":["swapped","shifted"],"probe_pitches":[1,6,8,1,8,10,13,3,1,13,3,6,13,6,3,6],"shifted_pitches":[1,6,8,1,8,10,13,3,2,13,3,6,13,6,3,6],"swapped_pitches":[1,6,8,1,8,10,13,1,3,13,3,6,13,6,3,6],"shift_direction":1,"question_num":181,"has_decoy":false},{"rt":174.30000001192093,"stimulus":"[A] option 1, [L] option 2, [G] neither","key_press":65,"name":"choice","trial_type":"html-keyboard-response","trial_index":219,"time_elapsed":476895,"internal_node_id":"0.0-219.0","subject":"S1C1634","sona":"39944","block":3,"time":"2021-09-18T12:53:23.550Z","response":"1st","certainty":"high","char":"A","transposition":-3,"order":["shifted","swapped"],"probe_pitches":[6,1,4,6,1,6,1,4,11,8,4,1,4,6,13,6],"shifted_pitches":[6,1,4,6,1,6,1,3,11,8,4,1,4,6,13,6],"swapped_pitches":[6,1,4,6,1,6,1,11,4,8,4,1,4,6,13,6],"shift_direction":-1,"question_num":191,"has_decoy":false}]