[{"rt":314,"stimulus":"[A] option 1, [L] option 2, [G] neither","key_press":76,"name":"choice","trial_type":"html-keyboard-response","trial_index":10,"time_elapsed":27058,"internal_node_id":"0.0-10.0","subject":"S1C1634","sona":"39944","block":2,"time":"2021-09-18T12:43:44.054Z","response":"2nd","certainty":"high","char":"L","transposition":-1,"order":["swapped","shifted"],"probe_pitches":[3,8,13,10,15,8,15,13,8,3,8,5,10,3,5,10],"shifted_pitches":[3,8,13,10,15,8,15,14,8,3,8,5,10,3,5,10],"swapped_pitches":[3,8,13,10,15,8,15,8,13,3,8,5,10,3,5,10],"shift_direction":1,"question_num":1,"has_decoy":false},{"rt":2839.199999988079,"stimulus":"[A] option 1, [L] option 2, [G] neither","key_press":76,"name":"choice","trial_type":"html-keyboard-response","trial_index":21,"time_elapsed":52275,"internal_node_id":"0.0-21.0","subject":"S1C1634","sona":"39944","block":2,"time":"2021-09-18T12:43:44.054Z","response":"2nd","certainty":"high","char":"L","transposition":2,"order":["shifted","swapped"],"probe_pitches":[-1,1,3,4,9,-1,4,3,1,4,7,-1,9,1,8,-1],"shifted_pitches":[-1,1,3,4,9,-1,4,3,0,4,7,-1,9,1,8,-1],"swapped_pitches":[-1,1,3,4,9,-1,4,1,3,4,7,-1,9,1,8,-1],"shift_direction":-1,"question_num":11,"has_decoy":false},{"rt":1634.3999999761581,"stimulus":"[A] option 1, [L] option 2, [G] neither","key_press":76,"name":"choice","trial_type":"html-keyboard-response","trial_index":32,"time_elapsed":75939,"internal_node_id":"0.0-32.0","subject":"S1C1634","sona":"39944","block":2,"time":"2021-09-18T12:43:44.054Z","response":"2nd","certainty":"high","char":"L","transposition":-3,"order":["swapped","shifted"],"probe_pitches":[5,3,5,12,8,3,8,15,10,8,12,8,15,10,12,3],"shifted_pitches":[5,3,5,12,8,3,8,14,10,8,12,8,15,10,12,3],"swapped_pitches":[5,3,5,12,8,3,8,10,15,8,12,8,15,10,12,3],"shift_direction":-1,"question_num":21,"has_decoy":false},{"rt":388.30000001192093,"stimulus":"[A] option 1, [L] option 2, [G] neither","key_press":76,"name":"choice","trial_type":"html-keyboard-response","trial_index":43,"time_elapsed":98530,"internal_node_id":"0.0-43.0","subject":"S1C1634","sona":"39944","block":2,"time":"2021-09-18T12:43:44.054Z","response":"2nd","certainty":"high","char":"L","transposition":-2,"order":["shifted","swapped"],"probe_pitches":[10,12,10,12,5,15,5,15,3,5,15,8,10,12,3,8],"shifted_pitches":[10,12,10,12,5,15,5,14,3,5,15,8,10,12,3,8],"swapped_pitches":[10,12,10,12,5,15,5,3,15,5,15,8,10,12,3,8],"shift_direction":-1,"question_num":31,"has_decoy":false},{"rt":426.30000001192093,"stimulus":"[A] option 1, [L] option 2, [G] neither","key_press":76,"name":"choice","trial_type":"html-keyboard-response","trial_index":54,"time_elapsed":120974,"internal_node_id":"0.0-54.0","subject":"S1C1634","sona":"39944","block":2,"time":"2021-09-18T12:43:44.054Z","response":"2nd","certainty":"high","char":"L","transposition":-2,"order":["swapped","shifted"],"probe_pitches":[0,3,9,3,4,2,9,7,5,9,-1,9,-2,10,9,6],"shifted_pitches":[0,3,9,3,4,2,9,8,5,9,-1,9,-2,10,9,6],"swapped_pitches":[0,3,9,3,4,2,9,5,7,9,-1,9,-2,10,9,6],"shift_direction":1,"question_num":41,"has_decoy":false},{"rt":2776.399999976158,"stimulus":"[A] option 1, [L] option 2, [G] neither","key_press":71,"name":"choice","trial_type":"html-keyboard-response","trial_index":65,"time_elapsed":146365,"internal_node_id":"0.0-65.0","subject":"S1C1634","sona":"39944","block":2,"time":"2021-09-18T12:43:44.054Z","response":"neither","certainty":"high","char":"G","transposition":0,"order":["swapped","shifted"],"probe_pitches":[6,1,-2,4,8,3,9,6,3,10,6,1,9,3,4,10],"shifted_pitches":[6,1,-2,4,8,3,9,6,2,10,6,1,9,3,4,10],"swapped_pitches":[6,1,-2,4,8,3,9,3,6,10,6,1,9,3,4,10],"shift_direction":-1,"question_num":51,"has_decoy":false},{"rt":790.1999999880791,"stimulus":"[A] option 1, [L] option 2, [G] neither","key_press":76,"name":"choice","trial_type":"html-keyboard-response","trial_index":76,"time_elapsed":169317,"internal_node_id":"0.0-76.0","subject":"S1C1634","sona":"39944","block":2,"time":"2021-09-18T12:43:44.054Z","response":"2nd","certainty":"high","char":"L","transposition":3,"order":["shifted","swapped"],"probe_pitches":[12,10,12,7,10,3,12,10,7,3,10,15,10,5,12,7],"shifted_pitches":[12,10,12,7,10,3,12,10,6,3,10,15,10,5,12,7],"swapped_pitches":[12,10,12,7,10,3,12,7,10,3,10,15,10,5,12,7],"shift_direction":-1,"question_num":61,"has_decoy":false},{"rt":1567.699999988079,"stimulus":"[A] option 1, [L] option 2, [G] neither","key_press":65,"name":"choice","trial_type":"html-keyboard-response","trial_index":87,"time_elapsed":192920,"internal_node_id":"0.0-87.0","subject":"S1C1634","sona":"39944","block":2,"time":"2021-09-18T12:43:44.054Z","response":"1st","certainty":"high","char":"A","transposition":3,"order":["shifted","swapped"],"probe_pitches":[8,10,7,5,2,5,8,1,-2,3,10,5,-1,1,2,0],"shifted_pitches":[8,10,7,5,2,5,8,1,-3,3,10,5,-1,1,2,0],"swapped_pitches":[8,10,7,5,2,5,8,-2,1,3,10,5,-1,1,2,0],"shift_direction":-1,"question_num":71,"has_decoy":false},{"rt":2380,"stimulus":"[A] option 1, [L] option 2, [G] neither","key_press":76,"name":"choice","trial_type":"html-keyboard-response","trial_index":98,"time_elapsed":217458,"internal_node_id":"0.0-98.0","subject":"S1C1634","sona":"39944","block":2,"time":"2021-09-18T12:43:44.054Z","response":"2nd","certainty":"high","char":"L","transposition":1,"order":["shifted","swapped"],"probe_pitches":[2,7,8,9,6,2,0,5,4,0,8,9,7,4,2,1],"shifted_pitches":[2,7,8,9,6,2,0,5,3,0,8,9,7,4,2,1],"swapped_pitches":[2,7,8,9,6,2,0,4,5,0,8,9,7,4,2,1],"shift_direction":-1,"question_num":81,"has_decoy":false},{"rt":1296,"stimulus":"[A] option 1, [L] option 2, [G] neither","key_press":71,"name":"choice","trial_type":"html-keyboard-response","trial_index":109,"time_elapsed":240888,"internal_node_id":"0.0-109.0","subject":"S1C1634","sona":"39944","block":2,"time":"2021-09-18T12:43:44.054Z","response":"neither","certainty":"high","char":"G","transposition":-2,"order":["shifted","swapped"],"probe_pitches":[3,8,13,15,11,15,6,13,11,8,11,13,6,8,11,3],"shifted_pitches":[3,8,13,15,11,15,6,13,10,8,11,13,6,8,11,3],"swapped_pitches":[3,8,13,15,11,15,6,11,13,8,11,13,6,8,11,3],"shift_direction":-1,"question_num":91,"has_decoy":false},{"rt":2058.7000000476837,"stimulus":"[A] option 1, [L] option 2, [G] neither","key_press":71,"name":"choice","trial_type":"html-keyboard-response","trial_index":120,"time_elapsed":265684,"internal_node_id":"0.0-120.0","subject":"S1C1634","sona":"39944","block":2,"time":"2021-09-18T12:43:44.054Z","response":"neither","certainty":"high","char":"G","transposition":-3,"order":["swapped","shifted"],"probe_pitches":[6,7,4,10,9,5,6,0,-2,6,7,3,4,10,9,0],"shifted_pitches":[6,7,4,10,9,5,6,1,-2,6,7,3,4,10,9,0],"swapped_pitches":[6,7,4,10,9,5,6,-2,0,6,7,3,4,10,9,0],"shift_direction":1,"question_num":101,"has_decoy":false},{"rt":278.80000001192093,"stimulus":"[A] option 1, [L] option 2, [G] neither","key_press":71,"name":"choice","trial_type":"html-keyboard-response","trial_index":131,"time_elapsed":288181,"internal_node_id":"0.0-131.0","subject":"S1C1634","sona":"39944","block":2,"time":"2021-09-18T12:43:44.054Z","response":"neither","certainty":"high","char":"G","transposition":-2,"order":["shifted","swapped"],"probe_pitches":[10,8,9,1,8,10,9,4,-1,9,6,10,8,2,9,-2],"shifted_pitches":[10,8,9,1,8,10,9,5,-1,9,6,10,8,2,9,-2],"swapped_pitches":[10,8,9,1,8,10,9,-1,4,9,6,10,8,2,9,-2],"shift_direction":1,"question_num":111,"has_decoy":false},{"rt":88.30000001192093,"stimulus":"[A] option 1, [L] option 2, [G] neither","key_press":76,"name":"choice","trial_type":"html-keyboard-response","trial_index":142,"time_elapsed":310410,"internal_node_id":"0.0-142.0","subject":"S1C1634","sona":"39944","block":2,"time":"2021-09-18T12:43:44.054Z","response":"2nd","certainty":"high","char":"L","transposition":0,"order":["swapped","shifted"],"probe_pitches":[8,6,11,6,15,8,13,15,8,11,8,13,15,3,6,3],"shifted_pitches":[8,6,11,6,15,8,13,16,8,11,8,13,15,3,6,3],"swapped_pitches":[8,6,11,6,15,8,13,8,15,11,8,13,15,3,6,3],"shift_direction":1,"question_num":121,"has_decoy":false},{"rt":229,"stimulus":"[A] option 1, [L] option 2, [G] neither","key_press":65,"name":"choice","trial_type":"html-keyboard-response","trial_index":153,"time_elapsed":332710,"internal_node_id":"0.0-153.0","subject":"S1C1634","sona":"39944","block":2,"time":"2021-09-18T12:43:44.054Z","response":"1st","certainty":"high","char":"A","transposition":2,"order":["shifted","swapped"],"probe_pitches":[3,6,13,15,6,3,8,6,3,10,13,15,13,6,15,13],"shifted_pitches":[3,6,13,15,6,3,8,6,4,10,13,15,13,6,15,13],"swapped_pitches":[3,6,13,15,6,3,8,3,6,10,13,15,13,6,15,13],"shift_direction":1,"question_num":131,"has_decoy":false},{"rt":1427.699999988079,"stimulus":"[A] option 1, [L] option 2, [G] neither","key_press":65,"name":"choice","trial_type":"html-keyboard-response","trial_index":164,"time_elapsed":356251,"internal_node_id":"0.0-164.0","subject":"S1C1634","sona":"39944","block":2,"time":"2021-09-18T12:43:44.054Z","response":"1st","certainty":"high","char":"A","transposition":-3,"order":["shifted","swapped"],"probe_pitches":[1,6,3,5,-1,8,2,6,3,8,4,-2,0,9,8,5],"shifted_pitches":[1,6,3,5,-1,8,2,7,3,8,4,-2,0,9,8,5],"swapped_pitches":[1,6,3,5,-1,8,2,3,6,8,4,-2,0,9,8,5],"shift_direction":1,"question_num":141,"has_decoy":false},{"rt":240.5,"stimulus":"[A] option 1, [L] option 2, [G] neither","key_press":71,"name":"choice","trial_type":"html-keyboard-response","trial_index":175,"time_elapsed":378568,"internal_node_id":"0.0-175.0","subject":"S1C1634","sona":"39944","block":2,"time":"2021-09-18T12:43:44.054Z","response":"neither","certainty":"high","char":"G","transposition":-1,"order":["swapped","shifted"],"probe_pitches":[8,5,2,3,5,3,7,10,5,9,0,5,3,1,9,6],"shifted_pitches":[8,5,2,3,5,3,7,10,4,9,0,5,3,1,9,6],"swapped_pitches":[8,5,2,3,5,3,7,5,10,9,0,5,3,1,9,6],"shift_direction":-1,"question_num":151,"has_decoy":false},{"rt":1733.300000011921,"stimulus":"[A] option 1, [L] option 2, [G] neither","key_press":71,"name":"choice","trial_type":"html-keyboard-response","trial_index":186,"time_elapsed":402422,"internal_node_id":"0.0-186.0","subject":"S1C1634","sona":"39944","block":2,"time":"2021-09-18T12:43:44.054Z","response":"neither","certainty":"high","char":"G","transposition":-1,"order":["swapped","shifted"],"probe_pitches":[-1,2,0,7,10,4,0,5,9,2,9,4,9,0,1,10],"shifted_pitches":[-1,2,0,7,10,4,0,6,9,2,9,4,9,0,1,10],"swapped_pitches":[-1,2,0,7,10,4,0,9,5,2,9,4,9,0,1,10],"shift_direction":1,"question_num":161,"has_decoy":false},{"rt":131.5,"stimulus":"[A] option 1, [L] option 2, [G] neither","key_press":76,"name":"choice","trial_type":"html-keyboard-response","trial_index":197,"time_elapsed":424587,"internal_node_id":"0.0-197.0","subject":"S1C1634","sona":"39944","block":2,"time":"2021-09-18T12:43:44.054Z","response":"2nd","certainty":"high","char":"L","transposition":-1,"order":["swapped","shifted"],"probe_pitches":[12,7,10,3,7,10,12,7,10,3,5,7,10,15,5,15],"shifted_pitches":[12,7,10,3,7,10,12,8,10,3,5,7,10,15,5,15],"swapped_pitches":[12,7,10,3,7,10,12,10,7,3,5,7,10,15,5,15],"shift_direction":1,"question_num":171,"has_decoy":false},{"rt":241.89999997615814,"stimulus":"[A] option 1, [L] option 2, [G] neither","key_press":65,"name":"choice","trial_type":"html-keyboard-response","trial_index":208,"time_elapsed":446918,"internal_node_id":"0.0-208.0","subject":"S1C1634","sona":"39944","block":2,"time":"2021-09-18T12:43:44.054Z","response":"1st","certainty":"high","char":"A","transposition":1,"order":["shifted","swapped"],"probe_pitches":[8,3,10,6,8,3,13,6,10,13,10,6,3,15,8,3],"shifted_pitches":[8,3,10,6,8,3,13,6,9,13,10,6,3,15,8,3],"swapped_pitches":[8,3,10,6,8,3,13,10,6,13,10,6,3,15,8,3],"shift_direction":-1,"question_num":181,"has_decoy":false},{"rt":1576.5,"stimulus":"[A] option 1, [L] option 2, [G] neither","key_press":71,"name":"choice","trial_type":"html-keyboard-response","trial_index":219,"time_elapsed":470638,"internal_node_id":"0.0-219.0","subject":"S1C1634","sona":"39944","block":2,"time":"2021-09-18T12:43:44.054Z","response":"neither","certainty":"high","char":"G","transposition":-3,"order":["swapped","shifted"],"probe_pitches":[10,15,13,10,8,13,10,8,5,10,13,3,5,15,3,13],"shifted_pitches":[10,15,13,10,8,13,10,8,6,10,13,3,5,15,3,13],"swapped_pitches":[10,15,13,10,8,13,10,5,8,10,13,3,5,15,3,13],"shift_direction":1,"question_num":191,"has_decoy":false}]