[{"rt":373.4000000357628,"stimulus":"[A] option 1, [L] option 2, [G] neither","key_press":65,"name":"choice","trial_type":"html-keyboard-response","trial_index":10,"time_elapsed":27917,"internal_node_id":"0.0-10.0","subject":"S1C1634","sona":"39944","block":4,"time":"2021-09-18T13:01:22.093Z","response":"1st","certainty":"high","char":"A","transposition":-2,"order":["shifted","swapped"],"probe_pitches":[3,8,6,8,6,11,1,11,8,1,3,1,3,13,8,11],"shifted_pitches":[3,8,6,8,6,11,1,12,8,1,3,1,3,13,8,11],"swapped_pitches":[3,8,6,8,6,11,1,8,11,1,3,1,3,13,8,11],"shift_direction":1,"question_num":1,"has_decoy":false},{"rt":328.9000000357628,"stimulus":"[A] option 1, [L] option 2, [G] neither","key_press":71,"name":"choice","trial_type":"html-keyboard-response","trial_index":21,"time_elapsed":50287,"internal_node_id":"0.0-21.0","subject":"S1C1634","sona":"39944","block":4,"time":"2021-09-18T13:01:22.093Z","response":"neither","certainty":"high","char":"G","transposition":-1,"order":["shifted","swapped"],"probe_pitches":[5,3,5,3,10,8,5,3,10,8,13,5,1,10,5,1],"shifted_pitches":[5,3,5,3,10,8,5,4,10,8,13,5,1,10,5,1],"swapped_pitches":[5,3,5,3,10,8,5,10,3,8,13,5,1,10,5,1],"shift_direction":1,"question_num":11,"has_decoy":false},{"rt":146,"stimulus":"[A] option 1, [L] option 2, [G] neither","key_press":76,"name":"choice","trial_type":"html-keyboard-response","trial_index":32,"time_elapsed":72441,"internal_node_id":"0.0-32.0","subject":"S1C1634","sona":"39944","block":4,"time":"2021-09-18T13:01:22.093Z","response":"2nd","certainty":"high","char":"L","transposition":-3,"order":["shifted","swapped"],"probe_pitches":[13,10,8,3,8,4,3,8,4,2,4,3,5,4,11,9],"shifted_pitches":[13,10,8,3,8,4,3,7,4,2,4,3,5,4,11,9],"swapped_pitches":[13,10,8,3,8,4,3,4,8,2,4,3,5,4,11,9],"shift_direction":-1,"question_num":21,"has_decoy":false},{"rt":902.5,"stimulus":"[A] option 1, [L] option 2, [G] neither","key_press":71,"name":"choice","trial_type":"html-keyboard-response","trial_index":43,"time_elapsed":95355,"internal_node_id":"0.0-43.0","subject":"S1C1634","sona":"39944","block":4,"time":"2021-09-18T13:01:22.093Z","response":"neither","certainty":"high","char":"G","transposition":-3,"order":["shifted","swapped"],"probe_pitches":[6,3,6,1,10,1,6,13,3,10,13,8,1,3,1,13],"shifted_pitches":[6,3,6,1,10,1,6,13,4,10,13,8,1,3,1,13],"swapped_pitches":[6,3,6,1,10,1,6,3,13,10,13,8,1,3,1,13],"shift_direction":1,"question_num":31,"has_decoy":false},{"rt":104.19999998807907,"stimulus":"[A] option 1, [L] option 2, [G] neither","key_press":76,"name":"choice","trial_type":"html-keyboard-response","trial_index":54,"time_elapsed":117912,"internal_node_id":"0.0-54.0","subject":"S1C1634","sona":"39944","block":4,"time":"2021-09-18T13:01:22.093Z","response":"2nd","certainty":"high","char":"L","transposition":-2,"order":["swapped","shifted"],"probe_pitches":[13,11,13,5,11,7,3,7,8,1,13,1,12,6,7,5],"shifted_pitches":[13,11,13,5,11,7,3,7,9,1,13,1,12,6,7,5],"swapped_pitches":[13,11,13,5,11,7,3,8,7,1,13,1,12,6,7,5],"shift_direction":1,"question_num":41,"has_decoy":false},{"rt":81.59999996423721,"stimulus":"[A] option 1, [L] option 2, [G] neither","key_press":71,"name":"choice","trial_type":"html-keyboard-response","trial_index":65,"time_elapsed":140417,"internal_node_id":"0.0-65.0","subject":"S1C1634","sona":"39944","block":4,"time":"2021-09-18T13:01:22.093Z","response":"neither","certainty":"high","char":"G","transposition":3,"order":["swapped","shifted"],"probe_pitches":[13,8,5,1,5,13,10,5,3,13,8,10,3,5,3,10],"shifted_pitches":[13,8,5,1,5,13,10,5,2,13,8,10,3,5,3,10],"swapped_pitches":[13,8,5,1,5,13,10,3,5,13,8,10,3,5,3,10],"shift_direction":-1,"question_num":51,"has_decoy":false},{"rt":1738,"stimulus":"[A] option 1, [L] option 2, [G] neither","key_press":76,"name":"choice","trial_type":"html-keyboard-response","trial_index":76,"time_elapsed":164279,"internal_node_id":"0.0-76.0","subject":"S1C1634","sona":"39944","block":4,"time":"2021-09-18T13:01:22.093Z","response":"2nd","certainty":"high","char":"L","transposition":1,"order":["shifted","swapped"],"probe_pitches":[3,8,1,8,1,11,1,13,3,1,11,3,6,11,8,1],"shifted_pitches":[3,8,1,8,1,11,1,13,4,1,11,3,6,11,8,1],"swapped_pitches":[3,8,1,8,1,11,1,3,13,1,11,3,6,11,8,1],"shift_direction":1,"question_num":61,"has_decoy":false},{"rt":2381.800000011921,"stimulus":"[A] option 1, [L] option 2, [G] neither","key_press":71,"name":"choice","trial_type":"html-keyboard-response","trial_index":87,"time_elapsed":188773,"internal_node_id":"0.0-87.0","subject":"S1C1634","sona":"39944","block":4,"time":"2021-09-18T13:01:22.093Z","response":"neither","certainty":"high","char":"G","transposition":-1,"order":["swapped","shifted"],"probe_pitches":[7,6,7,6,4,5,6,8,12,5,4,1,3,7,5,12],"shifted_pitches":[7,6,7,6,4,5,6,8,11,5,4,1,3,7,5,12],"swapped_pitches":[7,6,7,6,4,5,6,12,8,5,4,1,3,7,5,12],"shift_direction":-1,"question_num":71,"has_decoy":false},{"rt":170.30000001192093,"stimulus":"[A] option 1, [L] option 2, [G] neither","key_press":65,"name":"choice","trial_type":"html-keyboard-response","trial_index":98,"time_elapsed":210992,"internal_node_id":"0.0-98.0","subject":"S1C1634","sona":"39944","block":4,"time":"2021-09-18T13:01:22.093Z","response":"1st","certainty":"high","char":"A","transposition":1,"order":["swapped","shifted"],"probe_pitches":[8,11,6,1,10,11,7,11,9,3,11,6,8,5,1,8],"shifted_pitches":[8,11,6,1,10,11,7,12,9,3,11,6,8,5,1,8],"swapped_pitches":[8,11,6,1,10,11,7,9,11,3,11,6,8,5,1,8],"shift_direction":1,"question_num":81,"has_decoy":false},{"rt":164.69999998807907,"stimulus":"[A] option 1, [L] option 2, [G] neither","key_press":76,"name":"choice","trial_type":"html-keyboard-response","trial_index":109,"time_elapsed":233248,"internal_node_id":"0.0-109.0","subject":"S1C1634","sona":"39944","block":4,"time":"2021-09-18T13:01:22.093Z","response":"2nd","certainty":"high","char":"L","transposition":0,"order":["swapped","shifted"],"probe_pitches":[1,4,11,4,13,9,6,4,11,13,9,6,13,4,1,9],"shifted_pitches":[1,4,11,4,13,9,6,4,10,13,9,6,13,4,1,9],"swapped_pitches":[1,4,11,4,13,9,6,11,4,13,9,6,13,4,1,9],"shift_direction":-1,"question_num":91,"has_decoy":false},{"rt":523.1999999880791,"stimulus":"[A] option 1, [L] option 2, [G] neither","key_press":65,"name":"choice","trial_type":"html-keyboard-response","trial_index":120,"time_elapsed":255811,"internal_node_id":"0.0-120.0","subject":"S1C1634","sona":"39944","block":4,"time":"2021-09-18T13:01:22.093Z","response":"1st","certainty":"high","char":"A","transposition":2,"order":["shifted","swapped"],"probe_pitches":[1,6,7,6,9,13,4,9,2,1,11,3,5,13,9,6],"shifted_pitches":[1,6,7,6,9,13,4,10,2,1,11,3,5,13,9,6],"swapped_pitches":[1,6,7,6,9,13,4,2,9,1,11,3,5,13,9,6],"shift_direction":1,"question_num":101,"has_decoy":false},{"rt":924.4000000357628,"stimulus":"[A] option 1, [L] option 2, [G] neither","key_press":76,"name":"choice","trial_type":"html-keyboard-response","trial_index":131,"time_elapsed":279764,"internal_node_id":"0.0-131.0","subject":"S1C1634","sona":"39944","block":4,"time":"2021-09-18T13:01:22.093Z","response":"2nd","certainty":"high","char":"L","transposition":-2,"order":["swapped","shifted"],"probe_pitches":[7,6,7,3,10,9,2,10,9,4,6,3,13,12,2,7],"shifted_pitches":[7,6,7,3,10,9,2,10,8,4,6,3,13,12,2,7],"swapped_pitches":[7,6,7,3,10,9,2,9,10,4,6,3,13,12,2,7],"shift_direction":-1,"question_num":111,"has_decoy":false},{"rt":147.5,"stimulus":"[A] option 1, [L] option 2, [G] neither","key_press":76,"name":"choice","trial_type":"html-keyboard-response","trial_index":142,"time_elapsed":301965,"internal_node_id":"0.0-142.0","subject":"S1C1634","sona":"39944","block":4,"time":"2021-09-18T13:01:22.093Z","response":"2nd","certainty":"high","char":"L","transposition":-3,"order":["swapped","shifted"],"probe_pitches":[9,13,10,12,7,8,12,3,5,6,3,7,5,1,10,11],"shifted_pitches":[9,13,10,12,7,8,12,4,5,6,3,7,5,1,10,11],"swapped_pitches":[9,13,10,12,7,8,12,5,3,6,3,7,5,1,10,11],"shift_direction":1,"question_num":121,"has_decoy":false},{"rt":11738,"stimulus":"[A] option 1, [L] option 2, [G] neither","key_press":71,"name":"choice","trial_type":"html-keyboard-response","trial_index":153,"time_elapsed":335747,"internal_node_id":"0.0-153.0","subject":"S1C1634","sona":"39944","block":4,"time":"2021-09-18T13:01:22.093Z","response":"neither","certainty":"high","char":"G","transposition":-3,"order":["shifted","swapped"],"probe_pitches":[8,6,4,1,4,6,11,8,4,6,4,11,13,4,1,6],"shifted_pitches":[8,6,4,1,4,6,11,7,4,6,4,11,13,4,1,6],"swapped_pitches":[8,6,4,1,4,6,11,4,8,6,4,11,13,4,1,6],"shift_direction":-1,"question_num":131,"has_decoy":false},{"rt":418.30000001192093,"stimulus":"[A] option 1, [L] option 2, [G] neither","key_press":76,"name":"choice","trial_type":"html-keyboard-response","trial_index":164,"time_elapsed":358348,"internal_node_id":"0.0-164.0","subject":"S1C1634","sona":"39944","block":4,"time":"2021-09-18T13:01:22.093Z","response":"2nd","certainty":"high","char":"L","transposition":0,"order":["shifted","swapped"],"probe_pitches":[10,6,7,5,6,10,13,4,2,11,13,5,10,13,10,11],"shifted_pitches":[10,6,7,5,6,10,13,4,3,11,13,5,10,13,10,11],"swapped_pitches":[10,6,7,5,6,10,13,2,4,11,13,5,10,13,10,11],"shift_direction":1,"question_num":141,"has_decoy":false},{"rt":1.9000000357627869,"stimulus":"[A] option 1, [L] option 2, [G] neither","key_press":76,"name":"choice","trial_type":"html-keyboard-response","trial_index":175,"time_elapsed":380373,"internal_node_id":"0.0-175.0","subject":"S1C1634","sona":"39944","block":4,"time":"2021-09-18T13:01:22.093Z","response":"2nd","certainty":"high","char":"L","transposition":-1,"order":["swapped","shifted"],"probe_pitches":[8,4,8,4,6,8,4,13,8,11,6,13,4,8,13,6],"shifted_pitches":[8,4,8,4,6,8,4,14,8,11,6,13,4,8,13,6],"swapped_pitches":[8,4,8,4,6,8,4,8,13,11,6,13,4,8,13,6],"shift_direction":1,"question_num":151,"has_decoy":false},{"rt":308.39999997615814,"stimulus":"[A] option 1, [L] option 2, [G] neither","key_press":76,"name":"choice","trial_type":"html-keyboard-response","trial_index":186,"time_elapsed":402761,"internal_node_id":"0.0-186.0","subject":"S1C1634","sona":"39944","block":4,"time":"2021-09-18T13:01:22.093Z","response":"2nd","certainty":"high","char":"L","transposition":-1,"order":["shifted","swapped"],"probe_pitches":[5,9,12,10,12,11,2,7,8,11,7,12,10,2,13,3],"shifted_pitches":[5,9,12,10,12,11,2,6,8,11,7,12,10,2,13,3],"swapped_pitches":[5,9,12,10,12,11,2,8,7,11,7,12,10,2,13,3],"shift_direction":-1,"question_num":161,"has_decoy":false},{"rt":145.9000000357628,"stimulus":"[A] option 1, [L] option 2, [G] neither","key_press":76,"name":"choice","trial_type":"html-keyboard-response","trial_index":197,"time_elapsed":424954,"internal_node_id":"0.0-197.0","subject":"S1C1634","sona":"39944","block":4,"time":"2021-09-18T13:01:22.093Z","response":"2nd","certainty":"high","char":"L","transposition":2,"order":["swapped","shifted"],"probe_pitches":[11,6,11,4,9,13,9,6,13,1,9,11,6,13,11,1],"shifted_pitches":[11,6,11,4,9,13,9,5,13,1,9,11,6,13,11,1],"swapped_pitches":[11,6,11,4,9,13,9,13,6,1,9,11,6,13,11,1],"shift_direction":-1,"question_num":171,"has_decoy":false},{"rt":499.19999998807907,"stimulus":"[A] option 1, [L] option 2, [G] neither","key_press":71,"name":"choice","trial_type":"html-keyboard-response","trial_index":208,"time_elapsed":449003,"internal_node_id":"0.0-208.0","subject":"S1C1634","sona":"39944","block":4,"time":"2021-09-18T13:01:22.093Z","response":"neither","certainty":"high","char":"G","transposition":3,"order":["shifted","swapped"],"probe_pitches":[9,8,4,12,11,13,3,2,6,1,8,11,2,8,1,13],"shifted_pitches":[9,8,4,12,11,13,3,2,5,1,8,11,2,8,1,13],"swapped_pitches":[9,8,4,12,11,13,3,6,2,1,8,11,2,8,1,13],"shift_direction":-1,"question_num":181,"has_decoy":false},{"rt":346.5999999642372,"stimulus":"[A] option 1, [L] option 2, [G] neither","key_press":76,"name":"choice","trial_type":"html-keyboard-response","trial_index":219,"time_elapsed":471548,"internal_node_id":"0.0-219.0","subject":"S1C1634","sona":"39944","block":4,"time":"2021-09-18T13:01:22.093Z","response":"2nd","certainty":"high","char":"L","transposition":-2,"order":["swapped","shifted"],"probe_pitches":[6,1,8,6,3,6,3,10,13,1,13,8,10,13,3,13],"shifted_pitches":[6,1,8,6,3,6,3,10,12,1,13,8,10,13,3,13],"swapped_pitches":[6,1,8,6,3,6,3,13,10,1,13,8,10,13,3,13],"shift_direction":-1,"question_num":191,"has_decoy":false}]