[{"rt":473,"stimulus":"[A] option 1, [L] option 2, [G] neither","key_press":76,"name":"choice","trial_type":"html-keyboard-response","trial_index":10,"time_elapsed":24601,"internal_node_id":"0.0-10.0","subject":"S1C1634","sona":"39944","block":5,"time":"2021-09-18T13:09:11.055Z","response":"2nd","certainty":"high","char":"L","transposition":0,"order":["swapped","shifted"],"probe_pitches":[12,15,11,9,6,15,6,11,4,8,3,6,8,6,3,5],"shifted_pitches":[12,15,11,9,6,15,6,10,4,8,3,6,8,6,3,5],"swapped_pitches":[12,15,11,9,6,15,6,4,11,8,3,6,8,6,3,5],"shift_direction":-1,"question_num":1,"has_decoy":false},{"rt":1151.199999988079,"stimulus":"[A] option 1, [L] option 2, [G] neither","key_press":71,"name":"choice","trial_type":"html-keyboard-response","trial_index":21,"time_elapsed":47950,"internal_node_id":"0.0-21.0","subject":"S1C1634","sona":"39944","block":5,"time":"2021-09-18T13:09:11.055Z","response":"neither","certainty":"high","char":"G","transposition":3,"order":["swapped","shifted"],"probe_pitches":[2,6,2,-1,6,4,6,-1,2,4,2,-1,6,-1,-3,-1],"shifted_pitches":[2,6,2,-1,6,4,6,0,2,4,2,-1,6,-1,-3,-1],"swapped_pitches":[2,6,2,-1,6,4,6,2,-1,4,2,-1,6,-1,-3,-1],"shift_direction":1,"question_num":11,"has_decoy":false},{"rt":175.30000001192093,"stimulus":"[A] option 1, [L] option 2, [G] neither","key_press":71,"name":"choice","trial_type":"html-keyboard-response","trial_index":32,"time_elapsed":70209,"internal_node_id":"0.0-32.0","subject":"S1C1634","sona":"39944","block":5,"time":"2021-09-18T13:09:11.055Z","response":"neither","certainty":"high","char":"G","transposition":-1,"order":["swapped","shifted"],"probe_pitches":[12,15,11,10,14,15,12,11,6,15,6,4,11,10,3,10],"shifted_pitches":[12,15,11,10,14,15,12,11,7,15,6,4,11,10,3,10],"swapped_pitches":[12,15,11,10,14,15,12,6,11,15,6,4,11,10,3,10],"shift_direction":1,"question_num":21,"has_decoy":false},{"rt":372,"stimulus":"[A] option 1, [L] option 2, [G] neither","key_press":71,"name":"choice","trial_type":"html-keyboard-response","trial_index":43,"time_elapsed":92744,"internal_node_id":"0.0-43.0","subject":"S1C1634","sona":"39944","block":5,"time":"2021-09-18T13:09:11.055Z","response":"neither","certainty":"high","char":"G","transposition":-1,"order":["swapped","shifted"],"probe_pitches":[7,4,2,9,4,7,-3,-1,2,9,-1,2,-3,4,9,-3],"shifted_pitches":[7,4,2,9,4,7,-3,-1,3,9,-1,2,-3,4,9,-3],"swapped_pitches":[7,4,2,9,4,7,-3,2,-1,9,-1,2,-3,4,9,-3],"shift_direction":1,"question_num":31,"has_decoy":false},{"rt":674.1999999880791,"stimulus":"[A] option 1, [L] option 2, [G] neither","key_press":71,"name":"choice","trial_type":"html-keyboard-response","trial_index":54,"time_elapsed":115541,"internal_node_id":"0.0-54.0","subject":"S1C1634","sona":"39944","block":5,"time":"2021-09-18T13:09:11.055Z","response":"neither","certainty":"high","char":"G","transposition":-1,"order":["swapped","shifted"],"probe_pitches":[4,9,10,13,11,13,8,3,9,12,8,10,6,9,15,11],"shifted_pitches":[4,9,10,13,11,13,8,2,9,12,8,10,6,9,15,11],"swapped_pitches":[4,9,10,13,11,13,8,9,3,12,8,10,6,9,15,11],"shift_direction":-1,"question_num":41,"has_decoy":false},{"rt":780.1000000238419,"stimulus":"[A] option 1, [L] option 2, [G] neither","key_press":71,"name":"choice","trial_type":"html-keyboard-response","trial_index":65,"time_elapsed":138421,"internal_node_id":"0.0-65.0","subject":"S1C1634","sona":"39944","block":5,"time":"2021-09-18T13:09:11.055Z","response":"neither","certainty":"high","char":"G","transposition":-3,"order":["swapped","shifted"],"probe_pitches":[4,9,10,8,4,10,9,5,7,14,11,3,8,3,15,12],"shifted_pitches":[4,9,10,8,4,10,9,5,6,14,11,3,8,3,15,12],"swapped_pitches":[4,9,10,8,4,10,9,7,5,14,11,3,8,3,15,12],"shift_direction":-1,"question_num":51,"has_decoy":false},{"rt":274.5999999642372,"stimulus":"[A] option 1, [L] option 2, [G] neither","key_press":65,"name":"choice","trial_type":"html-keyboard-response","trial_index":76,"time_elapsed":160775,"internal_node_id":"0.0-76.0","subject":"S1C1634","sona":"39944","block":5,"time":"2021-09-18T13:09:11.055Z","response":"1st","certainty":"high","char":"A","transposition":3,"order":["shifted","swapped"],"probe_pitches":[4,6,9,12,9,5,8,12,3,14,3,14,5,11,10,7],"shifted_pitches":[4,6,9,12,9,5,8,13,3,14,3,14,5,11,10,7],"swapped_pitches":[4,6,9,12,9,5,8,3,12,14,3,14,5,11,10,7],"shift_direction":1,"question_num":61,"has_decoy":false},{"rt":2381.5,"stimulus":"[A] option 1, [L] option 2, [G] neither","key_press":76,"name":"choice","trial_type":"html-keyboard-response","trial_index":87,"time_elapsed":185208,"internal_node_id":"0.0-87.0","subject":"S1C1634","sona":"39944","block":5,"time":"2021-09-18T13:09:11.055Z","response":"2nd","certainty":"high","char":"L","transposition":-3,"order":["shifted","swapped"],"probe_pitches":[12,9,15,11,7,13,6,9,7,5,10,4,3,5,10,13],"shifted_pitches":[12,9,15,11,7,13,6,9,8,5,10,4,3,5,10,13],"swapped_pitches":[12,9,15,11,7,13,6,7,9,5,10,4,3,5,10,13],"shift_direction":1,"question_num":71,"has_decoy":false},{"rt":141.5999999642372,"stimulus":"[A] option 1, [L] option 2, [G] neither","key_press":76,"name":"choice","trial_type":"html-keyboard-response","trial_index":98,"time_elapsed":207407,"internal_node_id":"0.0-98.0","subject":"S1C1634","sona":"39944","block":5,"time":"2021-09-18T13:09:11.055Z","response":"2nd","certainty":"high","char":"L","transposition":-2,"order":["swapped","shifted"],"probe_pitches":[4,9,7,9,0,2,0,-3,9,7,-3,9,4,2,0,-3],"shifted_pitches":[4,9,7,9,0,2,0,-3,8,7,-3,9,4,2,0,-3],"swapped_pitches":[4,9,7,9,0,2,0,9,-3,7,-3,9,4,2,0,-3],"shift_direction":-1,"question_num":81,"has_decoy":false},{"rt":4395.800000011921,"stimulus":"[A] option 1, [L] option 2, [G] neither","key_press":71,"name":"choice","trial_type":"html-keyboard-response","trial_index":109,"time_elapsed":233849,"internal_node_id":"0.0-109.0","subject":"S1C1634","sona":"39944","block":5,"time":"2021-09-18T13:09:11.055Z","response":"neither","certainty":"high","char":"G","transposition":1,"order":["shifted","swapped"],"probe_pitches":[4,9,13,15,10,4,9,11,14,15,11,9,8,11,14,6],"shifted_pitches":[4,9,13,15,10,4,9,12,14,15,11,9,8,11,14,6],"swapped_pitches":[4,9,13,15,10,4,9,14,11,15,11,9,8,11,14,6],"shift_direction":1,"question_num":91,"has_decoy":false},{"rt":2321.800000011921,"stimulus":"[A] option 1, [L] option 2, [G] neither","key_press":76,"name":"choice","trial_type":"html-keyboard-response","trial_index":120,"time_elapsed":258317,"internal_node_id":"0.0-120.0","subject":"S1C1634","sona":"39944","block":5,"time":"2021-09-18T13:09:11.055Z","response":"2nd","certainty":"high","char":"L","transposition":0,"order":["swapped","shifted"],"probe_pitches":[-1,-3,4,1,-1,1,-3,6,9,1,-3,6,9,6,-3,6],"shifted_pitches":[-1,-3,4,1,-1,1,-3,6,8,1,-3,6,9,6,-3,6],"swapped_pitches":[-1,-3,4,1,-1,1,-3,9,6,1,-3,6,9,6,-3,6],"shift_direction":-1,"question_num":101,"has_decoy":false},{"rt":1666,"stimulus":"[A] option 1, [L] option 2, [G] neither","key_press":65,"name":"choice","trial_type":"html-keyboard-response","trial_index":131,"time_elapsed":282071,"internal_node_id":"0.0-131.0","subject":"S1C1634","sona":"39944","block":5,"time":"2021-09-18T13:09:11.055Z","response":"1st","certainty":"high","char":"A","transposition":-1,"order":["shifted","swapped"],"probe_pitches":[7,4,9,7,9,0,9,4,2,7,4,0,9,-3,9,7],"shifted_pitches":[7,4,9,7,9,0,9,3,2,7,4,0,9,-3,9,7],"swapped_pitches":[7,4,9,7,9,0,9,2,4,7,4,0,9,-3,9,7],"shift_direction":-1,"question_num":111,"has_decoy":false},{"rt":107.5,"stimulus":"[A] option 1, [L] option 2, [G] neither","key_press":65,"name":"choice","trial_type":"html-keyboard-response","trial_index":142,"time_elapsed":304254,"internal_node_id":"0.0-142.0","subject":"S1C1634","sona":"39944","block":5,"time":"2021-09-18T13:09:11.055Z","response":"1st","certainty":"high","char":"A","transposition":-2,"order":["shifted","swapped"],"probe_pitches":[7,9,7,-1,7,-3,2,9,4,-1,9,4,2,4,-1,-3],"shifted_pitches":[7,9,7,-1,7,-3,2,9,5,-1,9,4,2,4,-1,-3],"swapped_pitches":[7,9,7,-1,7,-3,2,4,9,-1,9,4,2,4,-1,-3],"shift_direction":1,"question_num":121,"has_decoy":false},{"rt":1833.800000011921,"stimulus":"[A] option 1, [L] option 2, [G] neither","key_press":71,"name":"choice","trial_type":"html-keyboard-response","trial_index":153,"time_elapsed":328217,"internal_node_id":"0.0-153.0","subject":"S1C1634","sona":"39944","block":5,"time":"2021-09-18T13:09:11.055Z","response":"neither","certainty":"high","char":"G","transposition":2,"order":["swapped","shifted"],"probe_pitches":[6,2,-1,6,-3,4,2,9,-3,6,-1,9,-3,9,-1,4],"shifted_pitches":[6,2,-1,6,-3,4,2,8,-3,6,-1,9,-3,9,-1,4],"swapped_pitches":[6,2,-1,6,-3,4,2,-3,9,6,-1,9,-3,9,-1,4],"shift_direction":-1,"question_num":131,"has_decoy":false},{"rt":3.699999988079071,"stimulus":"[A] option 1, [L] option 2, [G] neither","key_press":65,"name":"choice","trial_type":"html-keyboard-response","trial_index":164,"time_elapsed":350480,"internal_node_id":"0.0-164.0","subject":"S1C1634","sona":"39944","block":5,"time":"2021-09-18T13:09:11.055Z","response":"1st","certainty":"high","char":"A","transposition":2,"order":["shifted","swapped"],"probe_pitches":[11,10,6,12,14,7,8,10,4,15,7,15,6,15,11,3],"shifted_pitches":[11,10,6,12,14,7,8,10,5,15,7,15,6,15,11,3],"swapped_pitches":[11,10,6,12,14,7,8,4,10,15,7,15,6,15,11,3],"shift_direction":1,"question_num":141,"has_decoy":false},{"rt":10.699999988079071,"stimulus":"[A] option 1, [L] option 2, [G] neither","key_press":76,"name":"choice","trial_type":"html-keyboard-response","trial_index":175,"time_elapsed":372510,"internal_node_id":"0.0-175.0","subject":"S1C1634","sona":"39944","block":5,"time":"2021-09-18T13:09:11.055Z","response":"2nd","certainty":"high","char":"L","transposition":-3,"order":["shifted","swapped"],"probe_pitches":[5,9,2,0,9,0,5,0,9,-3,2,-3,5,7,5,0],"shifted_pitches":[5,9,2,0,9,0,5,1,9,-3,2,-3,5,7,5,0],"swapped_pitches":[5,9,2,0,9,0,5,9,0,-3,2,-3,5,7,5,0],"shift_direction":1,"question_num":151,"has_decoy":false},{"rt":2206.699999988079,"stimulus":"[A] option 1, [L] option 2, [G] neither","key_press":76,"name":"choice","trial_type":"html-keyboard-response","trial_index":186,"time_elapsed":396780,"internal_node_id":"0.0-186.0","subject":"S1C1634","sona":"39944","block":5,"time":"2021-09-18T13:09:11.055Z","response":"2nd","certainty":"high","char":"L","transposition":-2,"order":["swapped","shifted"],"probe_pitches":[9,10,9,8,13,15,8,14,12,3,9,15,6,14,6,5],"shifted_pitches":[9,10,9,8,13,15,8,14,11,3,9,15,6,14,6,5],"swapped_pitches":[9,10,9,8,13,15,8,12,14,3,9,15,6,14,6,5],"shift_direction":-1,"question_num":161,"has_decoy":false},{"rt":285.19999998807907,"stimulus":"[A] option 1, [L] option 2, [G] neither","key_press":71,"name":"choice","trial_type":"html-keyboard-response","trial_index":197,"time_elapsed":419152,"internal_node_id":"0.0-197.0","subject":"S1C1634","sona":"39944","block":5,"time":"2021-09-18T13:09:11.055Z","response":"neither","certainty":"high","char":"G","transposition":1,"order":["shifted","swapped"],"probe_pitches":[7,5,0,5,-3,5,9,5,2,9,2,9,7,0,2,5],"shifted_pitches":[7,5,0,5,-3,5,9,6,2,9,2,9,7,0,2,5],"swapped_pitches":[7,5,0,5,-3,5,9,2,5,9,2,9,7,0,2,5],"shift_direction":1,"question_num":171,"has_decoy":false},{"rt":1274.800000011921,"stimulus":"[A] option 1, [L] option 2, [G] neither","key_press":71,"name":"choice","trial_type":"html-keyboard-response","trial_index":208,"time_elapsed":442473,"internal_node_id":"0.0-208.0","subject":"S1C1634","sona":"39944","block":5,"time":"2021-09-18T13:09:11.055Z","response":"neither","certainty":"high","char":"G","transposition":-2,"order":["shifted","swapped"],"probe_pitches":[13,15,8,10,6,15,13,10,5,14,6,10,13,15,13,7],"shifted_pitches":[13,15,8,10,6,15,13,9,5,14,6,10,13,15,13,7],"swapped_pitches":[13,15,8,10,6,15,13,5,10,14,6,10,13,15,13,7],"shift_direction":-1,"question_num":181,"has_decoy":false},{"rt":79.30000001192093,"stimulus":"[A] option 1, [L] option 2, [G] neither","key_press":65,"name":"choice","trial_type":"html-keyboard-response","trial_index":219,"time_elapsed":464591,"internal_node_id":"0.0-219.0","subject":"S1C1634","sona":"39944","block":5,"time":"2021-09-18T13:09:11.055Z","response":"1st","certainty":"high","char":"A","transposition":-3,"order":["shifted","swapped"],"probe_pitches":[-1,4,9,6,4,6,1,9,-3,1,-1,1,6,1,9,6],"shifted_pitches":[-1,4,9,6,4,6,1,9,-4,1,-1,1,6,1,9,6],"swapped_pitches":[-1,4,9,6,4,6,1,-3,9,1,-1,1,6,1,9,6],"shift_direction":-1,"question_num":191,"has_decoy":false}]