[{"rt":6252.400000035763,"stimulus":"[A] option 1, [L] option 2, [G] neither","key_press":65,"name":"choice","trial_type":"html-keyboard-response","trial_index":15,"time_elapsed":103054,"internal_node_id":"0.0-15.0","response":"1st","certainty":"high","char":"A","transposition":1,"order":["shifted","swapped"],"probe_pitches":[10,5,0,7,-2,0,10,-2,2,7,0,7,2,-2,0,2],"shifted_pitches":[10,5,0,7,-2,0,10,-1,2,7,0,7,2,-2,0,2],"swapped_pitches":[10,5,0,7,-2,0,10,2,-2,7,0,7,2,-2,0,2],"shift_direction":1,"question_num":1,"has_decoy":false,"subject":"S1C1634","sona":"39944","block":1,"time":"2021-09-18T12:35:49.345Z"},{"rt":2966.900000035763,"stimulus":"[A] option 1, [L] option 2, [G] neither","key_press":76,"name":"choice","trial_type":"html-keyboard-response","trial_index":26,"time_elapsed":132549,"internal_node_id":"0.0-26.0","response":"2nd","certainty":"high","char":"L","transposition":-2,"order":["shifted","swapped"],"probe_pitches":[12,10,15,13,15,8,6,13,10,4,6,8,3,4,13,15],"shifted_pitches":[12,10,15,13,15,8,6,13,9,4,6,8,3,4,13,15],"swapped_pitches":[12,10,15,13,15,8,6,10,13,4,6,8,3,4,13,15],"shift_direction":-1,"question_num":11,"has_decoy":false,"subject":"S1C1634","sona":"39944","block":1,"time":"2021-09-18T12:35:49.345Z"},{"rt":3746.5,"stimulus":"[A] option 1, [L] option 2, [G] neither","key_press":71,"name":"choice","trial_type":"html-keyboard-response","trial_index":37,"time_elapsed":159711,"internal_node_id":"0.0-37.0","response":"neither","certainty":"high","char":"G","transposition":-3,"order":["shifted","swapped"],"probe_pitches":[4,7,13,14,12,7,10,5,11,14,7,9,7,9,13,14],"shifted_pitches":[4,7,13,14,12,7,10,6,11,14,7,9,7,9,13,14],"swapped_pitches":[4,7,13,14,12,7,10,11,5,14,7,9,7,9,13,14],"shift_direction":1,"question_num":21,"has_decoy":false,"subject":"S1C1634","sona":"39944","block":1,"time":"2021-09-18T12:35:49.345Z"},{"rt":2395.399999976158,"stimulus":"[A] option 1, [L] option 2, [G] neither","key_press":76,"name":"choice","trial_type":"html-keyboard-response","trial_index":48,"time_elapsed":185342,"internal_node_id":"0.0-48.0","response":"2nd","certainty":"high","char":"L","transposition":-1,"order":["swapped","shifted"],"probe_pitches":[13,10,11,12,11,13,11,13,8,9,12,13,3,11,4,8],"shifted_pitches":[13,10,11,12,11,13,11,13,7,9,12,13,3,11,4,8],"swapped_pitches":[13,10,11,12,11,13,11,8,13,9,12,13,3,11,4,8],"shift_direction":-1,"question_num":31,"has_decoy":false,"subject":"S1C1634","sona":"39944","block":1,"time":"2021-09-18T12:35:49.345Z"},{"rt":1316,"stimulus":"[A] option 1, [L] option 2, [G] neither","key_press":71,"name":"choice","trial_type":"html-keyboard-response","trial_index":59,"time_elapsed":210218,"internal_node_id":"0.0-59.0","response":"neither","certainty":"high","char":"G","transposition":2,"order":["shifted","swapped"],"probe_pitches":[8,3,5,3,7,3,13,14,10,6,7,8,4,8,4,10],"shifted_pitches":[8,3,5,3,7,3,13,14,11,6,7,8,4,8,4,10],"swapped_pitches":[8,3,5,3,7,3,13,10,14,6,7,8,4,8,4,10],"shift_direction":1,"question_num":41,"has_decoy":false,"subject":"S1C1634","sona":"39944","block":1,"time":"2021-09-18T12:35:49.345Z"},{"rt":793.9000000357628,"stimulus":"[A] option 1, [L] option 2, [G] neither","key_press":76,"name":"choice","trial_type":"html-keyboard-response","trial_index":70,"time_elapsed":234380,"internal_node_id":"0.0-70.0","response":"2nd","certainty":"high","char":"L","transposition":-2,"order":["swapped","shifted"],"probe_pitches":[5,8,10,3,5,8,3,-2,10,8,5,-2,1,8,-2,8],"shifted_pitches":[5,8,10,3,5,8,3,-2,11,8,5,-2,1,8,-2,8],"swapped_pitches":[5,8,10,3,5,8,3,10,-2,8,5,-2,1,8,-2,8],"shift_direction":1,"question_num":51,"has_decoy":false,"subject":"S1C1634","sona":"39944","block":1,"time":"2021-09-18T12:35:49.345Z"},{"rt":6025.699999988079,"stimulus":"[A] option 1, [L] option 2, [G] neither","key_press":76,"name":"choice","trial_type":"html-keyboard-response","trial_index":81,"time_elapsed":263266,"internal_node_id":"0.0-81.0","response":"2nd","certainty":"high","char":"L","transposition":-1,"order":["shifted","swapped"],"probe_pitches":[-2,0,3,-2,3,8,-2,10,8,3,-2,5,8,-2,3,10],"shifted_pitches":[-2,0,3,-2,3,8,-2,9,8,3,-2,5,8,-2,3,10],"swapped_pitches":[-2,0,3,-2,3,8,-2,8,10,3,-2,5,8,-2,3,10],"shift_direction":-1,"question_num":61,"has_decoy":false,"subject":"S1C1634","sona":"39944","block":1,"time":"2021-09-18T12:35:49.345Z"},{"rt":3684.099999964237,"stimulus":"[A] option 1, [L] option 2, [G] neither","key_press":76,"name":"choice","trial_type":"html-keyboard-response","trial_index":92,"time_elapsed":290350,"internal_node_id":"0.0-92.0","response":"2nd","certainty":"high","char":"L","transposition":-1,"order":["swapped","shifted"],"probe_pitches":[3,9,13,15,12,9,8,9,15,11,15,13,7,5,15,8],"shifted_pitches":[3,9,13,15,12,9,8,10,15,11,15,13,7,5,15,8],"swapped_pitches":[3,9,13,15,12,9,8,15,9,11,15,13,7,5,15,8],"shift_direction":1,"question_num":71,"has_decoy":false,"subject":"S1C1634","sona":"39944","block":1,"time":"2021-09-18T12:35:49.345Z"},{"rt":1244.6000000238419,"stimulus":"[A] option 1, [L] option 2, [G] neither","key_press":76,"name":"choice","trial_type":"html-keyboard-response","trial_index":103,"time_elapsed":314399,"internal_node_id":"0.0-103.0","response":"2nd","certainty":"high","char":"L","transposition":-3,"order":["swapped","shifted"],"probe_pitches":[0,-2,0,3,5,-2,3,-2,5,0,8,5,0,3,8,-2],"shifted_pitches":[0,-2,0,3,5,-2,3,-2,4,0,8,5,0,3,8,-2],"swapped_pitches":[0,-2,0,3,5,-2,3,5,-2,0,8,5,0,3,8,-2],"shift_direction":-1,"question_num":81,"has_decoy":false,"subject":"S1C1634","sona":"39944","block":1,"time":"2021-09-18T12:35:49.345Z"},{"rt":908.1000000238419,"stimulus":"[A] option 1, [L] option 2, [G] neither","key_press":65,"name":"choice","trial_type":"html-keyboard-response","trial_index":114,"time_elapsed":337811,"internal_node_id":"0.0-114.0","response":"1st","certainty":"high","char":"A","transposition":0,"order":["shifted","swapped"],"probe_pitches":[1,-2,3,6,1,3,8,3,-2,6,-2,6,8,3,8,1],"shifted_pitches":[1,-2,3,6,1,3,8,3,-3,6,-2,6,8,3,8,1],"swapped_pitches":[1,-2,3,6,1,3,8,-2,3,6,-2,6,8,3,8,1],"shift_direction":-1,"question_num":91,"has_decoy":false,"subject":"S1C1634","sona":"39944","block":1,"time":"2021-09-18T12:35:49.345Z"},{"rt":5837.200000047684,"stimulus":"[A] option 1, [L] option 2, [G] neither","key_press":65,"name":"choice","trial_type":"html-keyboard-response","trial_index":125,"time_elapsed":367554,"internal_node_id":"0.0-125.0","response":"1st","certainty":"high","char":"A","transposition":-2,"order":["swapped","shifted"],"probe_pitches":[8,3,-2,3,10,3,-2,3,10,1,-2,10,5,10,3,10],"shifted_pitches":[8,3,-2,3,10,3,-2,4,10,1,-2,10,5,10,3,10],"swapped_pitches":[8,3,-2,3,10,3,-2,10,3,1,-2,10,5,10,3,10],"shift_direction":1,"question_num":101,"has_decoy":false,"subject":"S1C1634","sona":"39944","block":1,"time":"2021-09-18T12:35:49.345Z"},{"rt":4008.7000000476837,"stimulus":"[A] option 1, [L] option 2, [G] neither","key_press":76,"name":"choice","trial_type":"html-keyboard-response","trial_index":136,"time_elapsed":395177,"internal_node_id":"0.0-136.0","response":"2nd","certainty":"high","char":"L","transposition":0,"order":["shifted","swapped"],"probe_pitches":[13,7,10,6,13,3,11,13,9,5,7,5,15,13,10,3],"shifted_pitches":[13,7,10,6,13,3,11,13,8,5,7,5,15,13,10,3],"swapped_pitches":[13,7,10,6,13,3,11,9,13,5,7,5,15,13,10,3],"shift_direction":-1,"question_num":111,"has_decoy":false,"subject":"S1C1634","sona":"39944","block":1,"time":"2021-09-18T12:35:49.345Z"},{"rt":1220,"stimulus":"[A] option 1, [L] option 2, [G] neither","key_press":65,"name":"choice","trial_type":"html-keyboard-response","trial_index":147,"time_elapsed":419330,"internal_node_id":"0.0-147.0","response":"1st","certainty":"high","char":"A","transposition":2,"order":["shifted","swapped"],"probe_pitches":[7,3,7,5,-2,0,3,0,-2,7,-2,5,3,0,10,5],"shifted_pitches":[7,3,7,5,-2,0,3,0,-3,7,-2,5,3,0,10,5],"swapped_pitches":[7,3,7,5,-2,0,3,-2,0,7,-2,5,3,0,10,5],"shift_direction":-1,"question_num":121,"has_decoy":false,"subject":"S1C1634","sona":"39944","block":1,"time":"2021-09-18T12:35:49.345Z"},{"rt":2075.399999976158,"stimulus":"[A] option 1, [L] option 2, [G] neither","key_press":76,"name":"choice","trial_type":"html-keyboard-response","trial_index":158,"time_elapsed":444445,"internal_node_id":"0.0-158.0","response":"2nd","certainty":"high","char":"L","transposition":-3,"order":["swapped","shifted"],"probe_pitches":[6,10,5,12,14,6,7,14,4,6,10,9,4,14,10,9],"shifted_pitches":[6,10,5,12,14,6,7,13,4,6,10,9,4,14,10,9],"swapped_pitches":[6,10,5,12,14,6,7,4,14,6,10,9,4,14,10,9],"shift_direction":-1,"question_num":131,"has_decoy":false,"subject":"S1C1634","sona":"39944","block":1,"time":"2021-09-18T12:35:49.345Z"},{"rt":1073.3999999761581,"stimulus":"[A] option 1, [L] option 2, [G] neither","key_press":65,"name":"choice","trial_type":"html-keyboard-response","trial_index":169,"time_elapsed":469002,"internal_node_id":"0.0-169.0","response":"1st","certainty":"high","char":"A","transposition":-1,"order":["shifted","swapped"],"probe_pitches":[10,5,-2,5,7,-2,5,7,0,10,2,7,-2,5,-2,2],"shifted_pitches":[10,5,-2,5,7,-2,5,7,1,10,2,7,-2,5,-2,2],"swapped_pitches":[10,5,-2,5,7,-2,5,0,7,10,2,7,-2,5,-2,2],"shift_direction":1,"question_num":141,"has_decoy":false,"subject":"S1C1634","sona":"39944","block":1,"time":"2021-09-18T12:35:49.345Z"},{"rt":6781.600000023842,"stimulus":"[A] option 1, [L] option 2, [G] neither","key_press":71,"name":"choice","trial_type":"html-keyboard-response","trial_index":180,"time_elapsed":499620,"internal_node_id":"0.0-180.0","response":"neither","certainty":"high","char":"G","transposition":-2,"order":["shifted","swapped"],"probe_pitches":[15,13,15,8,13,15,4,11,9,4,5,10,3,10,6,11],"shifted_pitches":[15,13,15,8,13,15,4,12,9,4,5,10,3,10,6,11],"swapped_pitches":[15,13,15,8,13,15,4,9,11,4,5,10,3,10,6,11],"shift_direction":1,"question_num":151,"has_decoy":false,"subject":"S1C1634","sona":"39944","block":1,"time":"2021-09-18T12:35:49.345Z"},{"rt":1768.199999988079,"stimulus":"[A] option 1, [L] option 2, [G] neither","key_press":71,"name":"choice","trial_type":"html-keyboard-response","trial_index":191,"time_elapsed":523899,"internal_node_id":"0.0-191.0","response":"neither","certainty":"high","char":"G","transposition":-3,"order":["swapped","shifted"],"probe_pitches":[3,-2,0,-2,0,5,10,7,3,5,7,0,7,5,10,7],"shifted_pitches":[3,-2,0,-2,0,5,10,6,3,5,7,0,7,5,10,7],"swapped_pitches":[3,-2,0,-2,0,5,10,3,7,5,7,0,7,5,10,7],"shift_direction":-1,"question_num":161,"has_decoy":false,"subject":"S1C1634","sona":"39944","block":1,"time":"2021-09-18T12:35:49.345Z"},{"rt":2030.5,"stimulus":"[A] option 1, [L] option 2, [G] neither","key_press":76,"name":"choice","trial_type":"html-keyboard-response","trial_index":202,"time_elapsed":549535,"internal_node_id":"0.0-202.0","response":"2nd","certainty":"high","char":"L","transposition":1,"order":["swapped","shifted"],"probe_pitches":[12,15,9,14,8,13,12,10,6,13,8,7,8,12,11,6],"shifted_pitches":[12,15,9,14,8,13,12,10,5,13,8,7,8,12,11,6],"swapped_pitches":[12,15,9,14,8,13,12,6,10,13,8,7,8,12,11,6],"shift_direction":-1,"question_num":171,"has_decoy":false,"subject":"S1C1634","sona":"39944","block":1,"time":"2021-09-18T12:35:49.345Z"},{"rt":700.0999999642372,"stimulus":"[A] option 1, [L] option 2, [G] neither","key_press":76,"name":"choice","trial_type":"html-keyboard-response","trial_index":213,"time_elapsed":573457,"internal_node_id":"0.0-213.0","response":"2nd","certainty":"high","char":"L","transposition":3,"order":["swapped","shifted"],"probe_pitches":[8,6,12,9,8,3,4,13,9,4,13,4,7,12,7,4],"shifted_pitches":[8,6,12,9,8,3,4,14,9,4,13,4,7,12,7,4],"swapped_pitches":[8,6,12,9,8,3,4,9,13,4,13,4,7,12,7,4],"shift_direction":1,"question_num":181,"has_decoy":false,"subject":"S1C1634","sona":"39944","block":1,"time":"2021-09-18T12:35:49.345Z"},{"rt":374.80000001192093,"stimulus":"[A] option 1, [L] option 2, [G] neither","key_press":76,"name":"choice","trial_type":"html-keyboard-response","trial_index":224,"time_elapsed":597072,"internal_node_id":"0.0-224.0","response":"2nd","certainty":"high","char":"L","transposition":3,"order":["swapped","shifted"],"probe_pitches":[-2,1,8,1,3,8,10,-2,3,8,-2,10,3,1,10,6],"shifted_pitches":[-2,1,8,1,3,8,10,-1,3,8,-2,10,3,1,10,6],"swapped_pitches":[-2,1,8,1,3,8,10,3,-2,8,-2,10,3,1,10,6],"shift_direction":1,"question_num":191,"has_decoy":false,"subject":"S1C1634","sona":"39944","block":1,"time":"2021-09-18T12:35:49.345Z"}]