[{"rt":615.0999999940395,"stimulus":"[A] option 1, [L] option 2, [G] neither","key_press":65,"name":"choice","trial_type":"html-keyboard-response","trial_index":10,"time_elapsed":15795,"internal_node_id":"0.0-10.0","response":"1st","certainty":"high","char":"A","transposition":-1,"order":["swapped","shifted"],"probe_pitches":[9,10,9,1,4,7,11,9],"shifted_pitches":[9,10,9,1,5,7,11,9],"swapped_pitches":[9,10,9,4,1,7,11,9],"shift_direction":1,"question_num":1,"has_decoy":false,"subject":"S1C0801","sona":"debug","block":6,"time":"2021-07-22T10:44:59.281Z"},{"rt":1695.199999988079,"stimulus":"[A] option 1, [L] option 2, [G] neither","key_press":76,"name":"choice","trial_type":"html-keyboard-response","trial_index":21,"time_elapsed":32523,"internal_node_id":"0.0-21.0","response":"2nd","certainty":"high","char":"L","transposition":1,"order":["swapped","shifted"],"probe_pitches":[8,10,3,10,6,1,-2,1],"shifted_pitches":[8,10,3,9,6,1,-2,1],"swapped_pitches":[8,10,3,6,10,1,-2,1],"shift_direction":-1,"question_num":11,"has_decoy":false,"subject":"S1C0801","sona":"debug","block":6,"time":"2021-07-22T10:44:59.281Z"},{"rt":428.09999999403954,"stimulus":"[A] option 1, [L] option 2, [G] neither","key_press":65,"name":"choice","trial_type":"html-keyboard-response","trial_index":32,"time_elapsed":48127,"internal_node_id":"0.0-32.0","response":"1st","certainty":"high","char":"A","transposition":3,"order":["swapped","shifted"],"probe_pitches":[7,10,7,5,0,3,0,3],"shifted_pitches":[7,10,7,4,0,3,0,3],"swapped_pitches":[7,10,7,0,5,3,0,3],"shift_direction":-1,"question_num":21,"has_decoy":false,"subject":"S1C0801","sona":"debug","block":6,"time":"2021-07-22T10:44:59.281Z"},{"rt":2553.9000000059605,"stimulus":"[A] option 1, [L] option 2, [G] neither","key_press":65,"name":"choice","trial_type":"html-keyboard-response","trial_index":43,"time_elapsed":65452,"internal_node_id":"0.0-43.0","response":"1st","certainty":"high","char":"A","transposition":-3,"order":["shifted","swapped"],"probe_pitches":[5,7,0,-2,3,0,-2,7],"shifted_pitches":[5,7,0,-2,4,0,-2,7],"swapped_pitches":[5,7,0,3,-2,0,-2,7],"shift_direction":1,"question_num":31,"has_decoy":false,"subject":"S1C0801","sona":"debug","block":6,"time":"2021-07-22T10:44:59.281Z"},{"rt":356.7999999821186,"stimulus":"[A] option 1, [L] option 2, [G] neither","key_press":76,"name":"choice","trial_type":"html-keyboard-response","trial_index":54,"time_elapsed":80293,"internal_node_id":"0.0-54.0","response":"2nd","certainty":"high","char":"L","transposition":-1,"order":["shifted","swapped"],"probe_pitches":[1,3,-2,5,3,1,8,3],"shifted_pitches":[1,3,-2,4,3,1,8,3],"swapped_pitches":[1,3,-2,3,5,1,8,3],"shift_direction":-1,"question_num":41,"has_decoy":false,"subject":"S1C0801","sona":"debug","block":6,"time":"2021-07-22T10:44:59.281Z"},{"rt":2089.600000023842,"stimulus":"[A] option 1, [L] option 2, [G] neither","key_press":65,"name":"choice","trial_type":"html-keyboard-response","trial_index":65,"time_elapsed":96838,"internal_node_id":"0.0-65.0","response":"1st","certainty":"high","char":"A","transposition":2,"order":["shifted","swapped"],"probe_pitches":[4,9,4,-1,1,8,0,7],"shifted_pitches":[4,9,4,-1,2,8,0,7],"swapped_pitches":[4,9,4,1,-1,8,0,7],"shift_direction":1,"question_num":51,"has_decoy":false,"subject":"S1C0801","sona":"debug","block":6,"time":"2021-07-22T10:44:59.281Z"},{"rt":2546.7000000178814,"stimulus":"[A] option 1, [L] option 2, [G] neither","key_press":76,"name":"choice","trial_type":"html-keyboard-response","trial_index":76,"time_elapsed":113974,"internal_node_id":"0.0-76.0","response":"2nd","certainty":"high","char":"L","transposition":0,"order":["swapped","shifted"],"probe_pitches":[0,5,7,2,-2,0,-2,7],"shifted_pitches":[0,5,7,2,-1,0,-2,7],"swapped_pitches":[0,5,7,-2,2,0,-2,7],"shift_direction":1,"question_num":61,"has_decoy":false,"subject":"S1C0801","sona":"debug","block":6,"time":"2021-07-22T10:44:59.281Z"},{"rt":416.5,"stimulus":"[A] option 1, [L] option 2, [G] neither","key_press":76,"name":"choice","trial_type":"html-keyboard-response","trial_index":87,"time_elapsed":128763,"internal_node_id":"0.0-87.0","response":"2nd","certainty":"high","char":"L","transposition":-2,"order":["shifted","swapped"],"probe_pitches":[0,1,7,0,9,4,9,8],"shifted_pitches":[0,1,7,0,10,4,9,8],"swapped_pitches":[0,1,7,9,0,4,9,8],"shift_direction":1,"question_num":71,"has_decoy":false,"subject":"S1C0801","sona":"debug","block":6,"time":"2021-07-22T10:44:59.281Z"},{"rt":1935.9000000059605,"stimulus":"[A] option 1, [L] option 2, [G] neither","key_press":76,"name":"choice","trial_type":"html-keyboard-response","trial_index":98,"time_elapsed":145253,"internal_node_id":"0.0-98.0","response":"2nd","certainty":"high","char":"L","transposition":-1,"order":["shifted","swapped"],"probe_pitches":[1,-2,1,-2,6,10,8,3],"shifted_pitches":[1,-2,1,-2,7,10,8,3],"swapped_pitches":[1,-2,1,6,-2,10,8,3],"shift_direction":1,"question_num":81,"has_decoy":false,"subject":"S1C0801","sona":"debug","block":6,"time":"2021-07-22T10:44:59.281Z"},{"rt":310.19999998807907,"stimulus":"[A] option 1, [L] option 2, [G] neither","key_press":65,"name":"choice","trial_type":"html-keyboard-response","trial_index":109,"time_elapsed":159997,"internal_node_id":"0.0-109.0","response":"1st","certainty":"high","char":"A","transposition":-2,"order":["swapped","shifted"],"probe_pitches":[5,9,3,7,2,1,4,3],"shifted_pitches":[5,9,3,6,2,1,4,3],"swapped_pitches":[5,9,3,2,7,1,4,3],"shift_direction":-1,"question_num":91,"has_decoy":false,"subject":"S1C0801","sona":"debug","block":6,"time":"2021-07-22T10:44:59.281Z"},{"rt":385.09999999403954,"stimulus":"[A] option 1, [L] option 2, [G] neither","key_press":76,"name":"choice","trial_type":"html-keyboard-response","trial_index":120,"time_elapsed":174692,"internal_node_id":"0.0-120.0","response":"2nd","certainty":"high","char":"L","transposition":3,"order":["shifted","swapped"],"probe_pitches":[7,9,7,4,9,2,11,1],"shifted_pitches":[7,9,7,3,9,2,11,1],"swapped_pitches":[7,9,7,9,4,2,11,1],"shift_direction":-1,"question_num":101,"has_decoy":false,"subject":"S1C0801","sona":"debug","block":6,"time":"2021-07-22T10:44:59.281Z"},{"rt":823.5,"stimulus":"[A] option 1, [L] option 2, [G] neither","key_press":76,"name":"choice","trial_type":"html-keyboard-response","trial_index":131,"time_elapsed":189829,"internal_node_id":"0.0-131.0","response":"2nd","certainty":"high","char":"L","transposition":-1,"order":["swapped","shifted"],"probe_pitches":[2,5,-1,2,4,7,-1,0],"shifted_pitches":[2,5,-1,1,4,7,-1,0],"swapped_pitches":[2,5,-1,4,2,7,-1,0],"shift_direction":-1,"question_num":111,"has_decoy":false,"subject":"S1C0801","sona":"debug","block":6,"time":"2021-07-22T10:44:59.281Z"},{"rt":417.09999999403954,"stimulus":"[A] option 1, [L] option 2, [G] neither","key_press":65,"name":"choice","trial_type":"html-keyboard-response","trial_index":142,"time_elapsed":204532,"internal_node_id":"0.0-142.0","response":"1st","certainty":"high","char":"A","transposition":1,"order":["swapped","shifted"],"probe_pitches":[2,0,6,11,7,1,5,10],"shifted_pitches":[2,0,6,11,8,1,5,10],"swapped_pitches":[2,0,6,7,11,1,5,10],"shift_direction":1,"question_num":121,"has_decoy":false,"subject":"S1C0801","sona":"debug","block":6,"time":"2021-07-22T10:44:59.281Z"},{"rt":537.9000000059605,"stimulus":"[A] option 1, [L] option 2, [G] neither","key_press":76,"name":"choice","trial_type":"html-keyboard-response","trial_index":153,"time_elapsed":219493,"internal_node_id":"0.0-153.0","response":"2nd","certainty":"high","char":"L","transposition":-2,"order":["swapped","shifted"],"probe_pitches":[5,8,5,3,0,8,-2,8],"shifted_pitches":[5,8,5,2,0,8,-2,8],"swapped_pitches":[5,8,5,0,3,8,-2,8],"shift_direction":-1,"question_num":131,"has_decoy":false,"subject":"S1C0801","sona":"debug","block":6,"time":"2021-07-22T10:44:59.281Z"},{"rt":492.7999999821186,"stimulus":"[A] option 1, [L] option 2, [G] neither","key_press":76,"name":"choice","trial_type":"html-keyboard-response","trial_index":164,"time_elapsed":234509,"internal_node_id":"0.0-164.0","response":"2nd","certainty":"high","char":"L","transposition":-3,"order":["shifted","swapped"],"probe_pitches":[10,8,5,-2,1,5,10,3],"shifted_pitches":[10,8,5,-2,2,5,10,3],"swapped_pitches":[10,8,5,1,-2,5,10,3],"shift_direction":1,"question_num":141,"has_decoy":false,"subject":"S1C0801","sona":"debug","block":6,"time":"2021-07-22T10:44:59.281Z"},{"rt":565.3000000119209,"stimulus":"[A] option 1, [L] option 2, [G] neither","key_press":76,"name":"choice","trial_type":"html-keyboard-response","trial_index":175,"time_elapsed":249461,"internal_node_id":"0.0-175.0","response":"2nd","certainty":"high","char":"L","transposition":-3,"order":["shifted","swapped"],"probe_pitches":[4,-1,6,10,1,6,8,4],"shifted_pitches":[4,-1,6,9,1,6,8,4],"swapped_pitches":[4,-1,6,1,10,6,8,4],"shift_direction":-1,"question_num":151,"has_decoy":false,"subject":"S1C0801","sona":"debug","block":6,"time":"2021-07-22T10:44:59.281Z"},{"rt":11151.199999988079,"stimulus":"[A] option 1, [L] option 2, [G] neither","key_press":76,"name":"choice","trial_type":"html-keyboard-response","trial_index":186,"time_elapsed":275147,"internal_node_id":"0.0-186.0","response":"2nd","certainty":"high","char":"L","transposition":-2,"order":["shifted","swapped"],"probe_pitches":[10,7,10,5,0,7,5,2],"shifted_pitches":[10,7,10,6,0,7,5,2],"swapped_pitches":[10,7,10,0,5,7,5,2],"shift_direction":1,"question_num":161,"has_decoy":false,"subject":"S1C0801","sona":"debug","block":6,"time":"2021-07-22T10:44:59.281Z"},{"rt":577.1999999880791,"stimulus":"[A] option 1, [L] option 2, [G] neither","key_press":76,"name":"choice","trial_type":"html-keyboard-response","trial_index":197,"time_elapsed":290173,"internal_node_id":"0.0-197.0","response":"2nd","certainty":"high","char":"L","transposition":2,"order":["swapped","shifted"],"probe_pitches":[10,8,3,5,10,3,10,0],"shifted_pitches":[10,8,3,5,9,3,10,0],"swapped_pitches":[10,8,3,10,5,3,10,0],"shift_direction":-1,"question_num":171,"has_decoy":false,"subject":"S1C0801","sona":"debug","block":6,"time":"2021-07-22T10:44:59.281Z"},{"rt":402.19999998807907,"stimulus":"[A] option 1, [L] option 2, [G] neither","key_press":65,"name":"choice","trial_type":"html-keyboard-response","trial_index":208,"time_elapsed":305228,"internal_node_id":"0.0-208.0","response":"1st","certainty":"high","char":"A","transposition":0,"order":["swapped","shifted"],"probe_pitches":[5,-1,4,1,8,10,5,1],"shifted_pitches":[5,-1,4,1,7,10,5,1],"swapped_pitches":[5,-1,4,8,1,10,5,1],"shift_direction":-1,"question_num":181,"has_decoy":false,"subject":"S1C0801","sona":"debug","block":6,"time":"2021-07-22T10:44:59.281Z"},{"rt":572.8999999761581,"stimulus":"[A] option 1, [L] option 2, [G] neither","key_press":76,"name":"choice","trial_type":"html-keyboard-response","trial_index":219,"time_elapsed":320627,"internal_node_id":"0.0-219.0","response":"2nd","certainty":"high","char":"L","transposition":-3,"order":["shifted","swapped"],"probe_pitches":[6,1,6,3,10,6,5,11],"shifted_pitches":[6,1,6,4,10,6,5,11],"swapped_pitches":[6,1,6,10,3,6,5,11],"shift_direction":1,"question_num":191,"has_decoy":false,"subject":"S1C0801","sona":"debug","block":6,"time":"2021-07-22T10:44:59.281Z"}]