[{"rt":15082.59999999404,"stimulus":"[A] option 1, [L] option 2, [G] neither","key_press":76,"name":"choice","trial_type":"html-keyboard-response","trial_index":15,"time_elapsed":180277,"internal_node_id":"0.0-15.0","response":"2nd","certainty":"high","char":"L","transposition":0,"order":["shifted","swapped"],"probe_pitches":[2,8,2,-1,3,11,0,5,7,0,5,7,0,9,10,-1],"shifted_pitches":[2,8,2,-1,3,11,0,5,6,0,5,7,0,9,10,-1],"swapped_pitches":[2,8,2,-1,3,11,0,7,5,0,5,7,0,9,10,-1],"shift_direction":-1,"question_num":1,"has_decoy":false,"subject":"S1C1600","sona":"41326","block":1,"time":"2021-09-05T06:09:06.927Z"},{"rt":2713.699999988079,"stimulus":"[A] option 1, [L] option 2, [G] neither","key_press":76,"name":"choice","trial_type":"html-keyboard-response","trial_index":26,"time_elapsed":207718,"internal_node_id":"0.0-26.0","response":"2nd","certainty":"high","char":"L","transposition":3,"order":["swapped","shifted"],"probe_pitches":[0,5,6,0,3,5,11,-1,8,0,6,4,10,3,5,7],"shifted_pitches":[0,5,6,0,3,5,11,-1,9,0,6,4,10,3,5,7],"swapped_pitches":[0,5,6,0,3,5,11,8,-1,0,6,4,10,3,5,7],"shift_direction":1,"question_num":11,"has_decoy":false,"subject":"S1C1600","sona":"41326","block":1,"time":"2021-09-05T06:09:06.927Z"},{"rt":1893.5,"stimulus":"[A] option 1, [L] option 2, [G] neither","key_press":65,"name":"choice","trial_type":"html-keyboard-response","trial_index":37,"time_elapsed":236128,"internal_node_id":"0.0-37.0","response":"1st","certainty":"high","char":"A","transposition":-2,"order":["shifted","swapped"],"probe_pitches":[7,9,4,7,2,0,4,0,7,2,-3,0,7,0,-3,0],"shifted_pitches":[7,9,4,7,2,0,4,1,7,2,-3,0,7,0,-3,0],"swapped_pitches":[7,9,4,7,2,0,4,7,0,2,-3,0,7,0,-3,0],"shift_direction":1,"question_num":21,"has_decoy":false,"subject":"S1C1600","sona":"41326","block":1,"time":"2021-09-05T06:09:06.927Z"},{"rt":1544.300000011921,"stimulus":"[A] option 1, [L] option 2, [G] neither","key_press":65,"name":"choice","trial_type":"html-keyboard-response","trial_index":48,"time_elapsed":261764,"internal_node_id":"0.0-48.0","response":"1st","certainty":"high","char":"A","transposition":-1,"order":["swapped","shifted"],"probe_pitches":[2,4,-1,2,-1,7,-3,4,7,-3,9,4,7,4,9,-1],"shifted_pitches":[2,4,-1,2,-1,7,-3,4,6,-3,9,4,7,4,9,-1],"swapped_pitches":[2,4,-1,2,-1,7,-3,7,4,-3,9,4,7,4,9,-1],"shift_direction":-1,"question_num":31,"has_decoy":false,"subject":"S1C1600","sona":"41326","block":1,"time":"2021-09-05T06:09:06.927Z"},{"rt":1454.5,"stimulus":"[A] option 1, [L] option 2, [G] neither","key_press":76,"name":"choice","trial_type":"html-keyboard-response","trial_index":59,"time_elapsed":287005,"internal_node_id":"0.0-59.0","response":"2nd","certainty":"high","char":"L","transposition":-2,"order":["shifted","swapped"],"probe_pitches":[10,8,1,7,9,-1,9,3,11,6,-1,5,7,-1,10,7],"shifted_pitches":[10,8,1,7,9,-1,9,4,11,6,-1,5,7,-1,10,7],"swapped_pitches":[10,8,1,7,9,-1,9,11,3,6,-1,5,7,-1,10,7],"shift_direction":1,"question_num":41,"has_decoy":false,"subject":"S1C1600","sona":"41326","block":1,"time":"2021-09-05T06:09:06.927Z"},{"rt":1641.7999999821186,"stimulus":"[A] option 1, [L] option 2, [G] neither","key_press":76,"name":"choice","trial_type":"html-keyboard-response","trial_index":70,"time_elapsed":312394,"internal_node_id":"0.0-70.0","response":"2nd","certainty":"high","char":"L","transposition":-1,"order":["swapped","shifted"],"probe_pitches":[1,0,1,2,9,4,2,9,1,8,1,3,6,0,-1,9],"shifted_pitches":[1,0,1,2,9,4,2,10,1,8,1,3,6,0,-1,9],"swapped_pitches":[1,0,1,2,9,4,2,1,9,8,1,3,6,0,-1,9],"shift_direction":1,"question_num":51,"has_decoy":false,"subject":"S1C1600","sona":"41326","block":1,"time":"2021-09-05T06:09:06.927Z"},{"rt":1546.5,"stimulus":"[A] option 1, [L] option 2, [G] neither","key_press":76,"name":"choice","trial_type":"html-keyboard-response","trial_index":81,"time_elapsed":337704,"internal_node_id":"0.0-81.0","response":"2nd","certainty":"high","char":"L","transposition":-3,"order":["swapped","shifted"],"probe_pitches":[9,11,5,7,1,10,7,10,4,1,0,11,9,5,2,11],"shifted_pitches":[9,11,5,7,1,10,7,10,3,1,0,11,9,5,2,11],"swapped_pitches":[9,11,5,7,1,10,7,4,10,1,0,11,9,5,2,11],"shift_direction":-1,"question_num":61,"has_decoy":false,"subject":"S1C1600","sona":"41326","block":1,"time":"2021-09-05T06:09:06.927Z"},{"rt":3637.0999999940395,"stimulus":"[A] option 1, [L] option 2, [G] neither","key_press":76,"name":"choice","trial_type":"html-keyboard-response","trial_index":92,"time_elapsed":365507,"internal_node_id":"0.0-92.0","response":"2nd","certainty":"high","char":"L","transposition":0,"order":["swapped","shifted"],"probe_pitches":[4,2,7,2,7,9,0,2,9,-3,7,-3,4,0,7,9],"shifted_pitches":[4,2,7,2,7,9,0,1,9,-3,7,-3,4,0,7,9],"swapped_pitches":[4,2,7,2,7,9,0,9,2,-3,7,-3,4,0,7,9],"shift_direction":-1,"question_num":71,"has_decoy":false,"subject":"S1C1600","sona":"41326","block":1,"time":"2021-09-05T06:09:06.927Z"},{"rt":1427.300000011921,"stimulus":"[A] option 1, [L] option 2, [G] neither","key_press":65,"name":"choice","trial_type":"html-keyboard-response","trial_index":103,"time_elapsed":390288,"internal_node_id":"0.0-103.0","response":"1st","certainty":"high","char":"A","transposition":-3,"order":["swapped","shifted"],"probe_pitches":[2,6,-1,6,2,-1,4,6,-1,4,-3,6,2,9,4,9],"shifted_pitches":[2,6,-1,6,2,-1,4,6,0,4,-3,6,2,9,4,9],"swapped_pitches":[2,6,-1,6,2,-1,4,-1,6,4,-3,6,2,9,4,9],"shift_direction":1,"question_num":81,"has_decoy":false,"subject":"S1C1600","sona":"41326","block":1,"time":"2021-09-05T06:09:06.927Z"},{"rt":7197.300000011921,"stimulus":"[A] option 1, [L] option 2, [G] neither","key_press":71,"name":"choice","trial_type":"html-keyboard-response","trial_index":114,"time_elapsed":424488,"internal_node_id":"0.0-114.0","response":"neither","certainty":"high","char":"G","transposition":1,"order":["shifted","swapped"],"probe_pitches":[5,0,6,5,6,11,4,0,10,4,9,4,3,-1,8,-1],"shifted_pitches":[5,0,6,5,6,11,4,1,10,4,9,4,3,-1,8,-1],"swapped_pitches":[5,0,6,5,6,11,4,10,0,4,9,4,3,-1,8,-1],"shift_direction":1,"question_num":91,"has_decoy":false,"subject":"S1C1600","sona":"41326","block":1,"time":"2021-09-05T06:09:06.927Z"},{"rt":1589.7999999821186,"stimulus":"[A] option 1, [L] option 2, [G] neither","key_press":65,"name":"choice","trial_type":"html-keyboard-response","trial_index":125,"time_elapsed":450508,"internal_node_id":"0.0-125.0","response":"1st","certainty":"high","char":"A","transposition":-1,"order":["shifted","swapped"],"probe_pitches":[9,4,6,9,2,4,-3,-1,4,6,4,-3,-1,4,6,2],"shifted_pitches":[9,4,6,9,2,4,-3,-2,4,6,4,-3,-1,4,6,2],"swapped_pitches":[9,4,6,9,2,4,-3,4,-1,6,4,-3,-1,4,6,2],"shift_direction":-1,"question_num":101,"has_decoy":false,"subject":"S1C1600","sona":"41326","block":1,"time":"2021-09-05T06:09:06.927Z"},{"rt":448.40000000596046,"stimulus":"[A] option 1, [L] option 2, [G] neither","key_press":76,"name":"choice","trial_type":"html-keyboard-response","trial_index":136,"time_elapsed":475288,"internal_node_id":"0.0-136.0","response":"2nd","certainty":"high","char":"L","transposition":3,"order":["shifted","swapped"],"probe_pitches":[2,0,5,9,5,-3,5,9,7,-3,0,9,5,-3,0,9],"shifted_pitches":[2,0,5,9,5,-3,5,8,7,-3,0,9,5,-3,0,9],"swapped_pitches":[2,0,5,9,5,-3,5,7,9,-3,0,9,5,-3,0,9],"shift_direction":-1,"question_num":111,"has_decoy":false,"subject":"S1C1600","sona":"41326","block":1,"time":"2021-09-05T06:09:06.927Z"},{"rt":1309.300000011921,"stimulus":"[A] option 1, [L] option 2, [G] neither","key_press":65,"name":"choice","trial_type":"html-keyboard-response","trial_index":147,"time_elapsed":498948,"internal_node_id":"0.0-147.0","response":"1st","certainty":"high","char":"A","transposition":-1,"order":["swapped","shifted"],"probe_pitches":[1,6,1,9,8,10,0,6,8,1,5,2,11,9,2,8],"shifted_pitches":[1,6,1,9,8,10,0,6,7,1,5,2,11,9,2,8],"swapped_pitches":[1,6,1,9,8,10,0,8,6,1,5,2,11,9,2,8],"shift_direction":-1,"question_num":121,"has_decoy":false,"subject":"S1C1600","sona":"41326","block":1,"time":"2021-09-05T06:09:06.927Z"},{"rt":309.10000002384186,"stimulus":"[A] option 1, [L] option 2, [G] neither","key_press":76,"name":"choice","trial_type":"html-keyboard-response","trial_index":158,"time_elapsed":522888,"internal_node_id":"0.0-158.0","response":"2nd","certainty":"high","char":"L","transposition":2,"order":["shifted","swapped"],"probe_pitches":[10,8,11,7,0,1,0,6,2,1,10,7,4,8,7,6],"shifted_pitches":[10,8,11,7,0,1,0,5,2,1,10,7,4,8,7,6],"swapped_pitches":[10,8,11,7,0,1,0,2,6,1,10,7,4,8,7,6],"shift_direction":-1,"question_num":131,"has_decoy":false,"subject":"S1C1600","sona":"41326","block":1,"time":"2021-09-05T06:09:06.927Z"},{"rt":8629.700000017881,"stimulus":"[A] option 1, [L] option 2, [G] neither","key_press":65,"name":"choice","trial_type":"html-keyboard-response","trial_index":169,"time_elapsed":554968,"internal_node_id":"0.0-169.0","response":"1st","certainty":"high","char":"A","transposition":-3,"order":["swapped","shifted"],"probe_pitches":[9,10,7,1,9,11,6,10,7,0,11,1,4,-1,3,10],"shifted_pitches":[9,10,7,1,9,11,6,10,8,0,11,1,4,-1,3,10],"swapped_pitches":[9,10,7,1,9,11,6,7,10,0,11,1,4,-1,3,10],"shift_direction":1,"question_num":141,"has_decoy":false,"subject":"S1C1600","sona":"41326","block":1,"time":"2021-09-05T06:09:06.927Z"},{"rt":349.5,"stimulus":"[A] option 1, [L] option 2, [G] neither","key_press":71,"name":"choice","trial_type":"html-keyboard-response","trial_index":180,"time_elapsed":579347,"internal_node_id":"0.0-180.0","response":"neither","certainty":"high","char":"G","transposition":2,"order":["swapped","shifted"],"probe_pitches":[-3,2,-3,-1,7,4,2,7,-1,4,-3,2,4,9,-3,7],"shifted_pitches":[-3,2,-3,-1,7,4,2,7,0,4,-3,2,4,9,-3,7],"swapped_pitches":[-3,2,-3,-1,7,4,2,-1,7,4,-3,2,4,9,-3,7],"shift_direction":1,"question_num":151,"has_decoy":false,"subject":"S1C1600","sona":"41326","block":1,"time":"2021-09-05T06:09:06.927Z"},{"rt":320.30000001192093,"stimulus":"[A] option 1, [L] option 2, [G] neither","key_press":76,"name":"choice","trial_type":"html-keyboard-response","trial_index":191,"time_elapsed":606718,"internal_node_id":"0.0-191.0","response":"2nd","certainty":"high","char":"L","transposition":-2,"order":["shifted","swapped"],"probe_pitches":[7,11,7,3,8,7,4,3,1,9,7,9,5,0,3,-1],"shifted_pitches":[7,11,7,3,8,7,4,2,1,9,7,9,5,0,3,-1],"swapped_pitches":[7,11,7,3,8,7,4,1,3,9,7,9,5,0,3,-1],"shift_direction":-1,"question_num":161,"has_decoy":false,"subject":"S1C1600","sona":"41326","block":1,"time":"2021-09-05T06:09:06.927Z"},{"rt":1319.199999988079,"stimulus":"[A] option 1, [L] option 2, [G] neither","key_press":71,"name":"choice","trial_type":"html-keyboard-response","trial_index":202,"time_elapsed":631217,"internal_node_id":"0.0-202.0","response":"neither","certainty":"high","char":"G","transposition":-3,"order":["shifted","swapped"],"probe_pitches":[1,6,4,-3,4,1,-3,6,-1,-3,1,6,-3,1,9,-1],"shifted_pitches":[1,6,4,-3,4,1,-3,7,-1,-3,1,6,-3,1,9,-1],"swapped_pitches":[1,6,4,-3,4,1,-3,-1,6,-3,1,6,-3,1,9,-1],"shift_direction":1,"question_num":171,"has_decoy":false,"subject":"S1C1600","sona":"41326","block":1,"time":"2021-09-05T06:09:06.927Z"},{"rt":500.7000000178814,"stimulus":"[A] option 1, [L] option 2, [G] neither","key_press":76,"name":"choice","trial_type":"html-keyboard-response","trial_index":213,"time_elapsed":655578,"internal_node_id":"0.0-213.0","response":"2nd","certainty":"high","char":"L","transposition":1,"order":["swapped","shifted"],"probe_pitches":[9,4,9,1,4,6,-3,-1,1,9,-3,6,-1,1,6,-1],"shifted_pitches":[9,4,9,1,4,6,-3,-1,2,9,-3,6,-1,1,6,-1],"swapped_pitches":[9,4,9,1,4,6,-3,1,-1,9,-3,6,-1,1,6,-1],"shift_direction":1,"question_num":181,"has_decoy":false,"subject":"S1C1600","sona":"41326","block":1,"time":"2021-09-05T06:09:06.927Z"},{"rt":1081.800000011921,"stimulus":"[A] option 1, [L] option 2, [G] neither","key_press":76,"name":"choice","trial_type":"html-keyboard-response","trial_index":224,"time_elapsed":681099,"internal_node_id":"0.0-224.0","response":"2nd","certainty":"high","char":"L","transposition":-2,"order":["shifted","swapped"],"probe_pitches":[0,5,0,5,7,0,7,5,9,2,9,-3,0,9,7,9],"shifted_pitches":[0,5,0,5,7,0,7,5,8,2,9,-3,0,9,7,9],"swapped_pitches":[0,5,0,5,7,0,7,9,5,2,9,-3,0,9,7,9],"shift_direction":-1,"question_num":191,"has_decoy":false,"subject":"S1C1600","sona":"41326","block":1,"time":"2021-09-05T06:09:06.927Z"}]