[{"rt":3762.0999999940395,"stimulus":"[A] option 1, [L] option 2, [G] neither","key_press":65,"name":"choice","trial_type":"html-keyboard-response","trial_index":10,"time_elapsed":29795,"internal_node_id":"0.0-10.0","subject":"S1C1600","sona":"41326","block":3,"time":"2021-09-05T06:31:44.351Z","response":"1st","certainty":"high","char":"A","transposition":-3,"order":["shifted","swapped"],"probe_pitches":[7,5,2,9,12,2,0,7,9,0,5,0,5,7,2,7],"shifted_pitches":[7,5,2,9,12,2,0,7,10,0,5,0,5,7,2,7],"swapped_pitches":[7,5,2,9,12,2,0,9,7,0,5,0,5,7,2,7],"shift_direction":1,"question_num":1,"has_decoy":false},{"rt":7493.199999988079,"stimulus":"[A] option 1, [L] option 2, [G] neither","key_press":76,"name":"choice","trial_type":"html-keyboard-response","trial_index":21,"time_elapsed":60666,"internal_node_id":"0.0-21.0","subject":"S1C1600","sona":"41326","block":3,"time":"2021-09-05T06:31:44.351Z","response":"2nd","certainty":"high","char":"L","transposition":-2,"order":["shifted","swapped"],"probe_pitches":[9,11,4,2,10,2,3,7,5,11,12,5,12,0,10,0],"shifted_pitches":[9,11,4,2,10,2,3,6,5,11,12,5,12,0,10,0],"swapped_pitches":[9,11,4,2,10,2,3,5,7,11,12,5,12,0,10,0],"shift_direction":-1,"question_num":11,"has_decoy":false},{"rt":332.69999998807907,"stimulus":"[A] option 1, [L] option 2, [G] neither","key_press":76,"name":"choice","trial_type":"html-keyboard-response","trial_index":32,"time_elapsed":84365,"internal_node_id":"0.0-32.0","subject":"S1C1600","sona":"41326","block":3,"time":"2021-09-05T06:31:44.351Z","response":"2nd","certainty":"high","char":"L","transposition":0,"order":["swapped","shifted"],"probe_pitches":[2,3,5,12,3,2,4,11,10,2,10,3,0,5,1,2],"shifted_pitches":[2,3,5,12,3,2,4,11,9,2,10,3,0,5,1,2],"swapped_pitches":[2,3,5,12,3,2,4,10,11,2,10,3,0,5,1,2],"shift_direction":-1,"question_num":21,"has_decoy":false},{"rt":4333.699999988079,"stimulus":"[A] option 1, [L] option 2, [G] neither","key_press":71,"name":"choice","trial_type":"html-keyboard-response","trial_index":43,"time_elapsed":112577,"internal_node_id":"0.0-43.0","subject":"S1C1600","sona":"41326","block":3,"time":"2021-09-05T06:31:44.351Z","response":"neither","certainty":"high","char":"G","transposition":-1,"order":["swapped","shifted"],"probe_pitches":[2,7,2,4,0,7,4,0,9,4,0,4,7,12,0,4],"shifted_pitches":[2,7,2,4,0,7,4,1,9,4,0,4,7,12,0,4],"swapped_pitches":[2,7,2,4,0,7,4,9,0,4,0,4,7,12,0,4],"shift_direction":1,"question_num":31,"has_decoy":false},{"rt":463.39999997615814,"stimulus":"[A] option 1, [L] option 2, [G] neither","key_press":76,"name":"choice","trial_type":"html-keyboard-response","trial_index":54,"time_elapsed":137065,"internal_node_id":"0.0-54.0","subject":"S1C1600","sona":"41326","block":3,"time":"2021-09-05T06:31:44.351Z","response":"2nd","certainty":"high","char":"L","transposition":-1,"order":["swapped","shifted"],"probe_pitches":[8,10,8,4,3,8,12,1,3,4,9,11,0,8,11,4],"shifted_pitches":[8,10,8,4,3,8,12,2,3,4,9,11,0,8,11,4],"swapped_pitches":[8,10,8,4,3,8,12,3,1,4,9,11,0,8,11,4],"shift_direction":1,"question_num":41,"has_decoy":false},{"rt":3584.9000000059605,"stimulus":"[A] option 1, [L] option 2, [G] neither","key_press":76,"name":"choice","trial_type":"html-keyboard-response","trial_index":65,"time_elapsed":163507,"internal_node_id":"0.0-65.0","subject":"S1C1600","sona":"41326","block":3,"time":"2021-09-05T06:31:44.351Z","response":"2nd","certainty":"high","char":"L","transposition":-3,"order":["swapped","shifted"],"probe_pitches":[7,11,7,12,11,7,2,9,6,7,9,12,9,2,10,7],"shifted_pitches":[7,11,7,12,11,7,2,9,5,7,9,12,9,2,10,7],"swapped_pitches":[7,11,7,12,11,7,2,6,9,7,9,12,9,2,10,7],"shift_direction":-1,"question_num":51,"has_decoy":false},{"rt":2015.199999988079,"stimulus":"[A] option 1, [L] option 2, [G] neither","key_press":65,"name":"choice","trial_type":"html-keyboard-response","trial_index":76,"time_elapsed":187698,"internal_node_id":"0.0-76.0","subject":"S1C1600","sona":"41326","block":3,"time":"2021-09-05T06:31:44.351Z","response":"1st","certainty":"high","char":"A","transposition":2,"order":["shifted","swapped"],"probe_pitches":[7,5,9,5,9,0,2,0,7,12,0,7,5,9,12,7],"shifted_pitches":[7,5,9,5,9,0,2,-1,7,12,0,7,5,9,12,7],"swapped_pitches":[7,5,9,5,9,0,2,7,0,12,0,7,5,9,12,7],"shift_direction":-1,"question_num":61,"has_decoy":false},{"rt":14694,"stimulus":"[A] option 1, [L] option 2, [G] neither","key_press":71,"name":"choice","trial_type":"html-keyboard-response","trial_index":87,"time_elapsed":229147,"internal_node_id":"0.0-87.0","subject":"S1C1600","sona":"41326","block":3,"time":"2021-09-05T06:31:44.351Z","response":"neither","certainty":"high","char":"G","transposition":1,"order":["shifted","swapped"],"probe_pitches":[0,3,7,5,7,10,12,0,3,7,10,0,3,0,3,5],"shifted_pitches":[0,3,7,5,7,10,12,0,2,7,10,0,3,0,3,5],"swapped_pitches":[0,3,7,5,7,10,12,3,0,7,10,0,3,0,3,5],"shift_direction":-1,"question_num":71,"has_decoy":false},{"rt":4005.600000023842,"stimulus":"[A] option 1, [L] option 2, [G] neither","key_press":76,"name":"choice","trial_type":"html-keyboard-response","trial_index":98,"time_elapsed":255999,"internal_node_id":"0.0-98.0","subject":"S1C1600","sona":"41326","block":3,"time":"2021-09-05T06:31:44.351Z","response":"2nd","certainty":"high","char":"L","transposition":-2,"order":["shifted","swapped"],"probe_pitches":[5,10,8,2,4,11,3,8,10,2,3,11,0,10,11,8],"shifted_pitches":[5,10,8,2,4,11,3,7,10,2,3,11,0,10,11,8],"swapped_pitches":[5,10,8,2,4,11,3,10,8,2,3,11,0,10,11,8],"shift_direction":-1,"question_num":81,"has_decoy":false},{"rt":3284.5999999940395,"stimulus":"[A] option 1, [L] option 2, [G] neither","key_press":76,"name":"choice","trial_type":"html-keyboard-response","trial_index":109,"time_elapsed":284488,"internal_node_id":"0.0-109.0","subject":"S1C1600","sona":"41326","block":3,"time":"2021-09-05T06:31:44.351Z","response":"2nd","certainty":"high","char":"L","transposition":1,"order":["shifted","swapped"],"probe_pitches":[6,10,7,10,2,1,3,4,7,12,2,0,3,0,1,3],"shifted_pitches":[6,10,7,10,2,1,3,4,8,12,2,0,3,0,1,3],"swapped_pitches":[6,10,7,10,2,1,3,7,4,12,2,0,3,0,1,3],"shift_direction":1,"question_num":91,"has_decoy":false},{"rt":636.5,"stimulus":"[A] option 1, [L] option 2, [G] neither","key_press":65,"name":"choice","trial_type":"html-keyboard-response","trial_index":120,"time_elapsed":314189,"internal_node_id":"0.0-120.0","subject":"S1C1600","sona":"41326","block":3,"time":"2021-09-05T06:31:44.351Z","response":"1st","certainty":"high","char":"A","transposition":-1,"order":["swapped","shifted"],"probe_pitches":[7,8,10,8,1,8,6,11,2,9,12,11,9,6,5,9],"shifted_pitches":[7,8,10,8,1,8,6,11,3,9,12,11,9,6,5,9],"swapped_pitches":[7,8,10,8,1,8,6,2,11,9,12,11,9,6,5,9],"shift_direction":1,"question_num":101,"has_decoy":false},{"rt":1286.2000000178814,"stimulus":"[A] option 1, [L] option 2, [G] neither","key_press":65,"name":"choice","trial_type":"html-keyboard-response","trial_index":131,"time_elapsed":396386,"internal_node_id":"0.0-131.0","subject":"S1C1600","sona":"41326","block":3,"time":"2021-09-05T06:31:44.351Z","response":"1st","certainty":"high","char":"A","transposition":-3,"order":["shifted","swapped"],"probe_pitches":[8,6,5,0,8,6,3,0,5,2,7,0,2,0,3,11],"shifted_pitches":[8,6,5,0,8,6,3,0,4,2,7,0,2,0,3,11],"swapped_pitches":[8,6,5,0,8,6,3,5,0,2,7,0,2,0,3,11],"shift_direction":-1,"question_num":111,"has_decoy":false},{"rt":388.69999998807907,"stimulus":"[A] option 1, [L] option 2, [G] neither","key_press":65,"name":"choice","trial_type":"html-keyboard-response","trial_index":142,"time_elapsed":421418,"internal_node_id":"0.0-142.0","subject":"S1C1600","sona":"41326","block":3,"time":"2021-09-05T06:31:44.351Z","response":"1st","certainty":"high","char":"A","transposition":-3,"order":["shifted","swapped"],"probe_pitches":[9,12,7,2,4,0,2,12,9,7,0,2,12,0,9,4],"shifted_pitches":[9,12,7,2,4,0,2,12,8,7,0,2,12,0,9,4],"swapped_pitches":[9,12,7,2,4,0,2,9,12,7,0,2,12,0,9,4],"shift_direction":-1,"question_num":121,"has_decoy":false},{"rt":579.4000000059605,"stimulus":"[A] option 1, [L] option 2, [G] neither","key_press":65,"name":"choice","trial_type":"html-keyboard-response","trial_index":153,"time_elapsed":444976,"internal_node_id":"0.0-153.0","subject":"S1C1600","sona":"41326","block":3,"time":"2021-09-05T06:31:44.351Z","response":"1st","certainty":"high","char":"A","transposition":3,"order":["swapped","shifted"],"probe_pitches":[5,0,3,5,8,10,0,3,12,0,5,8,0,3,10,3],"shifted_pitches":[5,0,3,5,8,10,0,3,11,0,5,8,0,3,10,3],"swapped_pitches":[5,0,3,5,8,10,0,12,3,0,5,8,0,3,10,3],"shift_direction":-1,"question_num":131,"has_decoy":false},{"rt":628,"stimulus":"[A] option 1, [L] option 2, [G] neither","key_press":71,"name":"choice","trial_type":"html-keyboard-response","trial_index":164,"time_elapsed":471196,"internal_node_id":"0.0-164.0","subject":"S1C1600","sona":"41326","block":3,"time":"2021-09-05T06:31:44.351Z","response":"neither","certainty":"high","char":"G","transposition":3,"order":["swapped","shifted"],"probe_pitches":[7,5,1,7,2,6,5,9,3,12,8,11,5,7,12,4],"shifted_pitches":[7,5,1,7,2,6,5,10,3,12,8,11,5,7,12,4],"swapped_pitches":[7,5,1,7,2,6,5,3,9,12,8,11,5,7,12,4],"shift_direction":1,"question_num":141,"has_decoy":false},{"rt":3009.100000023842,"stimulus":"[A] option 1, [L] option 2, [G] neither","key_press":65,"name":"choice","trial_type":"html-keyboard-response","trial_index":175,"time_elapsed":497977,"internal_node_id":"0.0-175.0","subject":"S1C1600","sona":"41326","block":3,"time":"2021-09-05T06:31:44.351Z","response":"1st","certainty":"high","char":"A","transposition":2,"order":["shifted","swapped"],"probe_pitches":[4,7,1,4,12,9,1,10,8,12,4,2,0,6,12,7],"shifted_pitches":[4,7,1,4,12,9,1,11,8,12,4,2,0,6,12,7],"swapped_pitches":[4,7,1,4,12,9,1,8,10,12,4,2,0,6,12,7],"shift_direction":1,"question_num":151,"has_decoy":false},{"rt":499.2000000178814,"stimulus":"[A] option 1, [L] option 2, [G] neither","key_press":76,"name":"choice","trial_type":"html-keyboard-response","trial_index":186,"time_elapsed":525789,"internal_node_id":"0.0-186.0","subject":"S1C1600","sona":"41326","block":3,"time":"2021-09-05T06:31:44.351Z","response":"2nd","certainty":"high","char":"L","transposition":-2,"order":["swapped","shifted"],"probe_pitches":[8,3,10,12,5,12,10,8,3,5,10,8,12,10,3,5],"shifted_pitches":[8,3,10,12,5,12,10,7,3,5,10,8,12,10,3,5],"swapped_pitches":[8,3,10,12,5,12,10,3,8,5,10,8,12,10,3,5],"shift_direction":-1,"question_num":161,"has_decoy":false},{"rt":1021.5,"stimulus":"[A] option 1, [L] option 2, [G] neither","key_press":65,"name":"choice","trial_type":"html-keyboard-response","trial_index":197,"time_elapsed":550159,"internal_node_id":"0.0-197.0","subject":"S1C1600","sona":"41326","block":3,"time":"2021-09-05T06:31:44.351Z","response":"1st","certainty":"high","char":"A","transposition":0,"order":["swapped","shifted"],"probe_pitches":[7,10,7,12,10,5,12,7,3,5,12,5,7,0,10,7],"shifted_pitches":[7,10,7,12,10,5,12,8,3,5,12,5,7,0,10,7],"swapped_pitches":[7,10,7,12,10,5,12,3,7,5,12,5,7,0,10,7],"shift_direction":1,"question_num":171,"has_decoy":false},{"rt":750.4000000059605,"stimulus":"[A] option 1, [L] option 2, [G] neither","key_press":76,"name":"choice","trial_type":"html-keyboard-response","trial_index":208,"time_elapsed":574118,"internal_node_id":"0.0-208.0","subject":"S1C1600","sona":"41326","block":3,"time":"2021-09-05T06:31:44.351Z","response":"2nd","certainty":"high","char":"L","transposition":-2,"order":["swapped","shifted"],"probe_pitches":[0,2,5,12,7,10,7,0,10,12,10,2,0,12,7,10],"shifted_pitches":[0,2,5,12,7,10,7,0,11,12,10,2,0,12,7,10],"swapped_pitches":[0,2,5,12,7,10,7,10,0,12,10,2,0,12,7,10],"shift_direction":1,"question_num":181,"has_decoy":false},{"rt":460.5,"stimulus":"[A] option 1, [L] option 2, [G] neither","key_press":71,"name":"choice","trial_type":"html-keyboard-response","trial_index":219,"time_elapsed":599748,"internal_node_id":"0.0-219.0","subject":"S1C1600","sona":"41326","block":3,"time":"2021-09-05T06:31:44.351Z","response":"neither","certainty":"high","char":"G","transposition":-1,"order":["shifted","swapped"],"probe_pitches":[0,2,0,5,2,5,2,0,12,10,12,7,12,7,5,7],"shifted_pitches":[0,2,0,5,2,5,2,1,12,10,12,7,12,7,5,7],"swapped_pitches":[0,2,0,5,2,5,2,12,0,10,12,7,12,7,5,7],"shift_direction":1,"question_num":191,"has_decoy":false}]