[{"rt":2214.5999999940395,"stimulus":"[A] option 1, [L] option 2, [G] neither","key_press":76,"name":"choice","trial_type":"html-keyboard-response","trial_index":10,"time_elapsed":37919,"internal_node_id":"0.0-10.0","subject":"S1C1600","sona":"41326","block":6,"time":"2021-09-05T07:01:42.039Z","response":"2nd","certainty":"high","char":"L","transposition":0,"order":["swapped","shifted"],"probe_pitches":[-1,1,-1,1,-1,1,6,3,1,11,8,11,3,1,11,1],"shifted_pitches":[-1,1,-1,1,-1,1,6,4,1,11,8,11,3,1,11,1],"swapped_pitches":[-1,1,-1,1,-1,1,6,1,3,11,8,11,3,1,11,1],"shift_direction":1,"question_num":1,"has_decoy":false},{"rt":1864.699999988079,"stimulus":"[A] option 1, [L] option 2, [G] neither","key_press":65,"name":"choice","trial_type":"html-keyboard-response","trial_index":21,"time_elapsed":69548,"internal_node_id":"0.0-21.0","subject":"S1C1600","sona":"41326","block":6,"time":"2021-09-05T07:01:42.039Z","response":"1st","certainty":"high","char":"A","transposition":-3,"order":["shifted","swapped"],"probe_pitches":[-1,4,2,-1,2,11,9,4,7,2,9,11,4,2,-1,7],"shifted_pitches":[-1,4,2,-1,2,11,9,4,6,2,9,11,4,2,-1,7],"swapped_pitches":[-1,4,2,-1,2,11,9,7,4,2,9,11,4,2,-1,7],"shift_direction":-1,"question_num":11,"has_decoy":false},{"rt":735.5999999940395,"stimulus":"[A] option 1, [L] option 2, [G] neither","key_press":71,"name":"choice","trial_type":"html-keyboard-response","trial_index":32,"time_elapsed":95569,"internal_node_id":"0.0-32.0","subject":"S1C1600","sona":"41326","block":6,"time":"2021-09-05T07:01:42.039Z","response":"neither","certainty":"high","char":"G","transposition":-3,"order":["swapped","shifted"],"probe_pitches":[10,4,3,6,10,8,5,8,-1,7,5,7,-1,-2,2,6],"shifted_pitches":[10,4,3,6,10,8,5,9,-1,7,5,7,-1,-2,2,6],"swapped_pitches":[10,4,3,6,10,8,5,-1,8,7,5,7,-1,-2,2,6],"shift_direction":1,"question_num":21,"has_decoy":false},{"rt":1106.0999999940395,"stimulus":"[A] option 1, [L] option 2, [G] neither","key_press":65,"name":"choice","trial_type":"html-keyboard-response","trial_index":43,"time_elapsed":123599,"internal_node_id":"0.0-43.0","subject":"S1C1600","sona":"41326","block":6,"time":"2021-09-05T07:01:42.039Z","response":"1st","certainty":"high","char":"A","transposition":-2,"order":["shifted","swapped"],"probe_pitches":[10,6,0,5,1,10,-1,7,2,5,10,9,2,10,6,5],"shifted_pitches":[10,6,0,5,1,10,-1,7,3,5,10,9,2,10,6,5],"swapped_pitches":[10,6,0,5,1,10,-1,2,7,5,10,9,2,10,6,5],"shift_direction":1,"question_num":31,"has_decoy":false},{"rt":2176.4000000059605,"stimulus":"[A] option 1, [L] option 2, [G] neither","key_press":76,"name":"choice","trial_type":"html-keyboard-response","trial_index":54,"time_elapsed":156440,"internal_node_id":"0.0-54.0","subject":"S1C1600","sona":"41326","block":6,"time":"2021-09-05T07:01:42.039Z","response":"2nd","certainty":"high","char":"L","transposition":-1,"order":["swapped","shifted"],"probe_pitches":[6,2,4,-1,4,9,-1,2,11,-1,4,-1,6,11,4,6],"shifted_pitches":[6,2,4,-1,4,9,-1,1,11,-1,4,-1,6,11,4,6],"swapped_pitches":[6,2,4,-1,4,9,-1,11,2,-1,4,-1,6,11,4,6],"shift_direction":-1,"question_num":41,"has_decoy":false},{"rt":1328,"stimulus":"[A] option 1, [L] option 2, [G] neither","key_press":76,"name":"choice","trial_type":"html-keyboard-response","trial_index":65,"time_elapsed":182051,"internal_node_id":"0.0-65.0","subject":"S1C1600","sona":"41326","block":6,"time":"2021-09-05T07:01:42.039Z","response":"2nd","certainty":"high","char":"L","transposition":-1,"order":["shifted","swapped"],"probe_pitches":[1,4,8,4,-1,4,11,8,1,11,1,-1,8,6,11,6],"shifted_pitches":[1,4,8,4,-1,4,11,8,2,11,1,-1,8,6,11,6],"swapped_pitches":[1,4,8,4,-1,4,11,1,8,11,1,-1,8,6,11,6],"shift_direction":1,"question_num":51,"has_decoy":false},{"rt":647.5,"stimulus":"[A] option 1, [L] option 2, [G] neither","key_press":65,"name":"choice","trial_type":"html-keyboard-response","trial_index":76,"time_elapsed":210962,"internal_node_id":"0.0-76.0","subject":"S1C1600","sona":"41326","block":6,"time":"2021-09-05T07:01:42.039Z","response":"1st","certainty":"high","char":"A","transposition":2,"order":["shifted","swapped"],"probe_pitches":[4,5,8,10,4,6,10,2,-1,9,7,5,8,6,2,1],"shifted_pitches":[4,5,8,10,4,6,10,2,0,9,7,5,8,6,2,1],"swapped_pitches":[4,5,8,10,4,6,10,-1,2,9,7,5,8,6,2,1],"shift_direction":1,"question_num":61,"has_decoy":false},{"rt":1769,"stimulus":"[A] option 1, [L] option 2, [G] neither","key_press":76,"name":"choice","trial_type":"html-keyboard-response","trial_index":87,"time_elapsed":242153,"internal_node_id":"0.0-87.0","subject":"S1C1600","sona":"41326","block":6,"time":"2021-09-05T07:01:42.039Z","response":"2nd","certainty":"high","char":"L","transposition":-3,"order":["shifted","swapped"],"probe_pitches":[4,9,6,4,9,2,9,6,11,-1,9,6,2,6,-1,11],"shifted_pitches":[4,9,6,4,9,2,9,6,10,-1,9,6,2,6,-1,11],"swapped_pitches":[4,9,6,4,9,2,9,11,6,-1,9,6,2,6,-1,11],"shift_direction":-1,"question_num":71,"has_decoy":false},{"rt":2199.300000011921,"stimulus":"[A] option 1, [L] option 2, [G] neither","key_press":76,"name":"choice","trial_type":"html-keyboard-response","trial_index":98,"time_elapsed":268752,"internal_node_id":"0.0-98.0","subject":"S1C1600","sona":"41326","block":6,"time":"2021-09-05T07:01:42.039Z","response":"2nd","certainty":"high","char":"L","transposition":-2,"order":["swapped","shifted"],"probe_pitches":[6,11,6,11,9,11,1,4,-1,6,9,6,-1,11,4,9],"shifted_pitches":[6,11,6,11,9,11,1,5,-1,6,9,6,-1,11,4,9],"swapped_pitches":[6,11,6,11,9,11,1,-1,4,6,9,6,-1,11,4,9],"shift_direction":1,"question_num":81,"has_decoy":false},{"rt":2419.7999999821186,"stimulus":"[A] option 1, [L] option 2, [G] neither","key_press":65,"name":"choice","trial_type":"html-keyboard-response","trial_index":109,"time_elapsed":294574,"internal_node_id":"0.0-109.0","subject":"S1C1600","sona":"41326","block":6,"time":"2021-09-05T07:01:42.039Z","response":"1st","certainty":"high","char":"A","transposition":-1,"order":["swapped","shifted"],"probe_pitches":[5,10,3,9,3,-2,0,3,9,0,4,-1,10,7,3,4],"shifted_pitches":[5,10,3,9,3,-2,0,2,9,0,4,-1,10,7,3,4],"swapped_pitches":[5,10,3,9,3,-2,0,9,3,0,4,-1,10,7,3,4],"shift_direction":-1,"question_num":91,"has_decoy":false},{"rt":2680.300000011921,"stimulus":"[A] option 1, [L] option 2, [G] neither","key_press":76,"name":"choice","trial_type":"html-keyboard-response","trial_index":120,"time_elapsed":320534,"internal_node_id":"0.0-120.0","subject":"S1C1600","sona":"41326","block":6,"time":"2021-09-05T07:01:42.039Z","response":"2nd","certainty":"high","char":"L","transposition":1,"order":["shifted","swapped"],"probe_pitches":[4,5,8,10,6,10,9,0,10,-1,-2,8,-1,8,9,3],"shifted_pitches":[4,5,8,10,6,10,9,1,10,-1,-2,8,-1,8,9,3],"swapped_pitches":[4,5,8,10,6,10,9,10,0,-1,-2,8,-1,8,9,3],"shift_direction":1,"question_num":101,"has_decoy":false},{"rt":550.2000000178814,"stimulus":"[A] option 1, [L] option 2, [G] neither","key_press":76,"name":"choice","trial_type":"html-keyboard-response","trial_index":131,"time_elapsed":345624,"internal_node_id":"0.0-131.0","subject":"S1C1600","sona":"41326","block":6,"time":"2021-09-05T07:01:42.039Z","response":"2nd","certainty":"high","char":"L","transposition":3,"order":["swapped","shifted"],"probe_pitches":[5,7,2,9,2,5,-2,-1,7,1,-1,4,2,1,7,9],"shifted_pitches":[5,7,2,9,2,5,-2,-1,6,1,-1,4,2,1,7,9],"swapped_pitches":[5,7,2,9,2,5,-2,7,-1,1,-1,4,2,1,7,9],"shift_direction":-1,"question_num":111,"has_decoy":false},{"rt":7160.5,"stimulus":"[A] option 1, [L] option 2, [G] neither","key_press":65,"name":"choice","trial_type":"html-keyboard-response","trial_index":142,"time_elapsed":382703,"internal_node_id":"0.0-142.0","subject":"S1C1600","sona":"41326","block":6,"time":"2021-09-05T07:01:42.039Z","response":"1st","certainty":"high","char":"A","transposition":3,"order":["swapped","shifted"],"probe_pitches":[2,7,11,9,7,11,9,4,11,-1,4,11,7,-1,9,11],"shifted_pitches":[2,7,11,9,7,11,9,5,11,-1,4,11,7,-1,9,11],"swapped_pitches":[2,7,11,9,7,11,9,11,4,-1,4,11,7,-1,9,11],"shift_direction":1,"question_num":121,"has_decoy":false},{"rt":1181.5,"stimulus":"[A] option 1, [L] option 2, [G] neither","key_press":76,"name":"choice","trial_type":"html-keyboard-response","trial_index":153,"time_elapsed":413844,"internal_node_id":"0.0-153.0","subject":"S1C1600","sona":"41326","block":6,"time":"2021-09-05T07:01:42.039Z","response":"2nd","certainty":"high","char":"L","transposition":2,"order":["swapped","shifted"],"probe_pitches":[-1,4,9,4,6,1,-1,9,6,-1,11,9,1,4,11,9],"shifted_pitches":[-1,4,9,4,6,1,-1,8,6,-1,11,9,1,4,11,9],"swapped_pitches":[-1,4,9,4,6,1,-1,6,9,-1,11,9,1,4,11,9],"shift_direction":-1,"question_num":131,"has_decoy":false},{"rt":2372.2000000178814,"stimulus":"[A] option 1, [L] option 2, [G] neither","key_press":65,"name":"choice","trial_type":"html-keyboard-response","trial_index":164,"time_elapsed":442944,"internal_node_id":"0.0-164.0","subject":"S1C1600","sona":"41326","block":6,"time":"2021-09-05T07:01:42.039Z","response":"1st","certainty":"high","char":"A","transposition":-2,"order":["shifted","swapped"],"probe_pitches":[6,0,-1,4,3,6,5,3,8,2,5,4,6,1,-1,1],"shifted_pitches":[6,0,-1,4,3,6,5,3,7,2,5,4,6,1,-1,1],"swapped_pitches":[6,0,-1,4,3,6,5,8,3,2,5,4,6,1,-1,1],"shift_direction":-1,"question_num":141,"has_decoy":false},{"rt":1502.5999999940395,"stimulus":"[A] option 1, [L] option 2, [G] neither","key_press":65,"name":"choice","trial_type":"html-keyboard-response","trial_index":175,"time_elapsed":480194,"internal_node_id":"0.0-175.0","subject":"S1C1600","sona":"41326","block":6,"time":"2021-09-05T07:01:42.039Z","response":"1st","certainty":"high","char":"A","transposition":0,"order":["swapped","shifted"],"probe_pitches":[6,10,6,1,9,10,2,-2,9,10,6,4,6,3,-2,6],"shifted_pitches":[6,10,6,1,9,10,2,-2,8,10,6,4,6,3,-2,6],"swapped_pitches":[6,10,6,1,9,10,2,9,-2,10,6,4,6,3,-2,6],"shift_direction":-1,"question_num":151,"has_decoy":false},{"rt":793.5999999940395,"stimulus":"[A] option 1, [L] option 2, [G] neither","key_press":76,"name":"choice","trial_type":"html-keyboard-response","trial_index":186,"time_elapsed":504746,"internal_node_id":"0.0-186.0","subject":"S1C1600","sona":"41326","block":6,"time":"2021-09-05T07:01:42.039Z","response":"2nd","certainty":"high","char":"L","transposition":-1,"order":["shifted","swapped"],"probe_pitches":[5,8,7,-1,1,3,10,3,-2,5,0,7,5,7,6,10],"shifted_pitches":[5,8,7,-1,1,3,10,4,-2,5,0,7,5,7,6,10],"swapped_pitches":[5,8,7,-1,1,3,10,-2,3,5,0,7,5,7,6,10],"shift_direction":1,"question_num":161,"has_decoy":false},{"rt":2183.5,"stimulus":"[A] option 1, [L] option 2, [G] neither","key_press":65,"name":"choice","trial_type":"html-keyboard-response","trial_index":197,"time_elapsed":535855,"internal_node_id":"0.0-197.0","subject":"S1C1600","sona":"41326","block":6,"time":"2021-09-05T07:01:42.039Z","response":"1st","certainty":"high","char":"A","transposition":1,"order":["shifted","swapped"],"probe_pitches":[8,4,6,-1,6,-1,8,6,1,-1,4,8,11,6,11,-1],"shifted_pitches":[8,4,6,-1,6,-1,8,6,2,-1,4,8,11,6,11,-1],"swapped_pitches":[8,4,6,-1,6,-1,8,1,6,-1,4,8,11,6,11,-1],"shift_direction":1,"question_num":171,"has_decoy":false},{"rt":1714.699999988079,"stimulus":"[A] option 1, [L] option 2, [G] neither","key_press":76,"name":"choice","trial_type":"html-keyboard-response","trial_index":208,"time_elapsed":567806,"internal_node_id":"0.0-208.0","subject":"S1C1600","sona":"41326","block":6,"time":"2021-09-05T07:01:42.039Z","response":"2nd","certainty":"high","char":"L","transposition":-2,"order":["shifted","swapped"],"probe_pitches":[3,6,1,-1,8,11,3,-1,6,1,-1,11,-1,6,11,8],"shifted_pitches":[3,6,1,-1,8,11,3,-1,5,1,-1,11,-1,6,11,8],"swapped_pitches":[3,6,1,-1,8,11,3,6,-1,1,-1,11,-1,6,11,8],"shift_direction":-1,"question_num":181,"has_decoy":false},{"rt":334.40000000596046,"stimulus":"[A] option 1, [L] option 2, [G] neither","key_press":71,"name":"choice","trial_type":"html-keyboard-response","trial_index":219,"time_elapsed":591836,"internal_node_id":"0.0-219.0","subject":"S1C1600","sona":"41326","block":6,"time":"2021-09-05T07:01:42.039Z","response":"neither","certainty":"high","char":"G","transposition":-3,"order":["swapped","shifted"],"probe_pitches":[1,0,4,-2,7,-2,8,6,1,9,6,2,3,4,1,-1],"shifted_pitches":[1,0,4,-2,7,-2,8,5,1,9,6,2,3,4,1,-1],"swapped_pitches":[1,0,4,-2,7,-2,8,1,6,9,6,2,3,4,1,-1],"shift_direction":-1,"question_num":191,"has_decoy":false}]