[{"rt":817.6999999880791,"stimulus":"[A] option 1, [L] option 2, [G] neither","key_press":71,"name":"choice","trial_type":"html-keyboard-response","trial_index":10,"time_elapsed":27887,"internal_node_id":"0.0-10.0","subject":"S1C1600","sona":"41326","block":5,"time":"2021-09-05T06:51:44.922Z","response":"neither","certainty":"high","char":"G","transposition":-3,"order":["shifted","swapped"],"probe_pitches":[2,6,11,14,11,2,4,2,14,9,14,4,2,14,2,14],"shifted_pitches":[2,6,11,14,11,2,4,2,15,9,14,4,2,14,2,14],"swapped_pitches":[2,6,11,14,11,2,4,14,2,9,14,4,2,14,2,14],"shift_direction":1,"question_num":1,"has_decoy":false},{"rt":3520.4000000059605,"stimulus":"[A] option 1, [L] option 2, [G] neither","key_press":76,"name":"choice","trial_type":"html-keyboard-response","trial_index":21,"time_elapsed":68454,"internal_node_id":"0.0-21.0","subject":"S1C1600","sona":"41326","block":5,"time":"2021-09-05T06:51:44.922Z","response":"2nd","certainty":"high","char":"L","transposition":-1,"order":["swapped","shifted"],"probe_pitches":[0,3,1,4,6,7,11,3,4,2,-1,8,-1,6,4,0],"shifted_pitches":[0,3,1,4,6,7,11,3,5,2,-1,8,-1,6,4,0],"swapped_pitches":[0,3,1,4,6,7,11,4,3,2,-1,8,-1,6,4,0],"shift_direction":1,"question_num":11,"has_decoy":false},{"rt":450,"stimulus":"[A] option 1, [L] option 2, [G] neither","key_press":76,"name":"choice","trial_type":"html-keyboard-response","trial_index":32,"time_elapsed":92755,"internal_node_id":"0.0-32.0","subject":"S1C1600","sona":"41326","block":5,"time":"2021-09-05T06:51:44.922Z","response":"2nd","certainty":"high","char":"L","transposition":-2,"order":["swapped","shifted"],"probe_pitches":[11,9,6,4,9,14,11,2,6,14,4,6,4,6,11,4],"shifted_pitches":[11,9,6,4,9,14,11,2,7,14,4,6,4,6,11,4],"swapped_pitches":[11,9,6,4,9,14,11,6,2,14,4,6,4,6,11,4],"shift_direction":1,"question_num":21,"has_decoy":false},{"rt":419.40000000596046,"stimulus":"[A] option 1, [L] option 2, [G] neither","key_press":76,"name":"choice","trial_type":"html-keyboard-response","trial_index":43,"time_elapsed":120394,"internal_node_id":"0.0-43.0","subject":"S1C1600","sona":"41326","block":5,"time":"2021-09-05T06:51:44.922Z","response":"2nd","certainty":"high","char":"L","transposition":2,"order":["swapped","shifted"],"probe_pitches":[9,14,11,9,14,9,2,14,9,11,9,2,9,7,14,4],"shifted_pitches":[9,14,11,9,14,9,2,14,10,11,9,2,9,7,14,4],"swapped_pitches":[9,14,11,9,14,9,2,9,14,11,9,2,9,7,14,4],"shift_direction":1,"question_num":31,"has_decoy":false},{"rt":2470.9000000059605,"stimulus":"[A] option 1, [L] option 2, [G] neither","key_press":65,"name":"choice","trial_type":"html-keyboard-response","trial_index":54,"time_elapsed":145685,"internal_node_id":"0.0-54.0","subject":"S1C1600","sona":"41326","block":5,"time":"2021-09-05T06:51:44.922Z","response":"1st","certainty":"high","char":"A","transposition":2,"order":["swapped","shifted"],"probe_pitches":[0,1,5,-1,7,0,1,11,2,1,11,-1,1,8,3,0],"shifted_pitches":[0,1,5,-1,7,0,1,10,2,1,11,-1,1,8,3,0],"swapped_pitches":[0,1,5,-1,7,0,1,2,11,1,11,-1,1,8,3,0],"shift_direction":-1,"question_num":41,"has_decoy":false},{"rt":1430.6000000238419,"stimulus":"[A] option 1, [L] option 2, [G] neither","key_press":76,"name":"choice","trial_type":"html-keyboard-response","trial_index":65,"time_elapsed":174075,"internal_node_id":"0.0-65.0","subject":"S1C1600","sona":"41326","block":5,"time":"2021-09-05T06:51:44.922Z","response":"2nd","certainty":"high","char":"L","transposition":-1,"order":["shifted","swapped"],"probe_pitches":[4,3,4,6,4,2,0,10,9,7,-1,9,0,2,1,0],"shifted_pitches":[4,3,4,6,4,2,0,10,8,7,-1,9,0,2,1,0],"swapped_pitches":[4,3,4,6,4,2,0,9,10,7,-1,9,0,2,1,0],"shift_direction":-1,"question_num":51,"has_decoy":false},{"rt":741.5,"stimulus":"[A] option 1, [L] option 2, [G] neither","key_press":76,"name":"choice","trial_type":"html-keyboard-response","trial_index":76,"time_elapsed":200037,"internal_node_id":"0.0-76.0","subject":"S1C1600","sona":"41326","block":5,"time":"2021-09-05T06:51:44.922Z","response":"2nd","certainty":"high","char":"L","transposition":-2,"order":["swapped","shifted"],"probe_pitches":[3,2,6,5,-1,7,0,10,4,1,3,2,-1,1,6,1],"shifted_pitches":[3,2,6,5,-1,7,0,9,4,1,3,2,-1,1,6,1],"swapped_pitches":[3,2,6,5,-1,7,0,4,10,1,3,2,-1,1,6,1],"shift_direction":-1,"question_num":61,"has_decoy":false},{"rt":4261.5,"stimulus":"[A] option 1, [L] option 2, [G] neither","key_press":76,"name":"choice","trial_type":"html-keyboard-response","trial_index":87,"time_elapsed":229277,"internal_node_id":"0.0-87.0","subject":"S1C1600","sona":"41326","block":5,"time":"2021-09-05T06:51:44.922Z","response":"2nd","certainty":"high","char":"L","transposition":-2,"order":["swapped","shifted"],"probe_pitches":[4,9,7,2,7,4,9,12,14,7,12,7,14,12,7,12],"shifted_pitches":[4,9,7,2,7,4,9,12,13,7,12,7,14,12,7,12],"swapped_pitches":[4,9,7,2,7,4,9,14,12,7,12,7,14,12,7,12],"shift_direction":-1,"question_num":71,"has_decoy":false},{"rt":973,"stimulus":"[A] option 1, [L] option 2, [G] neither","key_press":76,"name":"choice","trial_type":"html-keyboard-response","trial_index":98,"time_elapsed":261688,"internal_node_id":"0.0-98.0","subject":"S1C1600","sona":"41326","block":5,"time":"2021-09-05T06:51:44.922Z","response":"2nd","certainty":"high","char":"L","transposition":1,"order":["shifted","swapped"],"probe_pitches":[7,2,4,12,7,9,12,9,4,14,7,4,7,12,2,7],"shifted_pitches":[7,2,4,12,7,9,12,10,4,14,7,4,7,12,2,7],"swapped_pitches":[7,2,4,12,7,9,12,4,9,14,7,4,7,12,2,7],"shift_direction":1,"question_num":81,"has_decoy":false},{"rt":5352.5,"stimulus":"[A] option 1, [L] option 2, [G] neither","key_press":65,"name":"choice","trial_type":"html-keyboard-response","trial_index":109,"time_elapsed":290577,"internal_node_id":"0.0-109.0","subject":"S1C1600","sona":"41326","block":5,"time":"2021-09-05T06:51:44.922Z","response":"1st","certainty":"high","char":"A","transposition":-3,"order":["shifted","swapped"],"probe_pitches":[-1,0,5,10,7,-1,5,9,2,8,-1,1,-1,9,0,11],"shifted_pitches":[-1,0,5,10,7,-1,5,9,3,8,-1,1,-1,9,0,11],"swapped_pitches":[-1,0,5,10,7,-1,5,2,9,8,-1,1,-1,9,0,11],"shift_direction":1,"question_num":91,"has_decoy":false},{"rt":2694.5,"stimulus":"[A] option 1, [L] option 2, [G] neither","key_press":65,"name":"choice","trial_type":"html-keyboard-response","trial_index":120,"time_elapsed":316118,"internal_node_id":"0.0-120.0","subject":"S1C1600","sona":"41326","block":5,"time":"2021-09-05T06:51:44.922Z","response":"1st","certainty":"high","char":"A","transposition":-2,"order":["shifted","swapped"],"probe_pitches":[8,7,9,8,-1,7,3,8,0,5,3,8,2,9,4,-1],"shifted_pitches":[8,7,9,8,-1,7,3,8,1,5,3,8,2,9,4,-1],"swapped_pitches":[8,7,9,8,-1,7,3,0,8,5,3,8,2,9,4,-1],"shift_direction":1,"question_num":101,"has_decoy":false},{"rt":4853.600000023842,"stimulus":"[A] option 1, [L] option 2, [G] neither","key_press":76,"name":"choice","trial_type":"html-keyboard-response","trial_index":131,"time_elapsed":344707,"internal_node_id":"0.0-131.0","subject":"S1C1600","sona":"41326","block":5,"time":"2021-09-05T06:51:44.922Z","response":"2nd","certainty":"high","char":"L","transposition":-1,"order":["swapped","shifted"],"probe_pitches":[12,14,12,9,2,12,9,12,5,7,5,9,14,7,14,12],"shifted_pitches":[12,14,12,9,2,12,9,11,5,7,5,9,14,7,14,12],"swapped_pitches":[12,14,12,9,2,12,9,5,12,7,5,9,14,7,14,12],"shift_direction":-1,"question_num":111,"has_decoy":false},{"rt":425,"stimulus":"[A] option 1, [L] option 2, [G] neither","key_press":76,"name":"choice","trial_type":"html-keyboard-response","trial_index":142,"time_elapsed":367769,"internal_node_id":"0.0-142.0","subject":"S1C1600","sona":"41326","block":5,"time":"2021-09-05T06:51:44.922Z","response":"2nd","certainty":"high","char":"L","transposition":0,"order":["shifted","swapped"],"probe_pitches":[2,5,12,5,10,12,7,12,10,7,12,7,12,5,12,7],"shifted_pitches":[2,5,12,5,10,12,7,12,11,7,12,7,12,5,12,7],"swapped_pitches":[2,5,12,5,10,12,7,10,12,7,12,7,12,5,12,7],"shift_direction":1,"question_num":121,"has_decoy":false},{"rt":365.40000000596046,"stimulus":"[A] option 1, [L] option 2, [G] neither","key_press":65,"name":"choice","trial_type":"html-keyboard-response","trial_index":153,"time_elapsed":391390,"internal_node_id":"0.0-153.0","subject":"S1C1600","sona":"41326","block":5,"time":"2021-09-05T06:51:44.922Z","response":"1st","certainty":"high","char":"A","transposition":3,"order":["shifted","swapped"],"probe_pitches":[3,-1,3,10,6,-1,0,6,3,-1,0,7,3,-1,7,9],"shifted_pitches":[3,-1,3,10,6,-1,0,6,2,-1,0,7,3,-1,7,9],"swapped_pitches":[3,-1,3,10,6,-1,0,3,6,-1,0,7,3,-1,7,9],"shift_direction":-1,"question_num":131,"has_decoy":false},{"rt":505.69999998807907,"stimulus":"[A] option 1, [L] option 2, [G] neither","key_press":65,"name":"choice","trial_type":"html-keyboard-response","trial_index":164,"time_elapsed":418650,"internal_node_id":"0.0-164.0","subject":"S1C1600","sona":"41326","block":5,"time":"2021-09-05T06:51:44.922Z","response":"1st","certainty":"high","char":"A","transposition":1,"order":["shifted","swapped"],"probe_pitches":[4,9,5,11,4,5,2,5,10,0,4,0,5,11,3,-1],"shifted_pitches":[4,9,5,11,4,5,2,6,10,0,4,0,5,11,3,-1],"swapped_pitches":[4,9,5,11,4,5,2,10,5,0,4,0,5,11,3,-1],"shift_direction":1,"question_num":141,"has_decoy":false},{"rt":1615.5999999940395,"stimulus":"[A] option 1, [L] option 2, [G] neither","key_press":76,"name":"choice","trial_type":"html-keyboard-response","trial_index":175,"time_elapsed":442911,"internal_node_id":"0.0-175.0","subject":"S1C1600","sona":"41326","block":5,"time":"2021-09-05T06:51:44.922Z","response":"2nd","certainty":"high","char":"L","transposition":-3,"order":["shifted","swapped"],"probe_pitches":[2,4,9,7,11,7,9,2,14,9,11,2,9,4,9,7],"shifted_pitches":[2,4,9,7,11,7,9,1,14,9,11,2,9,4,9,7],"swapped_pitches":[2,4,9,7,11,7,9,14,2,9,11,2,9,4,9,7],"shift_direction":-1,"question_num":151,"has_decoy":false},{"rt":2136.9000000059605,"stimulus":"[A] option 1, [L] option 2, [G] neither","key_press":65,"name":"choice","trial_type":"html-keyboard-response","trial_index":186,"time_elapsed":468592,"internal_node_id":"0.0-186.0","subject":"S1C1600","sona":"41326","block":5,"time":"2021-09-05T06:51:44.922Z","response":"1st","certainty":"high","char":"A","transposition":3,"order":["shifted","swapped"],"probe_pitches":[14,12,7,5,14,7,10,5,2,12,7,5,10,14,5,12],"shifted_pitches":[14,12,7,5,14,7,10,4,2,12,7,5,10,14,5,12],"swapped_pitches":[14,12,7,5,14,7,10,2,5,12,7,5,10,14,5,12],"shift_direction":-1,"question_num":161,"has_decoy":false},{"rt":666.5,"stimulus":"[A] option 1, [L] option 2, [G] neither","key_press":76,"name":"choice","trial_type":"html-keyboard-response","trial_index":197,"time_elapsed":496430,"internal_node_id":"0.0-197.0","subject":"S1C1600","sona":"41326","block":5,"time":"2021-09-05T06:51:44.922Z","response":"2nd","certainty":"high","char":"L","transposition":-3,"order":["swapped","shifted"],"probe_pitches":[2,-1,6,4,8,2,1,6,10,-1,11,2,3,5,9,2],"shifted_pitches":[2,-1,6,4,8,2,1,7,10,-1,11,2,3,5,9,2],"swapped_pitches":[2,-1,6,4,8,2,1,10,6,-1,11,2,3,5,9,2],"shift_direction":1,"question_num":171,"has_decoy":false},{"rt":6656.799999982119,"stimulus":"[A] option 1, [L] option 2, [G] neither","key_press":71,"name":"choice","trial_type":"html-keyboard-response","trial_index":208,"time_elapsed":528110,"internal_node_id":"0.0-208.0","subject":"S1C1600","sona":"41326","block":5,"time":"2021-09-05T06:51:44.922Z","response":"neither","certainty":"high","char":"G","transposition":-1,"order":["swapped","shifted"],"probe_pitches":[7,5,9,12,7,9,7,14,9,2,7,12,2,9,5,12],"shifted_pitches":[7,5,9,12,7,9,7,13,9,2,7,12,2,9,5,12],"swapped_pitches":[7,5,9,12,7,9,7,9,14,2,7,12,2,9,5,12],"shift_direction":-1,"question_num":181,"has_decoy":false},{"rt":1509,"stimulus":"[A] option 1, [L] option 2, [G] neither","key_press":76,"name":"choice","trial_type":"html-keyboard-response","trial_index":219,"time_elapsed":554961,"internal_node_id":"0.0-219.0","subject":"S1C1600","sona":"41326","block":5,"time":"2021-09-05T06:51:44.922Z","response":"2nd","certainty":"high","char":"L","transposition":0,"order":["swapped","shifted"],"probe_pitches":[2,8,2,3,11,3,-1,5,11,7,10,6,8,1,7,11],"shifted_pitches":[2,8,2,3,11,3,-1,4,11,7,10,6,8,1,7,11],"swapped_pitches":[2,8,2,3,11,3,-1,11,5,7,10,6,8,1,7,11],"shift_direction":-1,"question_num":191,"has_decoy":false}]