[{"rt":1728.4000000059605,"stimulus":"[A] option 1, [L] option 2, [G] neither","key_press":76,"name":"choice","trial_type":"html-keyboard-response","trial_index":10,"time_elapsed":32027,"internal_node_id":"0.0-10.0","subject":"S1C1600","sona":"41326","block":2,"time":"2021-09-05T06:19:09.580Z","response":"2nd","certainty":"high","char":"L","transposition":-2,"order":["swapped","shifted"],"probe_pitches":[3,5,6,11,3,7,3,8,5,13,8,15,3,14,8,7],"shifted_pitches":[3,5,6,11,3,7,3,9,5,13,8,15,3,14,8,7],"swapped_pitches":[3,5,6,11,3,7,3,5,8,13,8,15,3,14,8,7],"shift_direction":1,"question_num":1,"has_decoy":false},{"rt":2671.300000011921,"stimulus":"[A] option 1, [L] option 2, [G] neither","key_press":65,"name":"choice","trial_type":"html-keyboard-response","trial_index":21,"time_elapsed":58644,"internal_node_id":"0.0-21.0","subject":"S1C1600","sona":"41326","block":2,"time":"2021-09-05T06:19:09.580Z","response":"1st","certainty":"high","char":"A","transposition":2,"order":["swapped","shifted"],"probe_pitches":[11,7,14,9,6,8,3,11,15,12,9,4,7,9,14,3],"shifted_pitches":[11,7,14,9,6,8,3,10,15,12,9,4,7,9,14,3],"swapped_pitches":[11,7,14,9,6,8,3,15,11,12,9,4,7,9,14,3],"shift_direction":-1,"question_num":11,"has_decoy":false},{"rt":5019.199999988079,"stimulus":"[A] option 1, [L] option 2, [G] neither","key_press":65,"name":"choice","trial_type":"html-keyboard-response","trial_index":32,"time_elapsed":88614,"internal_node_id":"0.0-32.0","subject":"S1C1600","sona":"41326","block":2,"time":"2021-09-05T06:19:09.580Z","response":"1st","certainty":"high","char":"A","transposition":1,"order":["swapped","shifted"],"probe_pitches":[11,9,11,9,11,1,9,6,4,1,6,1,9,1,4,1],"shifted_pitches":[11,9,11,9,11,1,9,5,4,1,6,1,9,1,4,1],"swapped_pitches":[11,9,11,9,11,1,9,4,6,1,6,1,9,1,4,1],"shift_direction":-1,"question_num":21,"has_decoy":false},{"rt":2911.699999988079,"stimulus":"[A] option 1, [L] option 2, [G] neither","key_press":76,"name":"choice","trial_type":"html-keyboard-response","trial_index":43,"time_elapsed":116006,"internal_node_id":"0.0-43.0","subject":"S1C1600","sona":"41326","block":2,"time":"2021-09-05T06:19:09.580Z","response":"2nd","certainty":"high","char":"L","transposition":-1,"order":["shifted","swapped"],"probe_pitches":[1,-1,1,4,8,6,8,4,1,8,-1,11,8,-1,4,11],"shifted_pitches":[1,-1,1,4,8,6,8,4,2,8,-1,11,8,-1,4,11],"swapped_pitches":[1,-1,1,4,8,6,8,1,4,8,-1,11,8,-1,4,11],"shift_direction":1,"question_num":31,"has_decoy":false},{"rt":2439.699999988079,"stimulus":"[A] option 1, [L] option 2, [G] neither","key_press":76,"name":"choice","trial_type":"html-keyboard-response","trial_index":54,"time_elapsed":143475,"internal_node_id":"0.0-54.0","subject":"S1C1600","sona":"41326","block":2,"time":"2021-09-05T06:19:09.580Z","response":"2nd","certainty":"high","char":"L","transposition":-1,"order":["swapped","shifted"],"probe_pitches":[13,7,4,12,15,5,9,7,3,15,6,4,12,7,3,4],"shifted_pitches":[13,7,4,12,15,5,9,7,2,15,6,4,12,7,3,4],"swapped_pitches":[13,7,4,12,15,5,9,3,7,15,6,4,12,7,3,4],"shift_direction":-1,"question_num":41,"has_decoy":false},{"rt":657.0999999940395,"stimulus":"[A] option 1, [L] option 2, [G] neither","key_press":71,"name":"choice","trial_type":"html-keyboard-response","trial_index":65,"time_elapsed":171315,"internal_node_id":"0.0-65.0","subject":"S1C1600","sona":"41326","block":2,"time":"2021-09-05T06:19:09.580Z","response":"neither","certainty":"high","char":"G","transposition":-2,"order":["swapped","shifted"],"probe_pitches":[6,11,9,6,4,11,9,4,11,2,11,2,4,6,9,11],"shifted_pitches":[6,11,9,6,4,11,9,5,11,2,11,2,4,6,9,11],"swapped_pitches":[6,11,9,6,4,11,9,11,4,2,11,2,4,6,9,11],"shift_direction":1,"question_num":51,"has_decoy":false},{"rt":2171.399999976158,"stimulus":"[A] option 1, [L] option 2, [G] neither","key_press":65,"name":"choice","trial_type":"html-keyboard-response","trial_index":76,"time_elapsed":196988,"internal_node_id":"0.0-76.0","subject":"S1C1600","sona":"41326","block":2,"time":"2021-09-05T06:19:09.580Z","response":"1st","certainty":"high","char":"A","transposition":-3,"order":["swapped","shifted"],"probe_pitches":[2,4,-1,2,7,-1,4,11,9,4,2,4,11,7,11,4],"shifted_pitches":[2,4,-1,2,7,-1,4,11,8,4,2,4,11,7,11,4],"swapped_pitches":[2,4,-1,2,7,-1,4,9,11,4,2,4,11,7,11,4],"shift_direction":-1,"question_num":61,"has_decoy":false},{"rt":5512,"stimulus":"[A] option 1, [L] option 2, [G] neither","key_press":76,"name":"choice","trial_type":"html-keyboard-response","trial_index":87,"time_elapsed":225470,"internal_node_id":"0.0-87.0","subject":"S1C1600","sona":"41326","block":2,"time":"2021-09-05T06:19:09.580Z","response":"2nd","certainty":"high","char":"L","transposition":0,"order":["swapped","shifted"],"probe_pitches":[11,5,10,12,14,4,14,7,15,14,4,11,13,6,5,9],"shifted_pitches":[11,5,10,12,14,4,14,8,15,14,4,11,13,6,5,9],"swapped_pitches":[11,5,10,12,14,4,14,15,7,14,4,11,13,6,5,9],"shift_direction":1,"question_num":71,"has_decoy":false},{"rt":582.5,"stimulus":"[A] option 1, [L] option 2, [G] neither","key_press":71,"name":"choice","trial_type":"html-keyboard-response","trial_index":98,"time_elapsed":250280,"internal_node_id":"0.0-98.0","subject":"S1C1600","sona":"41326","block":2,"time":"2021-09-05T06:19:09.580Z","response":"neither","certainty":"high","char":"G","transposition":1,"order":["shifted","swapped"],"probe_pitches":[8,13,15,10,5,15,7,14,11,10,9,3,4,6,11,13],"shifted_pitches":[8,13,15,10,5,15,7,14,12,10,9,3,4,6,11,13],"swapped_pitches":[8,13,15,10,5,15,7,11,14,10,9,3,4,6,11,13],"shift_direction":1,"question_num":81,"has_decoy":false},{"rt":573.5,"stimulus":"[A] option 1, [L] option 2, [G] neither","key_press":65,"name":"choice","trial_type":"html-keyboard-response","trial_index":109,"time_elapsed":273750,"internal_node_id":"0.0-109.0","subject":"S1C1600","sona":"41326","block":2,"time":"2021-09-05T06:19:09.580Z","response":"1st","certainty":"high","char":"A","transposition":0,"order":["swapped","shifted"],"probe_pitches":[6,11,9,11,4,9,1,6,-1,9,4,1,-1,4,-1,11],"shifted_pitches":[6,11,9,11,4,9,1,5,-1,9,4,1,-1,4,-1,11],"swapped_pitches":[6,11,9,11,4,9,1,-1,6,9,4,1,-1,4,-1,11],"shift_direction":-1,"question_num":91,"has_decoy":false},{"rt":3713.199999988079,"stimulus":"[A] option 1, [L] option 2, [G] neither","key_press":65,"name":"choice","trial_type":"html-keyboard-response","trial_index":120,"time_elapsed":302400,"internal_node_id":"0.0-120.0","subject":"S1C1600","sona":"41326","block":2,"time":"2021-09-05T06:19:09.580Z","response":"1st","certainty":"high","char":"A","transposition":-2,"order":["shifted","swapped"],"probe_pitches":[8,11,6,-1,3,6,3,1,6,-1,1,6,1,8,3,1],"shifted_pitches":[8,11,6,-1,3,6,3,1,7,-1,1,6,1,8,3,1],"swapped_pitches":[8,11,6,-1,3,6,3,6,1,-1,1,6,1,8,3,1],"shift_direction":1,"question_num":101,"has_decoy":false},{"rt":354.90000000596046,"stimulus":"[A] option 1, [L] option 2, [G] neither","key_press":65,"name":"choice","trial_type":"html-keyboard-response","trial_index":131,"time_elapsed":326671,"internal_node_id":"0.0-131.0","subject":"S1C1600","sona":"41326","block":2,"time":"2021-09-05T06:19:09.580Z","response":"1st","certainty":"high","char":"A","transposition":3,"order":["shifted","swapped"],"probe_pitches":[11,6,3,8,3,1,8,11,-1,3,1,6,3,-1,3,6],"shifted_pitches":[11,6,3,8,3,1,8,12,-1,3,1,6,3,-1,3,6],"swapped_pitches":[11,6,3,8,3,1,8,-1,11,3,1,6,3,-1,3,6],"shift_direction":1,"question_num":111,"has_decoy":false},{"rt":1233.800000011921,"stimulus":"[A] option 1, [L] option 2, [G] neither","key_press":71,"name":"choice","trial_type":"html-keyboard-response","trial_index":142,"time_elapsed":351801,"internal_node_id":"0.0-142.0","subject":"S1C1600","sona":"41326","block":2,"time":"2021-09-05T06:19:09.580Z","response":"neither","certainty":"high","char":"G","transposition":-2,"order":["shifted","swapped"],"probe_pitches":[10,13,9,3,10,15,9,8,11,14,9,13,3,6,3,5],"shifted_pitches":[10,13,9,3,10,15,9,7,11,14,9,13,3,6,3,5],"swapped_pitches":[10,13,9,3,10,15,9,11,8,14,9,13,3,6,3,5],"shift_direction":-1,"question_num":121,"has_decoy":false},{"rt":14985.299999982119,"stimulus":"[A] option 1, [L] option 2, [G] neither","key_press":76,"name":"choice","trial_type":"html-keyboard-response","trial_index":153,"time_elapsed":391782,"internal_node_id":"0.0-153.0","subject":"S1C1600","sona":"41326","block":2,"time":"2021-09-05T06:19:09.580Z","response":"2nd","certainty":"high","char":"L","transposition":-1,"order":["shifted","swapped"],"probe_pitches":[6,9,2,-1,4,6,11,9,2,-1,6,2,6,2,-1,4],"shifted_pitches":[6,9,2,-1,4,6,11,8,2,-1,6,2,6,2,-1,4],"swapped_pitches":[6,9,2,-1,4,6,11,2,9,-1,6,2,6,2,-1,4],"shift_direction":-1,"question_num":131,"has_decoy":false},{"rt":2492.4000000059605,"stimulus":"[A] option 1, [L] option 2, [G] neither","key_press":76,"name":"choice","trial_type":"html-keyboard-response","trial_index":164,"time_elapsed":417629,"internal_node_id":"0.0-164.0","subject":"S1C1600","sona":"41326","block":2,"time":"2021-09-05T06:19:09.580Z","response":"2nd","certainty":"high","char":"L","transposition":2,"order":["shifted","swapped"],"probe_pitches":[11,8,4,-1,8,4,-1,1,8,6,8,4,11,8,6,11],"shifted_pitches":[11,8,4,-1,8,4,-1,1,7,6,8,4,11,8,6,11],"swapped_pitches":[11,8,4,-1,8,4,-1,8,1,6,8,4,11,8,6,11],"shift_direction":-1,"question_num":141,"has_decoy":false},{"rt":344.2999999821186,"stimulus":"[A] option 1, [L] option 2, [G] neither","key_press":76,"name":"choice","trial_type":"html-keyboard-response","trial_index":175,"time_elapsed":441790,"internal_node_id":"0.0-175.0","subject":"S1C1600","sona":"41326","block":2,"time":"2021-09-05T06:19:09.580Z","response":"2nd","certainty":"high","char":"L","transposition":-3,"order":["swapped","shifted"],"probe_pitches":[6,5,3,7,8,15,10,14,15,11,15,7,12,8,3,8],"shifted_pitches":[6,5,3,7,8,15,10,13,15,11,15,7,12,8,3,8],"swapped_pitches":[6,5,3,7,8,15,10,15,14,11,15,7,12,8,3,8],"shift_direction":-1,"question_num":151,"has_decoy":false},{"rt":1283.800000011921,"stimulus":"[A] option 1, [L] option 2, [G] neither","key_press":65,"name":"choice","trial_type":"html-keyboard-response","trial_index":186,"time_elapsed":466870,"internal_node_id":"0.0-186.0","subject":"S1C1600","sona":"41326","block":2,"time":"2021-09-05T06:19:09.580Z","response":"1st","certainty":"high","char":"A","transposition":-1,"order":["shifted","swapped"],"probe_pitches":[8,5,10,7,4,11,8,13,5,15,9,7,12,11,9,15],"shifted_pitches":[8,5,10,7,4,11,8,13,6,15,9,7,12,11,9,15],"swapped_pitches":[8,5,10,7,4,11,8,5,13,15,9,7,12,11,9,15],"shift_direction":1,"question_num":161,"has_decoy":false},{"rt":1554.5999999940395,"stimulus":"[A] option 1, [L] option 2, [G] neither","key_press":76,"name":"choice","trial_type":"html-keyboard-response","trial_index":197,"time_elapsed":492301,"internal_node_id":"0.0-197.0","subject":"S1C1600","sona":"41326","block":2,"time":"2021-09-05T06:19:09.580Z","response":"2nd","certainty":"high","char":"L","transposition":3,"order":["shifted","swapped"],"probe_pitches":[5,7,5,10,3,9,5,3,10,7,4,6,8,10,13,3],"shifted_pitches":[5,7,5,10,3,9,5,3,11,7,4,6,8,10,13,3],"swapped_pitches":[5,7,5,10,3,9,5,10,3,7,4,6,8,10,13,3],"shift_direction":1,"question_num":171,"has_decoy":false},{"rt":1912,"stimulus":"[A] option 1, [L] option 2, [G] neither","key_press":65,"name":"choice","trial_type":"html-keyboard-response","trial_index":208,"time_elapsed":518111,"internal_node_id":"0.0-208.0","subject":"S1C1600","sona":"41326","block":2,"time":"2021-09-05T06:19:09.580Z","response":"1st","certainty":"high","char":"A","transposition":-3,"order":["shifted","swapped"],"probe_pitches":[6,8,11,15,6,9,8,14,6,3,6,9,6,13,12,11],"shifted_pitches":[6,8,11,15,6,9,8,14,5,3,6,9,6,13,12,11],"swapped_pitches":[6,8,11,15,6,9,8,6,14,3,6,9,6,13,12,11],"shift_direction":-1,"question_num":181,"has_decoy":false},{"rt":346,"stimulus":"[A] option 1, [L] option 2, [G] neither","key_press":76,"name":"choice","trial_type":"html-keyboard-response","trial_index":219,"time_elapsed":542162,"internal_node_id":"0.0-219.0","subject":"S1C1600","sona":"41326","block":2,"time":"2021-09-05T06:19:09.580Z","response":"2nd","certainty":"high","char":"L","transposition":-3,"order":["swapped","shifted"],"probe_pitches":[-1,2,4,-1,2,4,7,9,11,2,11,7,-1,11,9,4],"shifted_pitches":[-1,2,4,-1,2,4,7,9,12,2,11,7,-1,11,9,4],"swapped_pitches":[-1,2,4,-1,2,4,7,11,9,2,11,7,-1,11,9,4],"shift_direction":1,"question_num":191,"has_decoy":false}]