[{"rt":1668.1000000238419,"stimulus":"[A] option 1, [L] option 2, [G] neither","key_press":65,"name":"choice","trial_type":"html-keyboard-response","trial_index":10,"time_elapsed":30838,"internal_node_id":"0.0-10.0","subject":"S1C1600","sona":"41326","block":4,"time":"2021-09-05T06:40:55.031Z","response":"1st","certainty":"high","char":"A","transposition":-3,"order":["swapped","shifted"],"probe_pitches":[6,4,1,6,11,1,11,6,9,1,4,6,11,9,4,9],"shifted_pitches":[6,4,1,6,11,1,11,5,9,1,4,6,11,9,4,9],"swapped_pitches":[6,4,1,6,11,1,11,9,6,1,4,6,11,9,4,9],"shift_direction":-1,"question_num":1,"has_decoy":false},{"rt":3527.7000000178814,"stimulus":"[A] option 1, [L] option 2, [G] neither","key_press":76,"name":"choice","trial_type":"html-keyboard-response","trial_index":21,"time_elapsed":57347,"internal_node_id":"0.0-21.0","subject":"S1C1600","sona":"41326","block":4,"time":"2021-09-05T06:40:55.031Z","response":"2nd","certainty":"high","char":"L","transposition":-1,"order":["shifted","swapped"],"probe_pitches":[2,-1,2,7,11,9,7,11,2,4,7,2,9,7,9,2],"shifted_pitches":[2,-1,2,7,11,9,7,10,2,4,7,2,9,7,9,2],"swapped_pitches":[2,-1,2,7,11,9,7,2,11,4,7,2,9,7,9,2],"shift_direction":-1,"question_num":11,"has_decoy":false},{"rt":3039.199999988079,"stimulus":"[A] option 1, [L] option 2, [G] neither","key_press":76,"name":"choice","trial_type":"html-keyboard-response","trial_index":32,"time_elapsed":83938,"internal_node_id":"0.0-32.0","subject":"S1C1600","sona":"41326","block":4,"time":"2021-09-05T06:40:55.031Z","response":"2nd","certainty":"high","char":"L","transposition":-2,"order":["shifted","swapped"],"probe_pitches":[1,2,1,4,7,8,6,4,12,13,1,10,4,6,7,10],"shifted_pitches":[1,2,1,4,7,8,6,4,11,13,1,10,4,6,7,10],"swapped_pitches":[1,2,1,4,7,8,6,12,4,13,1,10,4,6,7,10],"shift_direction":-1,"question_num":21,"has_decoy":false},{"rt":599.5999999940395,"stimulus":"[A] option 1, [L] option 2, [G] neither","key_press":76,"name":"choice","trial_type":"html-keyboard-response","trial_index":43,"time_elapsed":108088,"internal_node_id":"0.0-43.0","subject":"S1C1600","sona":"41326","block":4,"time":"2021-09-05T06:40:55.031Z","response":"2nd","certainty":"high","char":"L","transposition":1,"order":["shifted","swapped"],"probe_pitches":[6,12,6,8,4,12,4,13,11,1,6,7,9,2,6,3],"shifted_pitches":[6,12,6,8,4,12,4,13,10,1,6,7,9,2,6,3],"swapped_pitches":[6,12,6,8,4,12,4,11,13,1,6,7,9,2,6,3],"shift_direction":-1,"question_num":31,"has_decoy":false},{"rt":738.4000000059605,"stimulus":"[A] option 1, [L] option 2, [G] neither","key_press":76,"name":"choice","trial_type":"html-keyboard-response","trial_index":54,"time_elapsed":131436,"internal_node_id":"0.0-54.0","subject":"S1C1600","sona":"41326","block":4,"time":"2021-09-05T06:40:55.031Z","response":"2nd","certainty":"high","char":"L","transposition":-3,"order":["swapped","shifted"],"probe_pitches":[1,4,8,4,11,8,4,11,1,6,1,-1,4,1,8,11],"shifted_pitches":[1,4,8,4,11,8,4,11,2,6,1,-1,4,1,8,11],"swapped_pitches":[1,4,8,4,11,8,4,1,11,6,1,-1,4,1,8,11],"shift_direction":1,"question_num":41,"has_decoy":false},{"rt":601.1999999880791,"stimulus":"[A] option 1, [L] option 2, [G] neither","key_press":71,"name":"choice","trial_type":"html-keyboard-response","trial_index":65,"time_elapsed":155918,"internal_node_id":"0.0-65.0","subject":"S1C1600","sona":"41326","block":4,"time":"2021-09-05T06:40:55.031Z","response":"neither","certainty":"high","char":"G","transposition":-1,"order":["swapped","shifted"],"probe_pitches":[8,3,6,8,5,13,6,13,3,6,2,6,2,11,4,10],"shifted_pitches":[8,3,6,8,5,13,6,12,3,6,2,6,2,11,4,10],"swapped_pitches":[8,3,6,8,5,13,6,3,13,6,2,6,2,11,4,10],"shift_direction":-1,"question_num":51,"has_decoy":false},{"rt":5960.5,"stimulus":"[A] option 1, [L] option 2, [G] neither","key_press":76,"name":"choice","trial_type":"html-keyboard-response","trial_index":76,"time_elapsed":184827,"internal_node_id":"0.0-76.0","subject":"S1C1600","sona":"41326","block":4,"time":"2021-09-05T06:40:55.031Z","response":"2nd","certainty":"high","char":"L","transposition":-3,"order":["shifted","swapped"],"probe_pitches":[10,13,10,9,1,9,8,4,12,11,4,12,13,12,6,7],"shifted_pitches":[10,13,10,9,1,9,8,3,12,11,4,12,13,12,6,7],"swapped_pitches":[10,13,10,9,1,9,8,12,4,11,4,12,13,12,6,7],"shift_direction":-1,"question_num":61,"has_decoy":false},{"rt":9852,"stimulus":"[A] option 1, [L] option 2, [G] neither","key_press":65,"name":"choice","trial_type":"html-keyboard-response","trial_index":87,"time_elapsed":217738,"internal_node_id":"0.0-87.0","subject":"S1C1600","sona":"41326","block":4,"time":"2021-09-05T06:40:55.031Z","response":"1st","certainty":"high","char":"A","transposition":3,"order":["shifted","swapped"],"probe_pitches":[4,9,3,2,1,10,9,4,11,7,4,13,11,13,1,11],"shifted_pitches":[4,9,3,2,1,10,9,5,11,7,4,13,11,13,1,11],"swapped_pitches":[4,9,3,2,1,10,9,11,4,7,4,13,11,13,1,11],"shift_direction":1,"question_num":71,"has_decoy":false},{"rt":2721.5999999940395,"stimulus":"[A] option 1, [L] option 2, [G] neither","key_press":71,"name":"choice","trial_type":"html-keyboard-response","trial_index":98,"time_elapsed":250919,"internal_node_id":"0.0-98.0","subject":"S1C1600","sona":"41326","block":4,"time":"2021-09-05T06:40:55.031Z","response":"neither","certainty":"high","char":"G","transposition":0,"order":["swapped","shifted"],"probe_pitches":[8,11,6,3,8,3,6,11,1,-1,1,6,-1,11,6,-1],"shifted_pitches":[8,11,6,3,8,3,6,10,1,-1,1,6,-1,11,6,-1],"swapped_pitches":[8,11,6,3,8,3,6,1,11,-1,1,6,-1,11,6,-1],"shift_direction":-1,"question_num":81,"has_decoy":false},{"rt":13674.899999976158,"stimulus":"[A] option 1, [L] option 2, [G] neither","key_press":76,"name":"choice","trial_type":"html-keyboard-response","trial_index":109,"time_elapsed":292193,"internal_node_id":"0.0-109.0","subject":"S1C1600","sona":"41326","block":4,"time":"2021-09-05T06:40:55.031Z","response":"2nd","certainty":"high","char":"L","transposition":2,"order":["shifted","swapped"],"probe_pitches":[8,3,6,1,3,11,3,1,8,3,6,3,1,-1,11,1],"shifted_pitches":[8,3,6,1,3,11,3,2,8,3,6,3,1,-1,11,1],"swapped_pitches":[8,3,6,1,3,11,3,8,1,3,6,3,1,-1,11,1],"shift_direction":1,"question_num":91,"has_decoy":false},{"rt":2112.7000000178814,"stimulus":"[A] option 1, [L] option 2, [G] neither","key_press":71,"name":"choice","trial_type":"html-keyboard-response","trial_index":120,"time_elapsed":317361,"internal_node_id":"0.0-120.0","subject":"S1C1600","sona":"41326","block":4,"time":"2021-09-05T06:40:55.031Z","response":"neither","certainty":"high","char":"G","transposition":-3,"order":["swapped","shifted"],"probe_pitches":[2,7,13,6,10,5,6,11,3,10,12,7,1,13,11,9],"shifted_pitches":[2,7,13,6,10,5,6,11,4,10,12,7,1,13,11,9],"swapped_pitches":[2,7,13,6,10,5,6,3,11,10,12,7,1,13,11,9],"shift_direction":1,"question_num":101,"has_decoy":false},{"rt":2093.5,"stimulus":"[A] option 1, [L] option 2, [G] neither","key_press":65,"name":"choice","trial_type":"html-keyboard-response","trial_index":131,"time_elapsed":342922,"internal_node_id":"0.0-131.0","subject":"S1C1600","sona":"41326","block":4,"time":"2021-09-05T06:40:55.031Z","response":"1st","certainty":"high","char":"A","transposition":0,"order":["swapped","shifted"],"probe_pitches":[2,4,5,6,4,11,5,1,9,3,2,10,13,9,6,7],"shifted_pitches":[2,4,5,6,4,11,5,1,8,3,2,10,13,9,6,7],"swapped_pitches":[2,4,5,6,4,11,5,9,1,3,2,10,13,9,6,7],"shift_direction":-1,"question_num":111,"has_decoy":false},{"rt":533.2999999821186,"stimulus":"[A] option 1, [L] option 2, [G] neither","key_press":65,"name":"choice","trial_type":"html-keyboard-response","trial_index":142,"time_elapsed":367432,"internal_node_id":"0.0-142.0","subject":"S1C1600","sona":"41326","block":4,"time":"2021-09-05T06:40:55.031Z","response":"1st","certainty":"high","char":"A","transposition":-2,"order":["swapped","shifted"],"probe_pitches":[10,9,11,6,12,6,2,6,11,1,5,11,5,9,6,2],"shifted_pitches":[10,9,11,6,12,6,2,7,11,1,5,11,5,9,6,2],"swapped_pitches":[10,9,11,6,12,6,2,11,6,1,5,11,5,9,6,2],"shift_direction":1,"question_num":121,"has_decoy":false},{"rt":2244.899999976158,"stimulus":"[A] option 1, [L] option 2, [G] neither","key_press":76,"name":"choice","trial_type":"html-keyboard-response","trial_index":153,"time_elapsed":392618,"internal_node_id":"0.0-153.0","subject":"S1C1600","sona":"41326","block":4,"time":"2021-09-05T06:40:55.031Z","response":"2nd","certainty":"high","char":"L","transposition":-2,"order":["swapped","shifted"],"probe_pitches":[2,4,-1,2,9,4,2,4,9,11,4,11,7,2,7,4],"shifted_pitches":[2,4,-1,2,9,4,2,4,10,11,4,11,7,2,7,4],"swapped_pitches":[2,4,-1,2,9,4,2,9,4,11,4,11,7,2,7,4],"shift_direction":1,"question_num":131,"has_decoy":false},{"rt":584.5999999940395,"stimulus":"[A] option 1, [L] option 2, [G] neither","key_press":65,"name":"choice","trial_type":"html-keyboard-response","trial_index":164,"time_elapsed":417757,"internal_node_id":"0.0-164.0","subject":"S1C1600","sona":"41326","block":4,"time":"2021-09-05T06:40:55.031Z","response":"1st","certainty":"high","char":"A","transposition":2,"order":["shifted","swapped"],"probe_pitches":[3,6,5,4,1,2,12,8,4,12,4,13,10,2,13,7],"shifted_pitches":[3,6,5,4,1,2,12,9,4,12,4,13,10,2,13,7],"swapped_pitches":[3,6,5,4,1,2,12,4,8,12,4,13,10,2,13,7],"shift_direction":1,"question_num":141,"has_decoy":false},{"rt":725.5,"stimulus":"[A] option 1, [L] option 2, [G] neither","key_press":71,"name":"choice","trial_type":"html-keyboard-response","trial_index":175,"time_elapsed":443163,"internal_node_id":"0.0-175.0","subject":"S1C1600","sona":"41326","block":4,"time":"2021-09-05T06:40:55.031Z","response":"neither","certainty":"high","char":"G","transposition":-1,"order":["swapped","shifted"],"probe_pitches":[9,8,7,8,10,7,3,11,5,13,3,10,9,12,3,1],"shifted_pitches":[9,8,7,8,10,7,3,11,6,13,3,10,9,12,3,1],"swapped_pitches":[9,8,7,8,10,7,3,5,11,13,3,10,9,12,3,1],"shift_direction":1,"question_num":151,"has_decoy":false},{"rt":465.7999999821186,"stimulus":"[A] option 1, [L] option 2, [G] neither","key_press":76,"name":"choice","trial_type":"html-keyboard-response","trial_index":186,"time_elapsed":466433,"internal_node_id":"0.0-186.0","subject":"S1C1600","sona":"41326","block":4,"time":"2021-09-05T06:40:55.031Z","response":"2nd","certainty":"high","char":"L","transposition":-2,"order":["shifted","swapped"],"probe_pitches":[-1,2,6,2,-1,9,6,2,4,6,4,6,2,-1,11,4],"shifted_pitches":[-1,2,6,2,-1,9,6,3,4,6,4,6,2,-1,11,4],"swapped_pitches":[-1,2,6,2,-1,9,6,4,2,6,4,6,2,-1,11,4],"shift_direction":1,"question_num":161,"has_decoy":false},{"rt":2056.5999999940395,"stimulus":"[A] option 1, [L] option 2, [G] neither","key_press":76,"name":"choice","trial_type":"html-keyboard-response","trial_index":197,"time_elapsed":491854,"internal_node_id":"0.0-197.0","subject":"S1C1600","sona":"41326","block":4,"time":"2021-09-05T06:40:55.031Z","response":"2nd","certainty":"high","char":"L","transposition":1,"order":["swapped","shifted"],"probe_pitches":[-1,1,-1,4,9,4,6,-1,4,11,4,9,11,9,1,6],"shifted_pitches":[-1,1,-1,4,9,4,6,-1,3,11,4,9,11,9,1,6],"swapped_pitches":[-1,1,-1,4,9,4,6,4,-1,11,4,9,11,9,1,6],"shift_direction":-1,"question_num":171,"has_decoy":false},{"rt":2297,"stimulus":"[A] option 1, [L] option 2, [G] neither","key_press":65,"name":"choice","trial_type":"html-keyboard-response","trial_index":208,"time_elapsed":518334,"internal_node_id":"0.0-208.0","subject":"S1C1600","sona":"41326","block":4,"time":"2021-09-05T06:40:55.031Z","response":"1st","certainty":"high","char":"A","transposition":3,"order":["shifted","swapped"],"probe_pitches":[6,1,-1,1,8,1,6,4,8,-1,6,8,6,4,6,8],"shifted_pitches":[6,1,-1,1,8,1,6,4,7,-1,6,8,6,4,6,8],"swapped_pitches":[6,1,-1,1,8,1,6,8,4,-1,6,8,6,4,6,8],"shift_direction":-1,"question_num":181,"has_decoy":false},{"rt":638.1999999880791,"stimulus":"[A] option 1, [L] option 2, [G] neither","key_press":76,"name":"choice","trial_type":"html-keyboard-response","trial_index":219,"time_elapsed":543855,"internal_node_id":"0.0-219.0","subject":"S1C1600","sona":"41326","block":4,"time":"2021-09-05T06:40:55.031Z","response":"2nd","certainty":"high","char":"L","transposition":-1,"order":["shifted","swapped"],"probe_pitches":[11,6,11,9,2,9,2,11,6,4,2,4,2,4,2,-1],"shifted_pitches":[11,6,11,9,2,9,2,11,7,4,2,4,2,4,2,-1],"swapped_pitches":[11,6,11,9,2,9,2,6,11,4,2,4,2,4,2,-1],"shift_direction":1,"question_num":191,"has_decoy":false}]