[{"rt":1565.7000000476837,"stimulus":"[A] option 1, [L] option 2, [G] neither","key_press":65,"name":"choice","trial_type":"html-keyboard-response","trial_index":10,"time_elapsed":16024,"internal_node_id":"0.0-10.0","subject":"S1C0800","sona":"40652","block":6,"time":"2021-09-04T00:31:07.354Z","response":"1st","certainty":"high","char":"A","transposition":-1,"order":["shifted","swapped"],"probe_pitches":[10,6,10,8,3,6,1,3],"shifted_pitches":[10,6,10,8,2,6,1,3],"swapped_pitches":[10,6,10,3,8,6,1,3],"shift_direction":-1,"question_num":1,"has_decoy":false},{"rt":1878.3000000715256,"stimulus":"[A] option 1, [L] option 2, [G] neither","key_press":76,"name":"choice","trial_type":"html-keyboard-response","trial_index":21,"time_elapsed":32267,"internal_node_id":"0.0-21.0","subject":"S1C0800","sona":"40652","block":6,"time":"2021-09-04T00:31:07.354Z","response":"2nd","certainty":"high","char":"L","transposition":1,"order":["shifted","swapped"],"probe_pitches":[7,10,5,-2,2,0,10,5],"shifted_pitches":[7,10,5,-1,2,0,10,5],"swapped_pitches":[7,10,5,2,-2,0,10,5],"shift_direction":1,"question_num":11,"has_decoy":false},{"rt":969.3999999761581,"stimulus":"[A] option 1, [L] option 2, [G] neither","key_press":76,"name":"choice","trial_type":"html-keyboard-response","trial_index":32,"time_elapsed":47608,"internal_node_id":"0.0-32.0","subject":"S1C0800","sona":"40652","block":6,"time":"2021-09-04T00:31:07.354Z","response":"2nd","certainty":"high","char":"L","transposition":0,"order":["shifted","swapped"],"probe_pitches":[3,8,1,6,3,-2,1,-2],"shifted_pitches":[3,8,1,6,2,-2,1,-2],"swapped_pitches":[3,8,1,3,6,-2,1,-2],"shift_direction":-1,"question_num":21,"has_decoy":false},{"rt":704.1000000238419,"stimulus":"[A] option 1, [L] option 2, [G] neither","key_press":65,"name":"choice","trial_type":"html-keyboard-response","trial_index":43,"time_elapsed":62612,"internal_node_id":"0.0-43.0","subject":"S1C0800","sona":"40652","block":6,"time":"2021-09-04T00:31:07.354Z","response":"1st","certainty":"high","char":"A","transposition":2,"order":["swapped","shifted"],"probe_pitches":[-2,1,5,-2,3,10,5,8],"shifted_pitches":[-2,1,5,-2,2,10,5,8],"swapped_pitches":[-2,1,5,3,-2,10,5,8],"shift_direction":-1,"question_num":31,"has_decoy":false},{"rt":838.2999999523163,"stimulus":"[A] option 1, [L] option 2, [G] neither","key_press":76,"name":"choice","trial_type":"html-keyboard-response","trial_index":54,"time_elapsed":78026,"internal_node_id":"0.0-54.0","subject":"S1C0800","sona":"40652","block":6,"time":"2021-09-04T00:31:07.354Z","response":"2nd","certainty":"high","char":"L","transposition":-2,"order":["swapped","shifted"],"probe_pitches":[5,8,3,-2,0,3,10,5],"shifted_pitches":[5,8,3,-2,-1,3,10,5],"swapped_pitches":[5,8,3,0,-2,3,10,5],"shift_direction":-1,"question_num":41,"has_decoy":false},{"rt":847.2000000476837,"stimulus":"[A] option 1, [L] option 2, [G] neither","key_press":76,"name":"choice","trial_type":"html-keyboard-response","trial_index":65,"time_elapsed":93246,"internal_node_id":"0.0-65.0","subject":"S1C0800","sona":"40652","block":6,"time":"2021-09-04T00:31:07.354Z","response":"2nd","certainty":"high","char":"L","transposition":0,"order":["swapped","shifted"],"probe_pitches":[7,5,9,13,10,12,1,8],"shifted_pitches":[7,5,9,13,11,12,1,8],"swapped_pitches":[7,5,9,10,13,12,1,8],"shift_direction":1,"question_num":51,"has_decoy":false},{"rt":1037.1000000238419,"stimulus":"[A] option 1, [L] option 2, [G] neither","key_press":65,"name":"choice","trial_type":"html-keyboard-response","trial_index":76,"time_elapsed":108556,"internal_node_id":"0.0-76.0","subject":"S1C0800","sona":"40652","block":6,"time":"2021-09-04T00:31:07.354Z","response":"1st","certainty":"high","char":"A","transposition":-3,"order":["shifted","swapped"],"probe_pitches":[-2,0,3,7,-2,5,10,0],"shifted_pitches":[-2,0,3,8,-2,5,10,0],"swapped_pitches":[-2,0,3,-2,7,5,10,0],"shift_direction":1,"question_num":61,"has_decoy":false},{"rt":1028.8000000715256,"stimulus":"[A] option 1, [L] option 2, [G] neither","key_press":76,"name":"choice","trial_type":"html-keyboard-response","trial_index":87,"time_elapsed":123947,"internal_node_id":"0.0-87.0","subject":"S1C0800","sona":"40652","block":6,"time":"2021-09-04T00:31:07.354Z","response":"2nd","certainty":"high","char":"L","transposition":-3,"order":["shifted","swapped"],"probe_pitches":[1,3,2,10,6,13,10,3],"shifted_pitches":[1,3,2,9,6,13,10,3],"swapped_pitches":[1,3,2,6,10,13,10,3],"shift_direction":-1,"question_num":71,"has_decoy":false},{"rt":486,"stimulus":"[A] option 1, [L] option 2, [G] neither","key_press":76,"name":"choice","trial_type":"html-keyboard-response","trial_index":98,"time_elapsed":138814,"internal_node_id":"0.0-98.0","subject":"S1C0800","sona":"40652","block":6,"time":"2021-09-04T00:31:07.354Z","response":"2nd","certainty":"high","char":"L","transposition":-2,"order":["shifted","swapped"],"probe_pitches":[10,6,2,9,12,11,1,6],"shifted_pitches":[10,6,2,8,12,11,1,6],"swapped_pitches":[10,6,2,12,9,11,1,6],"shift_direction":-1,"question_num":81,"has_decoy":false},{"rt":779.7999999523163,"stimulus":"[A] option 1, [L] option 2, [G] neither","key_press":65,"name":"choice","trial_type":"html-keyboard-response","trial_index":109,"time_elapsed":153868,"internal_node_id":"0.0-109.0","subject":"S1C0800","sona":"40652","block":6,"time":"2021-09-04T00:31:07.354Z","response":"1st","certainty":"high","char":"A","transposition":-3,"order":["shifted","swapped"],"probe_pitches":[10,4,1,4,7,8,4,1],"shifted_pitches":[10,4,1,4,6,8,4,1],"swapped_pitches":[10,4,1,7,4,8,4,1],"shift_direction":-1,"question_num":91,"has_decoy":false},{"rt":759.2999999523163,"stimulus":"[A] option 1, [L] option 2, [G] neither","key_press":76,"name":"choice","trial_type":"html-keyboard-response","trial_index":120,"time_elapsed":168997,"internal_node_id":"0.0-120.0","subject":"S1C0800","sona":"40652","block":6,"time":"2021-09-04T00:31:07.354Z","response":"2nd","certainty":"high","char":"L","transposition":-1,"order":["swapped","shifted"],"probe_pitches":[7,5,7,5,0,3,10,-2],"shifted_pitches":[7,5,7,6,0,3,10,-2],"swapped_pitches":[7,5,7,0,5,3,10,-2],"shift_direction":1,"question_num":101,"has_decoy":false},{"rt":1050.2999999523163,"stimulus":"[A] option 1, [L] option 2, [G] neither","key_press":65,"name":"choice","trial_type":"html-keyboard-response","trial_index":131,"time_elapsed":184359,"internal_node_id":"0.0-131.0","subject":"S1C0800","sona":"40652","block":6,"time":"2021-09-04T00:31:07.354Z","response":"1st","certainty":"high","char":"A","transposition":-1,"order":["swapped","shifted"],"probe_pitches":[6,3,9,11,3,8,11,5],"shifted_pitches":[6,3,9,12,3,8,11,5],"swapped_pitches":[6,3,9,3,11,8,11,5],"shift_direction":1,"question_num":111,"has_decoy":false},{"rt":565.1999999284744,"stimulus":"[A] option 1, [L] option 2, [G] neither","key_press":76,"name":"choice","trial_type":"html-keyboard-response","trial_index":142,"time_elapsed":199314,"internal_node_id":"0.0-142.0","subject":"S1C0800","sona":"40652","block":6,"time":"2021-09-04T00:31:07.354Z","response":"2nd","certainty":"high","char":"L","transposition":3,"order":["swapped","shifted"],"probe_pitches":[1,4,10,7,6,3,9,12],"shifted_pitches":[1,4,10,7,5,3,9,12],"swapped_pitches":[1,4,10,6,7,3,9,12],"shift_direction":-1,"question_num":121,"has_decoy":false},{"rt":497.2000000476837,"stimulus":"[A] option 1, [L] option 2, [G] neither","key_press":65,"name":"choice","trial_type":"html-keyboard-response","trial_index":153,"time_elapsed":214175,"internal_node_id":"0.0-153.0","subject":"S1C0800","sona":"40652","block":6,"time":"2021-09-04T00:31:07.354Z","response":"1st","certainty":"high","char":"A","transposition":2,"order":["shifted","swapped"],"probe_pitches":[11,10,5,4,11,8,7,4],"shifted_pitches":[11,10,5,3,11,8,7,4],"swapped_pitches":[11,10,5,11,4,8,7,4],"shift_direction":-1,"question_num":131,"has_decoy":false},{"rt":1151.5,"stimulus":"[A] option 1, [L] option 2, [G] neither","key_press":71,"name":"choice","trial_type":"html-keyboard-response","trial_index":164,"time_elapsed":229718,"internal_node_id":"0.0-164.0","subject":"S1C0800","sona":"40652","block":6,"time":"2021-09-04T00:31:07.354Z","response":"neither","certainty":"high","char":"G","transposition":-3,"order":["swapped","shifted"],"probe_pitches":[-2,3,8,5,-2,8,0,8],"shifted_pitches":[-2,3,8,4,-2,8,0,8],"swapped_pitches":[-2,3,8,-2,5,8,0,8],"shift_direction":-1,"question_num":141,"has_decoy":false},{"rt":507.5,"stimulus":"[A] option 1, [L] option 2, [G] neither","key_press":65,"name":"choice","trial_type":"html-keyboard-response","trial_index":175,"time_elapsed":244736,"internal_node_id":"0.0-175.0","subject":"S1C0800","sona":"40652","block":6,"time":"2021-09-04T00:31:07.354Z","response":"1st","certainty":"high","char":"A","transposition":-1,"order":["swapped","shifted"],"probe_pitches":[4,2,8,6,5,12,3,13],"shifted_pitches":[4,2,8,7,5,12,3,13],"swapped_pitches":[4,2,8,5,6,12,3,13],"shift_direction":1,"question_num":151,"has_decoy":false},{"rt":365.2000000476837,"stimulus":"[A] option 1, [L] option 2, [G] neither","key_press":76,"name":"choice","trial_type":"html-keyboard-response","trial_index":186,"time_elapsed":259694,"internal_node_id":"0.0-186.0","subject":"S1C0800","sona":"40652","block":6,"time":"2021-09-04T00:31:07.354Z","response":"2nd","certainty":"high","char":"L","transposition":1,"order":["shifted","swapped"],"probe_pitches":[3,9,11,10,3,6,1,7],"shifted_pitches":[3,9,11,10,4,6,1,7],"swapped_pitches":[3,9,11,3,10,6,1,7],"shift_direction":1,"question_num":161,"has_decoy":false},{"rt":934.6000000238419,"stimulus":"[A] option 1, [L] option 2, [G] neither","key_press":65,"name":"choice","trial_type":"html-keyboard-response","trial_index":197,"time_elapsed":274983,"internal_node_id":"0.0-197.0","subject":"S1C0800","sona":"40652","block":6,"time":"2021-09-04T00:31:07.354Z","response":"1st","certainty":"high","char":"A","transposition":-2,"order":["shifted","swapped"],"probe_pitches":[0,-2,2,-2,7,5,-2,10],"shifted_pitches":[0,-2,2,-2,8,5,-2,10],"swapped_pitches":[0,-2,2,7,-2,5,-2,10],"shift_direction":1,"question_num":171,"has_decoy":false},{"rt":402.10000002384186,"stimulus":"[A] option 1, [L] option 2, [G] neither","key_press":76,"name":"choice","trial_type":"html-keyboard-response","trial_index":208,"time_elapsed":289841,"internal_node_id":"0.0-208.0","subject":"S1C0800","sona":"40652","block":6,"time":"2021-09-04T00:31:07.354Z","response":"2nd","certainty":"high","char":"L","transposition":-2,"order":["swapped","shifted"],"probe_pitches":[13,12,5,1,9,6,8,5],"shifted_pitches":[13,12,5,1,10,6,8,5],"swapped_pitches":[13,12,5,9,1,6,8,5],"shift_direction":1,"question_num":181,"has_decoy":false},{"rt":528.8999999761581,"stimulus":"[A] option 1, [L] option 2, [G] neither","key_press":76,"name":"choice","trial_type":"html-keyboard-response","trial_index":219,"time_elapsed":304748,"internal_node_id":"0.0-219.0","subject":"S1C0800","sona":"40652","block":6,"time":"2021-09-04T00:31:07.354Z","response":"2nd","certainty":"high","char":"L","transposition":3,"order":["swapped","shifted"],"probe_pitches":[3,1,5,8,1,5,-2,3],"shifted_pitches":[3,1,5,9,1,5,-2,3],"swapped_pitches":[3,1,5,1,8,5,-2,3],"shift_direction":1,"question_num":191,"has_decoy":false}]