[
  {
    "rt": 626.8000000715256,
    "stimulus": "[A] option 1, [L] option 2, [G] neither",
    "key_press": 76,
    "name": "choice",
    "trial_type": "html-keyboard-response",
    "trial_index": 15,
    "time_elapsed": 29296,
    "internal_node_id": "0.0-15.0",
    "response": "2nd",
    "certainty": "high",
    "char": "L",
    "transposition": 0,
    "order": [
      "shifted",
      "swapped"
    ],
    "probe_pitches": [
      1,
      -1,
      5,
      2,
      4,
      5,
      0,
      8
    ],
    "shifted_pitches": [
      1,
      -1,
      5,
      3,
      4,
      5,
      0,
      8
    ],
    "swapped_pitches": [
      1,
      -1,
      5,
      4,
      2,
      5,
      0,
      8
    ],
    "shift_direction": 1,
    "question_num": 1,
    "has_decoy": false,
    "subject": "S1C0800",
    "sona": "40652",
    "block": 1,
    "time": "2021-09-04T00:04:59.641Z"
  },
  {
    "rt": 409.39999997615814,
    "stimulus": "[A] option 1, [L] option 2, [G] neither",
    "key_press": 76,
    "name": "choice",
    "trial_type": "html-keyboard-response",
    "trial_index": 26,
    "time_elapsed": 44137,
    "internal_node_id": "0.0-26.0",
    "response": "2nd",
    "certainty": "high",
    "char": "L",
    "transposition": -2,
    "order": [
      "swapped",
      "shifted"
    ],
    "probe_pitches": [
      9,
      4,
      0,
      2,
      4,
      0,
      2,
      -1
    ],
    "shifted_pitches": [
      9,
      4,
      0,
      1,
      4,
      0,
      2,
      -1
    ],
    "swapped_pitches": [
      9,
      4,
      0,
      4,
      2,
      0,
      2,
      -1
    ],
    "shift_direction": -1,
    "question_num": 11,
    "has_decoy": false,
    "subject": "S1C0800",
    "sona": "40652",
    "block": 1,
    "time": "2021-09-04T00:04:59.641Z"
  },
  {
    "rt": 680.2000000476837,
    "stimulus": "[A] option 1, [L] option 2, [G] neither",
    "key_press": 65,
    "name": "choice",
    "trial_type": "html-keyboard-response",
    "trial_index": 37,
    "time_elapsed": 59198,
    "internal_node_id": "0.0-37.0",
    "response": "1st",
    "certainty": "high",
    "char": "A",
    "transposition": -1,
    "order": [
      "swapped",
      "shifted"
    ],
    "probe_pitches": [
      6,
      2,
      -1,
      6,
      -3,
      -1,
      9,
      4
    ],
    "shifted_pitches": [
      6,
      2,
      -1,
      7,
      -3,
      -1,
      9,
      4
    ],
    "swapped_pitches": [
      6,
      2,
      -1,
      -3,
      6,
      -1,
      9,
      4
    ],
    "shift_direction": 1,
    "question_num": 21,
    "has_decoy": false,
    "subject": "S1C0800",
    "sona": "40652",
    "block": 1,
    "time": "2021-09-04T00:04:59.641Z"
  },
  {
    "rt": 1249.1000000238419,
    "stimulus": "[A] option 1, [L] option 2, [G] neither",
    "key_press": 76,
    "name": "choice",
    "trial_type": "html-keyboard-response",
    "trial_index": 48,
    "time_elapsed": 75045,
    "internal_node_id": "0.0-48.0",
    "response": "2nd",
    "certainty": "high",
    "char": "L",
    "transposition": -1,
    "order": [
      "shifted",
      "swapped"
    ],
    "probe_pitches": [
      6,
      2,
      3,
      -2,
      7,
      8,
      1,
      7
    ],
    "shifted_pitches": [
      6,
      2,
      3,
      -1,
      7,
      8,
      1,
      7
    ],
    "swapped_pitches": [
      6,
      2,
      3,
      7,
      -2,
      8,
      1,
      7
    ],
    "shift_direction": 1,
    "question_num": 31,
    "has_decoy": false,
    "subject": "S1C0800",
    "sona": "40652",
    "block": 1,
    "time": "2021-09-04T00:04:59.641Z"
  },
  {
    "rt": 1224.2000000476837,
    "stimulus": "[A] option 1, [L] option 2, [G] neither",
    "key_press": 65,
    "name": "choice",
    "trial_type": "html-keyboard-response",
    "trial_index": 59,
    "time_elapsed": 90670,
    "internal_node_id": "0.0-59.0",
    "response": "1st",
    "certainty": "high",
    "char": "A",
    "transposition": 1,
    "order": [
      "swapped",
      "shifted"
    ],
    "probe_pitches": [
      1,
      2,
      5,
      6,
      -1,
      2,
      1,
      6
    ],
    "shifted_pitches": [
      1,
      2,
      5,
      7,
      -1,
      2,
      1,
      6
    ],
    "swapped_pitches": [
      1,
      2,
      5,
      -1,
      6,
      2,
      1,
      6
    ],
    "shift_direction": 1,
    "question_num": 41,
    "has_decoy": false,
    "subject": "S1C0800",
    "sona": "40652",
    "block": 1,
    "time": "2021-09-04T00:04:59.641Z"
  },
  {
    "rt": 671.3999999761581,
    "stimulus": "[A] option 1, [L] option 2, [G] neither",
    "key_press": 65,
    "name": "choice",
    "trial_type": "html-keyboard-response",
    "trial_index": 70,
    "time_elapsed": 105827,
    "internal_node_id": "0.0-70.0",
    "response": "1st",
    "certainty": "high",
    "char": "A",
    "transposition": -3,
    "order": [
      "shifted",
      "swapped"
    ],
    "probe_pitches": [
      9,
      7,
      2,
      4,
      7,
      -3,
      4,
      -1
    ],
    "shifted_pitches": [
      9,
      7,
      2,
      5,
      7,
      -3,
      4,
      -1
    ],
    "swapped_pitches": [
      9,
      7,
      2,
      7,
      4,
      -3,
      4,
      -1
    ],
    "shift_direction": 1,
    "question_num": 51,
    "has_decoy": false,
    "subject": "S1C0800",
    "sona": "40652",
    "block": 1,
    "time": "2021-09-04T00:04:59.641Z"
  },
  {
    "rt": 1650.6000000238419,
    "stimulus": "[A] option 1, [L] option 2, [G] neither",
    "key_press": 76,
    "name": "choice",
    "trial_type": "html-keyboard-response",
    "trial_index": 81,
    "time_elapsed": 122186,
    "internal_node_id": "0.0-81.0",
    "response": "2nd",
    "certainty": "high",
    "char": "L",
    "transposition": 2,
    "order": [
      "shifted",
      "swapped"
    ],
    "probe_pitches": [
      -3,
      -2,
      3,
      6,
      1,
      -3,
      7,
      6
    ],
    "shifted_pitches": [
      -3,
      -2,
      3,
      6,
      0,
      -3,
      7,
      6
    ],
    "swapped_pitches": [
      -3,
      -2,
      3,
      1,
      6,
      -3,
      7,
      6
    ],
    "shift_direction": -1,
    "question_num": 61,
    "has_decoy": false,
    "subject": "S1C0800",
    "sona": "40652",
    "block": 1,
    "time": "2021-09-04T00:04:59.641Z"
  },
  {
    "rt": 623.1000000238419,
    "stimulus": "[A] option 1, [L] option 2, [G] neither",
    "key_press": 76,
    "name": "choice",
    "trial_type": "html-keyboard-response",
    "trial_index": 92,
    "time_elapsed": 137198,
    "internal_node_id": "0.0-92.0",
    "response": "2nd",
    "certainty": "high",
    "char": "L",
    "transposition": -3,
    "order": [
      "swapped",
      "shifted"
    ],
    "probe_pitches": [
      -3,
      2,
      7,
      2,
      0,
      -3,
      5,
      7
    ],
    "shifted_pitches": [
      -3,
      2,
      7,
      2,
      -1,
      -3,
      5,
      7
    ],
    "swapped_pitches": [
      -3,
      2,
      7,
      0,
      2,
      -3,
      5,
      7
    ],
    "shift_direction": -1,
    "question_num": 71,
    "has_decoy": false,
    "subject": "S1C0800",
    "sona": "40652",
    "block": 1,
    "time": "2021-09-04T00:04:59.641Z"
  },
  {
    "rt": 3002,
    "stimulus": "[A] option 1, [L] option 2, [G] neither",
    "key_press": 65,
    "name": "choice",
    "trial_type": "html-keyboard-response",
    "trial_index": 103,
    "time_elapsed": 154667,
    "internal_node_id": "0.0-103.0",
    "response": "1st",
    "certainty": "high",
    "char": "A",
    "transposition": -3,
    "order": [
      "swapped",
      "shifted"
    ],
    "probe_pitches": [
      -2,
      1,
      6,
      1,
      0,
      6,
      9,
      0
    ],
    "shifted_pitches": [
      -2,
      1,
      6,
      2,
      0,
      6,
      9,
      0
    ],
    "swapped_pitches": [
      -2,
      1,
      6,
      0,
      1,
      6,
      9,
      0
    ],
    "shift_direction": 1,
    "question_num": 81,
    "has_decoy": false,
    "subject": "S1C0800",
    "sona": "40652",
    "block": 1,
    "time": "2021-09-04T00:04:59.641Z"
  },
  {
    "rt": 1029,
    "stimulus": "[A] option 1, [L] option 2, [G] neither",
    "key_press": 76,
    "name": "choice",
    "trial_type": "html-keyboard-response",
    "trial_index": 114,
    "time_elapsed": 170124,
    "internal_node_id": "0.0-114.0",
    "response": "2nd",
    "certainty": "high",
    "char": "L",
    "transposition": 1,
    "order": [
      "swapped",
      "shifted"
    ],
    "probe_pitches": [
      7,
      2,
      9,
      2,
      0,
      4,
      0,
      -3
    ],
    "shifted_pitches": [
      7,
      2,
      9,
      2,
      1,
      4,
      0,
      -3
    ],
    "swapped_pitches": [
      7,
      2,
      9,
      0,
      2,
      4,
      0,
      -3
    ],
    "shift_direction": 1,
    "question_num": 91,
    "has_decoy": false,
    "subject": "S1C0800",
    "sona": "40652",
    "block": 1,
    "time": "2021-09-04T00:04:59.641Z"
  },
  {
    "rt": 872.6999999284744,
    "stimulus": "[A] option 1, [L] option 2, [G] neither",
    "key_press": 65,
    "name": "choice",
    "trial_type": "html-keyboard-response",
    "trial_index": 125,
    "time_elapsed": 185408,
    "internal_node_id": "0.0-125.0",
    "response": "1st",
    "certainty": "high",
    "char": "A",
    "transposition": -2,
    "order": [
      "swapped",
      "shifted"
    ],
    "probe_pitches": [
      1,
      -1,
      -3,
      1,
      9,
      4,
      1,
      6
    ],
    "shifted_pitches": [
      1,
      -1,
      -3,
      2,
      9,
      4,
      1,
      6
    ],
    "swapped_pitches": [
      1,
      -1,
      -3,
      9,
      1,
      4,
      1,
      6
    ],
    "shift_direction": 1,
    "question_num": 101,
    "has_decoy": false,
    "subject": "S1C0800",
    "sona": "40652",
    "block": 1,
    "time": "2021-09-04T00:04:59.641Z"
  },
  {
    "rt": 1102.1000000238419,
    "stimulus": "[A] option 1, [L] option 2, [G] neither",
    "key_press": 76,
    "name": "choice",
    "trial_type": "html-keyboard-response",
    "trial_index": 136,
    "time_elapsed": 200887,
    "internal_node_id": "0.0-136.0",
    "response": "2nd",
    "certainty": "high",
    "char": "L",
    "transposition": 3,
    "order": [
      "swapped",
      "shifted"
    ],
    "probe_pitches": [
      4,
      9,
      2,
      6,
      9,
      5,
      -3,
      2
    ],
    "shifted_pitches": [
      4,
      9,
      2,
      6,
      8,
      5,
      -3,
      2
    ],
    "swapped_pitches": [
      4,
      9,
      2,
      9,
      6,
      5,
      -3,
      2
    ],
    "shift_direction": -1,
    "question_num": 111,
    "has_decoy": false,
    "subject": "S1C0800",
    "sona": "40652",
    "block": 1,
    "time": "2021-09-04T00:04:59.641Z"
  },
  {
    "rt": 1183.8999999761581,
    "stimulus": "[A] option 1, [L] option 2, [G] neither",
    "key_press": 65,
    "name": "choice",
    "trial_type": "html-keyboard-response",
    "trial_index": 147,
    "time_elapsed": 216631,
    "internal_node_id": "0.0-147.0",
    "response": "1st",
    "certainty": "high",
    "char": "A",
    "transposition": -1,
    "order": [
      "shifted",
      "swapped"
    ],
    "probe_pitches": [
      0,
      -3,
      2,
      -3,
      5,
      7,
      0,
      9
    ],
    "shifted_pitches": [
      0,
      -3,
      2,
      -4,
      5,
      7,
      0,
      9
    ],
    "swapped_pitches": [
      0,
      -3,
      2,
      5,
      -3,
      7,
      0,
      9
    ],
    "shift_direction": -1,
    "question_num": 121,
    "has_decoy": false,
    "subject": "S1C0800",
    "sona": "40652",
    "block": 1,
    "time": "2021-09-04T00:04:59.641Z"
  },
  {
    "rt": 1850.3999999761581,
    "stimulus": "[A] option 1, [L] option 2, [G] neither",
    "key_press": 65,
    "name": "choice",
    "trial_type": "html-keyboard-response",
    "trial_index": 158,
    "time_elapsed": 232838,
    "internal_node_id": "0.0-158.0",
    "response": "1st",
    "certainty": "high",
    "char": "A",
    "transposition": 3,
    "order": [
      "shifted",
      "swapped"
    ],
    "probe_pitches": [
      -1,
      2,
      7,
      2,
      -1,
      4,
      9,
      2
    ],
    "shifted_pitches": [
      -1,
      2,
      7,
      2,
      0,
      4,
      9,
      2
    ],
    "swapped_pitches": [
      -1,
      2,
      7,
      -1,
      2,
      4,
      9,
      2
    ],
    "shift_direction": 1,
    "question_num": 131,
    "has_decoy": false,
    "subject": "S1C0800",
    "sona": "40652",
    "block": 1,
    "time": "2021-09-04T00:04:59.641Z"
  },
  {
    "rt": 835.2000000476837,
    "stimulus": "[A] option 1, [L] option 2, [G] neither",
    "key_press": 65,
    "name": "choice",
    "trial_type": "html-keyboard-response",
    "trial_index": 169,
    "time_elapsed": 248062,
    "internal_node_id": "0.0-169.0",
    "response": "1st",
    "certainty": "high",
    "char": "A",
    "transposition": 0,
    "order": [
      "shifted",
      "swapped"
    ],
    "probe_pitches": [
      -3,
      -1,
      6,
      -1,
      2,
      4,
      -1,
      4
    ],
    "shifted_pitches": [
      -3,
      -1,
      6,
      -1,
      1,
      4,
      -1,
      4
    ],
    "swapped_pitches": [
      -3,
      -1,
      6,
      2,
      -1,
      4,
      -1,
      4
    ],
    "shift_direction": -1,
    "question_num": 141,
    "has_decoy": false,
    "subject": "S1C0800",
    "sona": "40652",
    "block": 1,
    "time": "2021-09-04T00:04:59.641Z"
  },
  {
    "rt": 1439.3999999761581,
    "stimulus": "[A] option 1, [L] option 2, [G] neither",
    "key_press": 76,
    "name": "choice",
    "trial_type": "html-keyboard-response",
    "trial_index": 180,
    "time_elapsed": 264137,
    "internal_node_id": "0.0-180.0",
    "response": "2nd",
    "certainty": "high",
    "char": "L",
    "transposition": -2,
    "order": [
      "shifted",
      "swapped"
    ],
    "probe_pitches": [
      9,
      7,
      0,
      4,
      5,
      0,
      4,
      -2
    ],
    "shifted_pitches": [
      9,
      7,
      0,
      4,
      6,
      0,
      4,
      -2
    ],
    "swapped_pitches": [
      9,
      7,
      0,
      5,
      4,
      0,
      4,
      -2
    ],
    "shift_direction": 1,
    "question_num": 151,
    "has_decoy": false,
    "subject": "S1C0800",
    "sona": "40652",
    "block": 1,
    "time": "2021-09-04T00:04:59.641Z"
  },
  {
    "rt": 1052.2000000476837,
    "stimulus": "[A] option 1, [L] option 2, [G] neither",
    "key_press": 65,
    "name": "choice",
    "trial_type": "html-keyboard-response",
    "trial_index": 191,
    "time_elapsed": 279659,
    "internal_node_id": "0.0-191.0",
    "response": "1st",
    "certainty": "high",
    "char": "A",
    "transposition": -1,
    "order": [
      "swapped",
      "shifted"
    ],
    "probe_pitches": [
      -1,
      0,
      -2,
      -1,
      6,
      1,
      9,
      1
    ],
    "shifted_pitches": [
      -1,
      0,
      -2,
      -1,
      5,
      1,
      9,
      1
    ],
    "swapped_pitches": [
      -1,
      0,
      -2,
      6,
      -1,
      1,
      9,
      1
    ],
    "shift_direction": -1,
    "question_num": 161,
    "has_decoy": false,
    "subject": "S1C0800",
    "sona": "40652",
    "block": 1,
    "time": "2021-09-04T00:04:59.641Z"
  },
  {
    "rt": 653.1000000238419,
    "stimulus": "[A] option 1, [L] option 2, [G] neither",
    "key_press": 76,
    "name": "choice",
    "trial_type": "html-keyboard-response",
    "trial_index": 202,
    "time_elapsed": 294721,
    "internal_node_id": "0.0-202.0",
    "response": "2nd",
    "certainty": "high",
    "char": "L",
    "transposition": 2,
    "order": [
      "swapped",
      "shifted"
    ],
    "probe_pitches": [
      6,
      1,
      -1,
      1,
      9,
      6,
      4,
      -3
    ],
    "shifted_pitches": [
      6,
      1,
      -1,
      0,
      9,
      6,
      4,
      -3
    ],
    "swapped_pitches": [
      6,
      1,
      -1,
      9,
      1,
      6,
      4,
      -3
    ],
    "shift_direction": -1,
    "question_num": 171,
    "has_decoy": false,
    "subject": "S1C0800",
    "sona": "40652",
    "block": 1,
    "time": "2021-09-04T00:04:59.641Z"
  },
  {
    "rt": 431.5,
    "stimulus": "[A] option 1, [L] option 2, [G] neither",
    "key_press": 76,
    "name": "choice",
    "trial_type": "html-keyboard-response",
    "trial_index": 213,
    "time_elapsed": 309569,
    "internal_node_id": "0.0-213.0",
    "response": "2nd",
    "certainty": "high",
    "char": "L",
    "transposition": -2,
    "order": [
      "shifted",
      "swapped"
    ],
    "probe_pitches": [
      0,
      2,
      7,
      9,
      4,
      0,
      2,
      7
    ],
    "shifted_pitches": [
      0,
      2,
      7,
      9,
      3,
      0,
      2,
      7
    ],
    "swapped_pitches": [
      0,
      2,
      7,
      4,
      9,
      0,
      2,
      7
    ],
    "shift_direction": -1,
    "question_num": 181,
    "has_decoy": false,
    "subject": "S1C0800",
    "sona": "40652",
    "block": 1,
    "time": "2021-09-04T00:04:59.641Z"
  },
  {
    "rt": 849.1000000238419,
    "stimulus": "[A] option 1, [L] option 2, [G] neither",
    "key_press": 76,
    "name": "choice",
    "trial_type": "html-keyboard-response",
    "trial_index": 224,
    "time_elapsed": 324816,
    "internal_node_id": "0.0-224.0",
    "response": "2nd",
    "certainty": "high",
    "char": "L",
    "transposition": -3,
    "order": [
      "shifted",
      "swapped"
    ],
    "probe_pitches": [
      2,
      0,
      2,
      6,
      5,
      3,
      2,
      8
    ],
    "shifted_pitches": [
      2,
      0,
      2,
      6,
      4,
      3,
      2,
      8
    ],
    "swapped_pitches": [
      2,
      0,
      2,
      5,
      6,
      3,
      2,
      8
    ],
    "shift_direction": -1,
    "question_num": 191,
    "has_decoy": false,
    "subject": "S1C0800",
    "sona": "40652",
    "block": 1,
    "time": "2021-09-04T00:04:59.641Z"
  }
]