[{"rt":1068.2999999523163,"stimulus":"[A] option 1, [L] option 2, [G] neither","key_press":76,"name":"choice","trial_type":"html-keyboard-response","trial_index":10,"time_elapsed":16934,"internal_node_id":"0.0-10.0","subject":"S1C0800","sona":"40652","block":2,"time":"2021-09-04T00:10:19.526Z","response":"2nd","certainty":"high","char":"L","transposition":0,"order":["swapped","shifted"],"probe_pitches":[13,10,15,8,3,10,6,10],"shifted_pitches":[13,10,15,9,3,10,6,10],"swapped_pitches":[13,10,15,3,8,10,6,10],"shift_direction":1,"question_num":1,"has_decoy":false},{"rt":683.8999999761581,"stimulus":"[A] option 1, [L] option 2, [G] neither","key_press":65,"name":"choice","trial_type":"html-keyboard-response","trial_index":21,"time_elapsed":32020,"internal_node_id":"0.0-21.0","subject":"S1C0800","sona":"40652","block":2,"time":"2021-09-04T00:10:19.526Z","response":"1st","certainty":"high","char":"A","transposition":-2,"order":["swapped","shifted"],"probe_pitches":[6,9,2,-3,6,7,1,4],"shifted_pitches":[6,9,2,-3,5,7,1,4],"swapped_pitches":[6,9,2,6,-3,7,1,4],"shift_direction":-1,"question_num":11,"has_decoy":false},{"rt":972.3000000715256,"stimulus":"[A] option 1, [L] option 2, [G] neither","key_press":65,"name":"choice","trial_type":"html-keyboard-response","trial_index":32,"time_elapsed":47498,"internal_node_id":"0.0-32.0","subject":"S1C0800","sona":"40652","block":2,"time":"2021-09-04T00:10:19.526Z","response":"1st","certainty":"high","char":"A","transposition":-2,"order":["swapped","shifted"],"probe_pitches":[7,5,10,5,12,3,12,3],"shifted_pitches":[7,5,10,5,11,3,12,3],"swapped_pitches":[7,5,10,12,5,3,12,3],"shift_direction":-1,"question_num":21,"has_decoy":false},{"rt":1189.7999999523163,"stimulus":"[A] option 1, [L] option 2, [G] neither","key_press":76,"name":"choice","trial_type":"html-keyboard-response","trial_index":43,"time_elapsed":63105,"internal_node_id":"0.0-43.0","subject":"S1C0800","sona":"40652","block":2,"time":"2021-09-04T00:10:19.526Z","response":"2nd","certainty":"high","char":"L","transposition":-3,"order":["swapped","shifted"],"probe_pitches":[8,3,-2,0,4,7,8,4],"shifted_pitches":[8,3,-2,1,4,7,8,4],"swapped_pitches":[8,3,-2,4,0,7,8,4],"shift_direction":1,"question_num":31,"has_decoy":false},{"rt":1804.6000000238419,"stimulus":"[A] option 1, [L] option 2, [G] neither","key_press":65,"name":"choice","trial_type":"html-keyboard-response","trial_index":54,"time_elapsed":79360,"internal_node_id":"0.0-54.0","subject":"S1C0800","sona":"40652","block":2,"time":"2021-09-04T00:10:19.526Z","response":"1st","certainty":"high","char":"A","transposition":-2,"order":["shifted","swapped"],"probe_pitches":[3,1,0,4,6,1,3,-2],"shifted_pitches":[3,1,0,4,7,1,3,-2],"swapped_pitches":[3,1,0,6,4,1,3,-2],"shift_direction":1,"question_num":41,"has_decoy":false},{"rt":1087.6000000238419,"stimulus":"[A] option 1, [L] option 2, [G] neither","key_press":76,"name":"choice","trial_type":"html-keyboard-response","trial_index":65,"time_elapsed":94887,"internal_node_id":"0.0-65.0","subject":"S1C0800","sona":"40652","block":2,"time":"2021-09-04T00:10:19.526Z","response":"2nd","certainty":"high","char":"L","transposition":-3,"order":["swapped","shifted"],"probe_pitches":[5,7,0,5,-2,6,7,-1],"shifted_pitches":[5,7,0,4,-2,6,7,-1],"swapped_pitches":[5,7,0,-2,5,6,7,-1],"shift_direction":-1,"question_num":51,"has_decoy":false},{"rt":1058.8000000715256,"stimulus":"[A] option 1, [L] option 2, [G] neither","key_press":65,"name":"choice","trial_type":"html-keyboard-response","trial_index":76,"time_elapsed":110444,"internal_node_id":"0.0-76.0","subject":"S1C0800","sona":"40652","block":2,"time":"2021-09-04T00:10:19.526Z","response":"1st","certainty":"high","char":"A","transposition":3,"order":["swapped","shifted"],"probe_pitches":[9,6,2,9,1,7,6,4],"shifted_pitches":[9,6,2,9,0,7,6,4],"swapped_pitches":[9,6,2,1,9,7,6,4],"shift_direction":-1,"question_num":61,"has_decoy":false},{"rt":912.3999999761581,"stimulus":"[A] option 1, [L] option 2, [G] neither","key_press":76,"name":"choice","trial_type":"html-keyboard-response","trial_index":87,"time_elapsed":125828,"internal_node_id":"0.0-87.0","subject":"S1C0800","sona":"40652","block":2,"time":"2021-09-04T00:10:19.526Z","response":"2nd","certainty":"high","char":"L","transposition":-3,"order":["shifted","swapped"],"probe_pitches":[5,3,10,13,15,8,3,13],"shifted_pitches":[5,3,10,12,15,8,3,13],"swapped_pitches":[5,3,10,15,13,8,3,13],"shift_direction":-1,"question_num":71,"has_decoy":false},{"rt":1888.9000000953674,"stimulus":"[A] option 1, [L] option 2, [G] neither","key_press":65,"name":"choice","trial_type":"html-keyboard-response","trial_index":98,"time_elapsed":142135,"internal_node_id":"0.0-98.0","subject":"S1C0800","sona":"40652","block":2,"time":"2021-09-04T00:10:19.526Z","response":"1st","certainty":"high","char":"A","transposition":-1,"order":["shifted","swapped"],"probe_pitches":[4,8,1,-2,0,6,7,1],"shifted_pitches":[4,8,1,-1,0,6,7,1],"swapped_pitches":[4,8,1,0,-2,6,7,1],"shift_direction":1,"question_num":81,"has_decoy":false},{"rt":2097,"stimulus":"[A] option 1, [L] option 2, [G] neither","key_press":65,"name":"choice","trial_type":"html-keyboard-response","trial_index":109,"time_elapsed":158613,"internal_node_id":"0.0-109.0","subject":"S1C0800","sona":"40652","block":2,"time":"2021-09-04T00:10:19.526Z","response":"1st","certainty":"high","char":"A","transposition":0,"order":["shifted","swapped"],"probe_pitches":[-1,2,8,7,9,1,3,-1],"shifted_pitches":[-1,2,8,6,9,1,3,-1],"swapped_pitches":[-1,2,8,9,7,1,3,-1],"shift_direction":-1,"question_num":91,"has_decoy":false},{"rt":493,"stimulus":"[A] option 1, [L] option 2, [G] neither","key_press":65,"name":"choice","trial_type":"html-keyboard-response","trial_index":120,"time_elapsed":173546,"internal_node_id":"0.0-120.0","subject":"S1C0800","sona":"40652","block":2,"time":"2021-09-04T00:10:19.526Z","response":"1st","certainty":"high","char":"A","transposition":1,"order":["shifted","swapped"],"probe_pitches":[2,1,6,-1,2,6,1,7],"shifted_pitches":[2,1,6,-1,3,6,1,7],"swapped_pitches":[2,1,6,2,-1,6,1,7],"shift_direction":1,"question_num":101,"has_decoy":false},{"rt":1349,"stimulus":"[A] option 1, [L] option 2, [G] neither","key_press":65,"name":"choice","trial_type":"html-keyboard-response","trial_index":131,"time_elapsed":189303,"internal_node_id":"0.0-131.0","subject":"S1C0800","sona":"40652","block":2,"time":"2021-09-04T00:10:19.526Z","response":"1st","certainty":"high","char":"A","transposition":-1,"order":["shifted","swapped"],"probe_pitches":[3,8,10,3,5,8,12,10],"shifted_pitches":[3,8,10,3,4,8,12,10],"swapped_pitches":[3,8,10,5,3,8,12,10],"shift_direction":-1,"question_num":111,"has_decoy":false},{"rt":485.5,"stimulus":"[A] option 1, [L] option 2, [G] neither","key_press":76,"name":"choice","trial_type":"html-keyboard-response","trial_index":142,"time_elapsed":204239,"internal_node_id":"0.0-142.0","subject":"S1C0800","sona":"40652","block":2,"time":"2021-09-04T00:10:19.526Z","response":"2nd","certainty":"high","char":"L","transposition":-3,"order":["swapped","shifted"],"probe_pitches":[13,11,6,8,3,11,13,8],"shifted_pitches":[13,11,6,9,3,11,13,8],"swapped_pitches":[13,11,6,3,8,11,13,8],"shift_direction":1,"question_num":121,"has_decoy":false},{"rt":1511.2999999523163,"stimulus":"[A] option 1, [L] option 2, [G] neither","key_press":76,"name":"choice","trial_type":"html-keyboard-response","trial_index":153,"time_elapsed":219997,"internal_node_id":"0.0-153.0","subject":"S1C0800","sona":"40652","block":2,"time":"2021-09-04T00:10:19.526Z","response":"2nd","certainty":"high","char":"L","transposition":-2,"order":["swapped","shifted"],"probe_pitches":[5,3,10,12,5,7,5,7],"shifted_pitches":[5,3,10,12,4,7,5,7],"swapped_pitches":[5,3,10,5,12,7,5,7],"shift_direction":-1,"question_num":131,"has_decoy":false},{"rt":1164,"stimulus":"[A] option 1, [L] option 2, [G] neither","key_press":65,"name":"choice","trial_type":"html-keyboard-response","trial_index":164,"time_elapsed":235590,"internal_node_id":"0.0-164.0","subject":"S1C0800","sona":"40652","block":2,"time":"2021-09-04T00:10:19.526Z","response":"1st","certainty":"high","char":"A","transposition":2,"order":["swapped","shifted"],"probe_pitches":[0,4,3,0,7,2,-1,0],"shifted_pitches":[0,4,3,0,8,2,-1,0],"swapped_pitches":[0,4,3,7,0,2,-1,0],"shift_direction":1,"question_num":141,"has_decoy":false},{"rt":1901.0999999046326,"stimulus":"[A] option 1, [L] option 2, [G] neither","key_press":76,"name":"choice","trial_type":"html-keyboard-response","trial_index":175,"time_elapsed":251977,"internal_node_id":"0.0-175.0","subject":"S1C0800","sona":"40652","block":2,"time":"2021-09-04T00:10:19.526Z","response":"2nd","certainty":"high","char":"L","transposition":3,"order":["shifted","swapped"],"probe_pitches":[12,15,10,5,8,10,3,8],"shifted_pitches":[12,15,10,5,7,10,3,8],"swapped_pitches":[12,15,10,8,5,10,3,8],"shift_direction":-1,"question_num":151,"has_decoy":false},{"rt":2448.600000023842,"stimulus":"[A] option 1, [L] option 2, [G] neither","key_press":65,"name":"choice","trial_type":"html-keyboard-response","trial_index":186,"time_elapsed":268846,"internal_node_id":"0.0-186.0","subject":"S1C0800","sona":"40652","block":2,"time":"2021-09-04T00:10:19.526Z","response":"1st","certainty":"high","char":"A","transposition":1,"order":["shifted","swapped"],"probe_pitches":[8,3,10,6,15,10,13,6],"shifted_pitches":[8,3,10,7,15,10,13,6],"swapped_pitches":[8,3,10,15,6,10,13,6],"shift_direction":1,"question_num":161,"has_decoy":false},{"rt":1833.3999999761581,"stimulus":"[A] option 1, [L] option 2, [G] neither","key_press":76,"name":"choice","trial_type":"html-keyboard-response","trial_index":197,"time_elapsed":285099,"internal_node_id":"0.0-197.0","subject":"S1C0800","sona":"40652","block":2,"time":"2021-09-04T00:10:19.526Z","response":"2nd","certainty":"high","char":"L","transposition":2,"order":["swapped","shifted"],"probe_pitches":[8,13,15,13,5,8,13,10],"shifted_pitches":[8,13,15,14,5,8,13,10],"swapped_pitches":[8,13,15,5,13,8,13,10],"shift_direction":1,"question_num":171,"has_decoy":false},{"rt":882.2000000476837,"stimulus":"[A] option 1, [L] option 2, [G] neither","key_press":76,"name":"choice","trial_type":"html-keyboard-response","trial_index":208,"time_elapsed":300747,"internal_node_id":"0.0-208.0","subject":"S1C0800","sona":"40652","block":2,"time":"2021-09-04T00:10:19.526Z","response":"2nd","certainty":"high","char":"L","transposition":-1,"order":["shifted","swapped"],"probe_pitches":[-1,-3,-2,3,9,0,6,5],"shifted_pitches":[-1,-3,-2,2,9,0,6,5],"swapped_pitches":[-1,-3,-2,9,3,0,6,5],"shift_direction":-1,"question_num":181,"has_decoy":false},{"rt":999.8999999761581,"stimulus":"[A] option 1, [L] option 2, [G] neither","key_press":65,"name":"choice","trial_type":"html-keyboard-response","trial_index":219,"time_elapsed":316305,"internal_node_id":"0.0-219.0","subject":"S1C0800","sona":"40652","block":2,"time":"2021-09-04T00:10:19.526Z","response":"1st","certainty":"high","char":"A","transposition":-1,"order":["shifted","swapped"],"probe_pitches":[13,8,11,13,6,15,8,3],"shifted_pitches":[13,8,11,13,7,15,8,3],"swapped_pitches":[13,8,11,6,13,15,8,3],"shift_direction":1,"question_num":191,"has_decoy":false}]