[{"rt":2115.2000000476837,"stimulus":"[A] option 1, [L] option 2, [G] neither","key_press":65,"name":"choice","trial_type":"html-keyboard-response","trial_index":10,"time_elapsed":17445,"internal_node_id":"0.0-10.0","subject":"S1C0800","sona":"40652","block":3,"time":"2021-09-04T00:15:35.077Z","response":"1st","certainty":"high","char":"A","transposition":-1,"order":["shifted","swapped"],"probe_pitches":[2,7,12,7,5,2,10,2],"shifted_pitches":[2,7,12,7,4,2,10,2],"swapped_pitches":[2,7,12,5,7,2,10,2],"shift_direction":-1,"question_num":1,"has_decoy":false},{"rt":900.1000000238419,"stimulus":"[A] option 1, [L] option 2, [G] neither","key_press":76,"name":"choice","trial_type":"html-keyboard-response","trial_index":21,"time_elapsed":32719,"internal_node_id":"0.0-21.0","subject":"S1C0800","sona":"40652","block":3,"time":"2021-09-04T00:15:35.077Z","response":"2nd","certainty":"high","char":"L","transposition":2,"order":["swapped","shifted"],"probe_pitches":[14,9,14,7,11,9,7,4],"shifted_pitches":[14,9,14,7,10,9,7,4],"swapped_pitches":[14,9,14,11,7,9,7,4],"shift_direction":-1,"question_num":11,"has_decoy":false},{"rt":867.7999999523163,"stimulus":"[A] option 1, [L] option 2, [G] neither","key_press":76,"name":"choice","trial_type":"html-keyboard-response","trial_index":32,"time_elapsed":48027,"internal_node_id":"0.0-32.0","subject":"S1C0800","sona":"40652","block":3,"time":"2021-09-04T00:15:35.077Z","response":"2nd","certainty":"high","char":"L","transposition":-2,"order":["swapped","shifted"],"probe_pitches":[9,14,12,5,2,7,9,5],"shifted_pitches":[9,14,12,5,3,7,9,5],"swapped_pitches":[9,14,12,2,5,7,9,5],"shift_direction":1,"question_num":21,"has_decoy":false},{"rt":808.8000000715256,"stimulus":"[A] option 1, [L] option 2, [G] neither","key_press":76,"name":"choice","trial_type":"html-keyboard-response","trial_index":43,"time_elapsed":63246,"internal_node_id":"0.0-43.0","subject":"S1C0800","sona":"40652","block":3,"time":"2021-09-04T00:15:35.077Z","response":"2nd","certainty":"high","char":"L","transposition":0,"order":["shifted","swapped"],"probe_pitches":[2,7,5,2,9,12,5,12],"shifted_pitches":[2,7,5,3,9,12,5,12],"swapped_pitches":[2,7,5,9,2,12,5,12],"shift_direction":1,"question_num":31,"has_decoy":false},{"rt":805.1000000238419,"stimulus":"[A] option 1, [L] option 2, [G] neither","key_press":65,"name":"choice","trial_type":"html-keyboard-response","trial_index":54,"time_elapsed":78494,"internal_node_id":"0.0-54.0","subject":"S1C0800","sona":"40652","block":3,"time":"2021-09-04T00:15:35.077Z","response":"1st","certainty":"high","char":"A","transposition":-1,"order":["swapped","shifted"],"probe_pitches":[12,14,7,12,9,4,12,7],"shifted_pitches":[12,14,7,12,8,4,12,7],"swapped_pitches":[12,14,7,9,12,4,12,7],"shift_direction":-1,"question_num":41,"has_decoy":false},{"rt":945.8000000715256,"stimulus":"[A] option 1, [L] option 2, [G] neither","key_press":76,"name":"choice","trial_type":"html-keyboard-response","trial_index":65,"time_elapsed":93835,"internal_node_id":"0.0-65.0","subject":"S1C0800","sona":"40652","block":3,"time":"2021-09-04T00:15:35.077Z","response":"2nd","certainty":"high","char":"L","transposition":-2,"order":["swapped","shifted"],"probe_pitches":[6,2,9,2,4,6,11,14],"shifted_pitches":[6,2,9,2,5,6,11,14],"swapped_pitches":[6,2,9,4,2,6,11,14],"shift_direction":1,"question_num":51,"has_decoy":false},{"rt":1662.8999999761581,"stimulus":"[A] option 1, [L] option 2, [G] neither","key_press":76,"name":"choice","trial_type":"html-keyboard-response","trial_index":76,"time_elapsed":110213,"internal_node_id":"0.0-76.0","subject":"S1C0800","sona":"40652","block":3,"time":"2021-09-04T00:15:35.077Z","response":"2nd","certainty":"high","char":"L","transposition":-3,"order":["shifted","swapped"],"probe_pitches":[2,4,9,6,4,14,11,6],"shifted_pitches":[2,4,9,7,4,14,11,6],"swapped_pitches":[2,4,9,4,6,14,11,6],"shift_direction":1,"question_num":61,"has_decoy":false},{"rt":1473.5,"stimulus":"[A] option 1, [L] option 2, [G] neither","key_press":65,"name":"choice","trial_type":"html-keyboard-response","trial_index":87,"time_elapsed":126083,"internal_node_id":"0.0-87.0","subject":"S1C0800","sona":"40652","block":3,"time":"2021-09-04T00:15:35.077Z","response":"1st","certainty":"high","char":"A","transposition":-2,"order":["shifted","swapped"],"probe_pitches":[7,4,-1,6,2,3,4,-2],"shifted_pitches":[7,4,-1,6,1,3,4,-2],"swapped_pitches":[7,4,-1,2,6,3,4,-2],"shift_direction":-1,"question_num":71,"has_decoy":false},{"rt":2005.2000000476837,"stimulus":"[A] option 1, [L] option 2, [G] neither","key_press":76,"name":"choice","trial_type":"html-keyboard-response","trial_index":98,"time_elapsed":142514,"internal_node_id":"0.0-98.0","subject":"S1C0800","sona":"40652","block":3,"time":"2021-09-04T00:15:35.077Z","response":"2nd","certainty":"high","char":"L","transposition":1,"order":["shifted","swapped"],"probe_pitches":[12,9,12,7,4,9,12,2],"shifted_pitches":[12,9,12,6,4,9,12,2],"swapped_pitches":[12,9,12,4,7,9,12,2],"shift_direction":-1,"question_num":81,"has_decoy":false},{"rt":955.6999999284744,"stimulus":"[A] option 1, [L] option 2, [G] neither","key_press":65,"name":"choice","trial_type":"html-keyboard-response","trial_index":109,"time_elapsed":157835,"internal_node_id":"0.0-109.0","subject":"S1C0800","sona":"40652","block":3,"time":"2021-09-04T00:15:35.077Z","response":"1st","certainty":"high","char":"A","transposition":-3,"order":["swapped","shifted"],"probe_pitches":[7,5,3,-1,1,5,6,2],"shifted_pitches":[7,5,3,0,1,5,6,2],"swapped_pitches":[7,5,3,1,-1,5,6,2],"shift_direction":1,"question_num":91,"has_decoy":false},{"rt":1268.5,"stimulus":"[A] option 1, [L] option 2, [G] neither","key_press":76,"name":"choice","trial_type":"html-keyboard-response","trial_index":120,"time_elapsed":173727,"internal_node_id":"0.0-120.0","subject":"S1C0800","sona":"40652","block":3,"time":"2021-09-04T00:15:35.077Z","response":"2nd","certainty":"high","char":"L","transposition":-1,"order":["swapped","shifted"],"probe_pitches":[8,5,3,8,1,3,4,-1],"shifted_pitches":[8,5,3,7,1,3,4,-1],"swapped_pitches":[8,5,3,1,8,3,4,-1],"shift_direction":-1,"question_num":101,"has_decoy":false},{"rt":1499.3999999761581,"stimulus":"[A] option 1, [L] option 2, [G] neither","key_press":65,"name":"choice","trial_type":"html-keyboard-response","trial_index":131,"time_elapsed":189769,"internal_node_id":"0.0-131.0","subject":"S1C0800","sona":"40652","block":3,"time":"2021-09-04T00:15:35.077Z","response":"1st","certainty":"high","char":"A","transposition":0,"order":["shifted","swapped"],"probe_pitches":[4,2,-3,-2,6,-3,6,9],"shifted_pitches":[4,2,-3,-1,6,-3,6,9],"swapped_pitches":[4,2,-3,6,-2,-3,6,9],"shift_direction":1,"question_num":111,"has_decoy":false},{"rt":1126,"stimulus":"[A] option 1, [L] option 2, [G] neither","key_press":76,"name":"choice","trial_type":"html-keyboard-response","trial_index":142,"time_elapsed":205295,"internal_node_id":"0.0-142.0","subject":"S1C0800","sona":"40652","block":3,"time":"2021-09-04T00:15:35.077Z","response":"2nd","certainty":"high","char":"L","transposition":3,"order":["swapped","shifted"],"probe_pitches":[14,10,14,10,7,12,10,5],"shifted_pitches":[14,10,14,9,7,12,10,5],"swapped_pitches":[14,10,14,7,10,12,10,5],"shift_direction":-1,"question_num":121,"has_decoy":false},{"rt":543.7000000476837,"stimulus":"[A] option 1, [L] option 2, [G] neither","key_press":65,"name":"choice","trial_type":"html-keyboard-response","trial_index":153,"time_elapsed":220152,"internal_node_id":"0.0-153.0","subject":"S1C0800","sona":"40652","block":3,"time":"2021-09-04T00:15:35.077Z","response":"1st","certainty":"high","char":"A","transposition":3,"order":["shifted","swapped"],"probe_pitches":[7,8,3,4,5,-2,9,7],"shifted_pitches":[7,8,3,4,6,-2,9,7],"swapped_pitches":[7,8,3,5,4,-2,9,7],"shift_direction":1,"question_num":131,"has_decoy":false},{"rt":1014.8999999761581,"stimulus":"[A] option 1, [L] option 2, [G] neither","key_press":76,"name":"choice","trial_type":"html-keyboard-response","trial_index":164,"time_elapsed":236243,"internal_node_id":"0.0-164.0","subject":"S1C0800","sona":"40652","block":3,"time":"2021-09-04T00:15:35.077Z","response":"2nd","certainty":"high","char":"L","transposition":-1,"order":["shifted","swapped"],"probe_pitches":[-3,3,7,2,5,7,-2,1],"shifted_pitches":[-3,3,7,2,4,7,-2,1],"swapped_pitches":[-3,3,7,5,2,7,-2,1],"shift_direction":-1,"question_num":141,"has_decoy":false},{"rt":966.0999999046326,"stimulus":"[A] option 1, [L] option 2, [G] neither","key_press":65,"name":"choice","trial_type":"html-keyboard-response","trial_index":175,"time_elapsed":251524,"internal_node_id":"0.0-175.0","subject":"S1C0800","sona":"40652","block":3,"time":"2021-09-04T00:15:35.077Z","response":"1st","certainty":"high","char":"A","transposition":-2,"order":["swapped","shifted"],"probe_pitches":[6,9,7,3,4,8,5,8],"shifted_pitches":[6,9,7,2,4,8,5,8],"swapped_pitches":[6,9,7,4,3,8,5,8],"shift_direction":-1,"question_num":151,"has_decoy":false},{"rt":824.1000000238419,"stimulus":"[A] option 1, [L] option 2, [G] neither","key_press":76,"name":"choice","trial_type":"html-keyboard-response","trial_index":186,"time_elapsed":266753,"internal_node_id":"0.0-186.0","subject":"S1C0800","sona":"40652","block":3,"time":"2021-09-04T00:15:35.077Z","response":"2nd","certainty":"high","char":"L","transposition":-3,"order":["shifted","swapped"],"probe_pitches":[14,9,11,14,7,4,2,11],"shifted_pitches":[14,9,11,15,7,4,2,11],"swapped_pitches":[14,9,11,7,14,4,2,11],"shift_direction":1,"question_num":161,"has_decoy":false},{"rt":1225.6999999284744,"stimulus":"[A] option 1, [L] option 2, [G] neither","key_press":65,"name":"choice","trial_type":"html-keyboard-response","trial_index":197,"time_elapsed":282445,"internal_node_id":"0.0-197.0","subject":"S1C0800","sona":"40652","block":3,"time":"2021-09-04T00:15:35.077Z","response":"1st","certainty":"high","char":"A","transposition":2,"order":["swapped","shifted"],"probe_pitches":[4,-1,3,1,6,-3,-1,2],"shifted_pitches":[4,-1,3,1,5,-3,-1,2],"swapped_pitches":[4,-1,3,6,1,-3,-1,2],"shift_direction":-1,"question_num":171,"has_decoy":false},{"rt":573.8000000715256,"stimulus":"[A] option 1, [L] option 2, [G] neither","key_press":65,"name":"choice","trial_type":"html-keyboard-response","trial_index":208,"time_elapsed":297413,"internal_node_id":"0.0-208.0","subject":"S1C0800","sona":"40652","block":3,"time":"2021-09-04T00:15:35.077Z","response":"1st","certainty":"high","char":"A","transposition":-3,"order":["swapped","shifted"],"probe_pitches":[5,3,1,7,9,1,4,9],"shifted_pitches":[5,3,1,8,9,1,4,9],"swapped_pitches":[5,3,1,9,7,1,4,9],"shift_direction":1,"question_num":181,"has_decoy":false},{"rt":574,"stimulus":"[A] option 1, [L] option 2, [G] neither","key_press":76,"name":"choice","trial_type":"html-keyboard-response","trial_index":219,"time_elapsed":312443,"internal_node_id":"0.0-219.0","subject":"S1C0800","sona":"40652","block":3,"time":"2021-09-04T00:15:35.077Z","response":"2nd","certainty":"high","char":"L","transposition":1,"order":["shifted","swapped"],"probe_pitches":[2,-2,-3,0,2,5,-2,6],"shifted_pitches":[2,-2,-3,0,3,5,-2,6],"swapped_pitches":[2,-2,-3,2,0,5,-2,6],"shift_direction":1,"question_num":191,"has_decoy":false}]