[{"rt":1250.3000000715256,"stimulus":"[A] option 1, [L] option 2, [G] neither","key_press":76,"name":"choice","trial_type":"html-keyboard-response","trial_index":10,"time_elapsed":15684,"internal_node_id":"0.0-10.0","subject":"S1C0800","sona":"40652","block":4,"time":"2021-09-04T00:20:44.938Z","response":"2nd","certainty":"high","char":"L","transposition":1,"order":["swapped","shifted"],"probe_pitches":[10,5,-2,0,2,7,2,7],"shifted_pitches":[10,5,-2,1,2,7,2,7],"swapped_pitches":[10,5,-2,2,0,7,2,7],"shift_direction":1,"question_num":1,"has_decoy":false},{"rt":482.8000000715256,"stimulus":"[A] option 1, [L] option 2, [G] neither","key_press":65,"name":"choice","trial_type":"html-keyboard-response","trial_index":21,"time_elapsed":30517,"internal_node_id":"0.0-21.0","subject":"S1C0800","sona":"40652","block":4,"time":"2021-09-04T00:20:44.938Z","response":"1st","certainty":"high","char":"A","transposition":2,"order":["shifted","swapped"],"probe_pitches":[1,5,2,5,11,12,2,4],"shifted_pitches":[1,5,2,6,11,12,2,4],"swapped_pitches":[1,5,2,11,5,12,2,4],"shift_direction":1,"question_num":11,"has_decoy":false},{"rt":589.7000000476837,"stimulus":"[A] option 1, [L] option 2, [G] neither","key_press":76,"name":"choice","trial_type":"html-keyboard-response","trial_index":32,"time_elapsed":45463,"internal_node_id":"0.0-32.0","subject":"S1C0800","sona":"40652","block":4,"time":"2021-09-04T00:20:44.938Z","response":"2nd","certainty":"high","char":"L","transposition":-3,"order":["swapped","shifted"],"probe_pitches":[4,8,12,6,0,4,5,8],"shifted_pitches":[4,8,12,6,-1,4,5,8],"swapped_pitches":[4,8,12,0,6,4,5,8],"shift_direction":-1,"question_num":21,"has_decoy":false},{"rt":1729.7000000476837,"stimulus":"[A] option 1, [L] option 2, [G] neither","key_press":65,"name":"choice","trial_type":"html-keyboard-response","trial_index":43,"time_elapsed":61585,"internal_node_id":"0.0-43.0","subject":"S1C0800","sona":"40652","block":4,"time":"2021-09-04T00:20:44.938Z","response":"1st","certainty":"high","char":"A","transposition":-1,"order":["shifted","swapped"],"probe_pitches":[4,1,2,9,0,4,5,10],"shifted_pitches":[4,1,2,8,0,4,5,10],"swapped_pitches":[4,1,2,0,9,4,5,10],"shift_direction":-1,"question_num":31,"has_decoy":false},{"rt":1540.3999999761581,"stimulus":"[A] option 1, [L] option 2, [G] neither","key_press":76,"name":"choice","trial_type":"html-keyboard-response","trial_index":54,"time_elapsed":77524,"internal_node_id":"0.0-54.0","subject":"S1C0800","sona":"40652","block":4,"time":"2021-09-04T00:20:44.938Z","response":"2nd","certainty":"high","char":"L","transposition":3,"order":["swapped","shifted"],"probe_pitches":[12,10,7,12,10,4,3,6],"shifted_pitches":[12,10,7,12,9,4,3,6],"swapped_pitches":[12,10,7,10,12,4,3,6],"shift_direction":-1,"question_num":41,"has_decoy":false},{"rt":468.39999997615814,"stimulus":"[A] option 1, [L] option 2, [G] neither","key_press":76,"name":"choice","trial_type":"html-keyboard-response","trial_index":65,"time_elapsed":92371,"internal_node_id":"0.0-65.0","subject":"S1C0800","sona":"40652","block":4,"time":"2021-09-04T00:20:44.938Z","response":"2nd","certainty":"high","char":"L","transposition":2,"order":["shifted","swapped"],"probe_pitches":[8,10,8,10,3,-2,5,0],"shifted_pitches":[8,10,8,10,4,-2,5,0],"swapped_pitches":[8,10,8,3,10,-2,5,0],"shift_direction":1,"question_num":51,"has_decoy":false},{"rt":700.1000000238419,"stimulus":"[A] option 1, [L] option 2, [G] neither","key_press":65,"name":"choice","trial_type":"html-keyboard-response","trial_index":76,"time_elapsed":107465,"internal_node_id":"0.0-76.0","subject":"S1C0800","sona":"40652","block":4,"time":"2021-09-04T00:20:44.938Z","response":"1st","certainty":"high","char":"A","transposition":-2,"order":["shifted","swapped"],"probe_pitches":[10,8,10,6,3,8,-2,1],"shifted_pitches":[10,8,10,6,2,8,-2,1],"swapped_pitches":[10,8,10,3,6,8,-2,1],"shift_direction":-1,"question_num":61,"has_decoy":false},{"rt":796.5999999046326,"stimulus":"[A] option 1, [L] option 2, [G] neither","key_press":65,"name":"choice","trial_type":"html-keyboard-response","trial_index":87,"time_elapsed":122350,"internal_node_id":"0.0-87.0","subject":"S1C0800","sona":"40652","block":4,"time":"2021-09-04T00:20:44.938Z","response":"1st","certainty":"high","char":"A","transposition":-3,"order":["swapped","shifted"],"probe_pitches":[1,5,11,8,6,10,3,11],"shifted_pitches":[1,5,11,8,7,10,3,11],"swapped_pitches":[1,5,11,6,8,10,3,11],"shift_direction":1,"question_num":71,"has_decoy":false},{"rt":1129.8000000715256,"stimulus":"[A] option 1, [L] option 2, [G] neither","key_press":76,"name":"choice","trial_type":"html-keyboard-response","trial_index":98,"time_elapsed":137845,"internal_node_id":"0.0-98.0","subject":"S1C0800","sona":"40652","block":4,"time":"2021-09-04T00:20:44.938Z","response":"2nd","certainty":"high","char":"L","transposition":1,"order":["shifted","swapped"],"probe_pitches":[12,9,6,1,9,2,12,0],"shifted_pitches":[12,9,6,1,10,2,12,0],"swapped_pitches":[12,9,6,9,1,2,12,0],"shift_direction":1,"question_num":81,"has_decoy":false},{"rt":1074.2000000476837,"stimulus":"[A] option 1, [L] option 2, [G] neither","key_press":76,"name":"choice","trial_type":"html-keyboard-response","trial_index":109,"time_elapsed":153329,"internal_node_id":"0.0-109.0","subject":"S1C0800","sona":"40652","block":4,"time":"2021-09-04T00:20:44.938Z","response":"2nd","certainty":"high","char":"L","transposition":-1,"order":["shifted","swapped"],"probe_pitches":[6,1,2,4,9,3,9,12],"shifted_pitches":[6,1,2,5,9,3,9,12],"swapped_pitches":[6,1,2,9,4,3,9,12],"shift_direction":1,"question_num":91,"has_decoy":false},{"rt":2199.2000000476837,"stimulus":"[A] option 1, [L] option 2, [G] neither","key_press":65,"name":"choice","trial_type":"html-keyboard-response","trial_index":120,"time_elapsed":169932,"internal_node_id":"0.0-120.0","subject":"S1C0800","sona":"40652","block":4,"time":"2021-09-04T00:20:44.938Z","response":"1st","certainty":"high","char":"A","transposition":0,"order":["swapped","shifted"],"probe_pitches":[1,3,10,11,5,0,11,12],"shifted_pitches":[1,3,10,11,4,0,11,12],"swapped_pitches":[1,3,10,5,11,0,11,12],"shift_direction":-1,"question_num":101,"has_decoy":false},{"rt":373.2999999523163,"stimulus":"[A] option 1, [L] option 2, [G] neither","key_press":76,"name":"choice","trial_type":"html-keyboard-response","trial_index":131,"time_elapsed":184745,"internal_node_id":"0.0-131.0","subject":"S1C0800","sona":"40652","block":4,"time":"2021-09-04T00:20:44.938Z","response":"2nd","certainty":"high","char":"L","transposition":-1,"order":["swapped","shifted"],"probe_pitches":[10,6,10,3,8,-2,6,1],"shifted_pitches":[10,6,10,3,7,-2,6,1],"swapped_pitches":[10,6,10,8,3,-2,6,1],"shift_direction":-1,"question_num":111,"has_decoy":false},{"rt":306.5,"stimulus":"[A] option 1, [L] option 2, [G] neither","key_press":65,"name":"choice","trial_type":"html-keyboard-response","trial_index":142,"time_elapsed":199378,"internal_node_id":"0.0-142.0","subject":"S1C0800","sona":"40652","block":4,"time":"2021-09-04T00:20:44.938Z","response":"1st","certainty":"high","char":"A","transposition":-2,"order":["swapped","shifted"],"probe_pitches":[2,7,12,4,10,0,8,2],"shifted_pitches":[2,7,12,3,10,0,8,2],"swapped_pitches":[2,7,12,10,4,0,8,2],"shift_direction":-1,"question_num":121,"has_decoy":false},{"rt":1483.3999999761581,"stimulus":"[A] option 1, [L] option 2, [G] neither","key_press":76,"name":"choice","trial_type":"html-keyboard-response","trial_index":153,"time_elapsed":215155,"internal_node_id":"0.0-153.0","subject":"S1C0800","sona":"40652","block":4,"time":"2021-09-04T00:20:44.938Z","response":"2nd","certainty":"high","char":"L","transposition":-3,"order":["swapped","shifted"],"probe_pitches":[3,5,8,3,-2,1,5,3],"shifted_pitches":[3,5,8,3,-3,1,5,3],"swapped_pitches":[3,5,8,-2,3,1,5,3],"shift_direction":-1,"question_num":131,"has_decoy":false},{"rt":1997.3000000715256,"stimulus":"[A] option 1, [L] option 2, [G] neither","key_press":65,"name":"choice","trial_type":"html-keyboard-response","trial_index":164,"time_elapsed":231478,"internal_node_id":"0.0-164.0","subject":"S1C0800","sona":"40652","block":4,"time":"2021-09-04T00:20:44.938Z","response":"1st","certainty":"high","char":"A","transposition":-3,"order":["shifted","swapped"],"probe_pitches":[0,5,10,2,0,7,-2,0],"shifted_pitches":[0,5,10,3,0,7,-2,0],"swapped_pitches":[0,5,10,0,2,7,-2,0],"shift_direction":1,"question_num":141,"has_decoy":false},{"rt":999.7999999523163,"stimulus":"[A] option 1, [L] option 2, [G] neither","key_press":76,"name":"choice","trial_type":"html-keyboard-response","trial_index":175,"time_elapsed":246863,"internal_node_id":"0.0-175.0","subject":"S1C0800","sona":"40652","block":4,"time":"2021-09-04T00:20:44.938Z","response":"2nd","certainty":"high","char":"L","transposition":-2,"order":["shifted","swapped"],"probe_pitches":[0,3,8,1,7,0,7,11],"shifted_pitches":[0,3,8,2,7,0,7,11],"swapped_pitches":[0,3,8,7,1,0,7,11],"shift_direction":1,"question_num":151,"has_decoy":false},{"rt":574.7999999523163,"stimulus":"[A] option 1, [L] option 2, [G] neither","key_press":65,"name":"choice","trial_type":"html-keyboard-response","trial_index":186,"time_elapsed":261936,"internal_node_id":"0.0-186.0","subject":"S1C0800","sona":"40652","block":4,"time":"2021-09-04T00:20:44.938Z","response":"1st","certainty":"high","char":"A","transposition":-2,"order":["swapped","shifted"],"probe_pitches":[3,8,3,10,5,1,3,8],"shifted_pitches":[3,8,3,9,5,1,3,8],"swapped_pitches":[3,8,3,5,10,1,3,8],"shift_direction":-1,"question_num":161,"has_decoy":false},{"rt":1254.6000000238419,"stimulus":"[A] option 1, [L] option 2, [G] neither","key_press":76,"name":"choice","trial_type":"html-keyboard-response","trial_index":197,"time_elapsed":277668,"internal_node_id":"0.0-197.0","subject":"S1C0800","sona":"40652","block":4,"time":"2021-09-04T00:20:44.938Z","response":"2nd","certainty":"high","char":"L","transposition":0,"order":["swapped","shifted"],"probe_pitches":[5,7,10,5,3,0,7,10],"shifted_pitches":[5,7,10,4,3,0,7,10],"swapped_pitches":[5,7,10,3,5,0,7,10],"shift_direction":-1,"question_num":171,"has_decoy":false},{"rt":364,"stimulus":"[A] option 1, [L] option 2, [G] neither","key_press":76,"name":"choice","trial_type":"html-keyboard-response","trial_index":208,"time_elapsed":292408,"internal_node_id":"0.0-208.0","subject":"S1C0800","sona":"40652","block":4,"time":"2021-09-04T00:20:44.938Z","response":"2nd","certainty":"high","char":"L","transposition":-1,"order":["shifted","swapped"],"probe_pitches":[0,-2,0,-2,3,5,8,10],"shifted_pitches":[0,-2,0,-2,4,5,8,10],"swapped_pitches":[0,-2,0,3,-2,5,8,10],"shift_direction":1,"question_num":181,"has_decoy":false},{"rt":423.39999997615814,"stimulus":"[A] option 1, [L] option 2, [G] neither","key_press":65,"name":"choice","trial_type":"html-keyboard-response","trial_index":219,"time_elapsed":307178,"internal_node_id":"0.0-219.0","subject":"S1C0800","sona":"40652","block":4,"time":"2021-09-04T00:20:44.938Z","response":"1st","certainty":"high","char":"A","transposition":3,"order":["shifted","swapped"],"probe_pitches":[10,5,0,3,-2,7,3,10],"shifted_pitches":[10,5,0,4,-2,7,3,10],"swapped_pitches":[10,5,0,-2,3,7,3,10],"shift_direction":1,"question_num":191,"has_decoy":false}]