[{"rt":3669.399999976158,"stimulus":"[A] option 1, [L] option 2, [G] neither","key_press":71,"name":"choice","trial_type":"html-keyboard-response","trial_index":10,"time_elapsed":18065,"internal_node_id":"0.0-10.0","subject":"S1C0800","sona":"40652","block":5,"time":"2021-09-04T00:25:58.811Z","response":"neither","certainty":"high","char":"G","transposition":-3,"order":["shifted","swapped"],"probe_pitches":[9,6,12,6,5,3,5,14],"shifted_pitches":[9,6,12,7,5,3,5,14],"swapped_pitches":[9,6,12,5,6,3,5,14],"shift_direction":1,"question_num":1,"has_decoy":false},{"rt":512.7999999523163,"stimulus":"[A] option 1, [L] option 2, [G] neither","key_press":76,"name":"choice","trial_type":"html-keyboard-response","trial_index":21,"time_elapsed":33849,"internal_node_id":"0.0-21.0","subject":"S1C0800","sona":"40652","block":5,"time":"2021-09-04T00:25:58.811Z","response":"2nd","certainty":"high","char":"L","transposition":-2,"order":["swapped","shifted"],"probe_pitches":[4,9,2,-1,6,9,-1,9],"shifted_pitches":[4,9,2,-1,7,9,-1,9],"swapped_pitches":[4,9,2,6,-1,9,-1,9],"shift_direction":1,"question_num":11,"has_decoy":false},{"rt":659.5,"stimulus":"[A] option 1, [L] option 2, [G] neither","key_press":76,"name":"choice","trial_type":"html-keyboard-response","trial_index":32,"time_elapsed":48874,"internal_node_id":"0.0-32.0","subject":"S1C0800","sona":"40652","block":5,"time":"2021-09-04T00:25:58.811Z","response":"2nd","certainty":"high","char":"L","transposition":1,"order":["swapped","shifted"],"probe_pitches":[14,13,14,8,9,3,12,13],"shifted_pitches":[14,13,14,8,10,3,12,13],"swapped_pitches":[14,13,14,9,8,3,12,13],"shift_direction":1,"question_num":21,"has_decoy":false},{"rt":712.6000000238419,"stimulus":"[A] option 1, [L] option 2, [G] neither","key_press":76,"name":"choice","trial_type":"html-keyboard-response","trial_index":43,"time_elapsed":63949,"internal_node_id":"0.0-43.0","subject":"S1C0800","sona":"40652","block":5,"time":"2021-09-04T00:25:58.811Z","response":"2nd","certainty":"high","char":"L","transposition":-2,"order":["shifted","swapped"],"probe_pitches":[11,9,11,6,1,-1,1,4],"shifted_pitches":[11,9,11,6,0,-1,1,4],"swapped_pitches":[11,9,11,1,6,-1,1,4],"shift_direction":-1,"question_num":31,"has_decoy":false},{"rt":832.8999999761581,"stimulus":"[A] option 1, [L] option 2, [G] neither","key_press":65,"name":"choice","trial_type":"html-keyboard-response","trial_index":54,"time_elapsed":79149,"internal_node_id":"0.0-54.0","subject":"S1C0800","sona":"40652","block":5,"time":"2021-09-04T00:25:58.811Z","response":"1st","certainty":"high","char":"A","transposition":3,"order":["shifted","swapped"],"probe_pitches":[13,7,13,5,7,9,7,12],"shifted_pitches":[13,7,13,4,7,9,7,12],"swapped_pitches":[13,7,13,7,5,9,7,12],"shift_direction":-1,"question_num":41,"has_decoy":false},{"rt":541,"stimulus":"[A] option 1, [L] option 2, [G] neither","key_press":76,"name":"choice","trial_type":"html-keyboard-response","trial_index":65,"time_elapsed":94096,"internal_node_id":"0.0-65.0","subject":"S1C0800","sona":"40652","block":5,"time":"2021-09-04T00:25:58.811Z","response":"2nd","certainty":"high","char":"L","transposition":2,"order":["shifted","swapped"],"probe_pitches":[3,1,3,8,6,3,11,-1],"shifted_pitches":[3,1,3,8,5,3,11,-1],"swapped_pitches":[3,1,3,6,8,3,11,-1],"shift_direction":-1,"question_num":51,"has_decoy":false},{"rt":1530.3000000715256,"stimulus":"[A] option 1, [L] option 2, [G] neither","key_press":65,"name":"choice","trial_type":"html-keyboard-response","trial_index":76,"time_elapsed":109976,"internal_node_id":"0.0-76.0","subject":"S1C0800","sona":"40652","block":5,"time":"2021-09-04T00:25:58.811Z","response":"1st","certainty":"high","char":"A","transposition":-1,"order":["swapped","shifted"],"probe_pitches":[12,9,5,7,4,10,2,4],"shifted_pitches":[12,9,5,6,4,10,2,4],"swapped_pitches":[12,9,5,4,7,10,2,4],"shift_direction":-1,"question_num":61,"has_decoy":false},{"rt":1115.3999999761581,"stimulus":"[A] option 1, [L] option 2, [G] neither","key_press":76,"name":"choice","trial_type":"html-keyboard-response","trial_index":87,"time_elapsed":125442,"internal_node_id":"0.0-87.0","subject":"S1C0800","sona":"40652","block":5,"time":"2021-09-04T00:25:58.811Z","response":"2nd","certainty":"high","char":"L","transposition":-2,"order":["swapped","shifted"],"probe_pitches":[14,12,7,10,14,8,4,13],"shifted_pitches":[14,12,7,9,14,8,4,13],"swapped_pitches":[14,12,7,14,10,8,4,13],"shift_direction":-1,"question_num":71,"has_decoy":false},{"rt":439.5,"stimulus":"[A] option 1, [L] option 2, [G] neither","key_press":76,"name":"choice","trial_type":"html-keyboard-response","trial_index":98,"time_elapsed":140285,"internal_node_id":"0.0-98.0","subject":"S1C0800","sona":"40652","block":5,"time":"2021-09-04T00:25:58.811Z","response":"2nd","certainty":"high","char":"L","transposition":-3,"order":["swapped","shifted"],"probe_pitches":[11,9,2,-1,4,2,9,6],"shifted_pitches":[11,9,2,-1,3,2,9,6],"swapped_pitches":[11,9,2,4,-1,2,9,6],"shift_direction":-1,"question_num":81,"has_decoy":false},{"rt":2099.1999999284744,"stimulus":"[A] option 1, [L] option 2, [G] neither","key_press":65,"name":"choice","trial_type":"html-keyboard-response","trial_index":109,"time_elapsed":156596,"internal_node_id":"0.0-109.0","subject":"S1C0800","sona":"40652","block":5,"time":"2021-09-04T00:25:58.811Z","response":"1st","certainty":"high","char":"A","transposition":-1,"order":["shifted","swapped"],"probe_pitches":[4,7,5,10,12,14,7,13],"shifted_pitches":[4,7,5,10,11,14,7,13],"swapped_pitches":[4,7,5,12,10,14,7,13],"shift_direction":-1,"question_num":91,"has_decoy":false},{"rt":518.7999999523163,"stimulus":"[A] option 1, [L] option 2, [G] neither","key_press":76,"name":"choice","trial_type":"html-keyboard-response","trial_index":120,"time_elapsed":171545,"internal_node_id":"0.0-120.0","subject":"S1C0800","sona":"40652","block":5,"time":"2021-09-04T00:25:58.811Z","response":"2nd","certainty":"high","char":"L","transposition":0,"order":["shifted","swapped"],"probe_pitches":[11,8,7,10,6,4,13,8],"shifted_pitches":[11,8,7,10,5,4,13,8],"swapped_pitches":[11,8,7,6,10,4,13,8],"shift_direction":-1,"question_num":101,"has_decoy":false},{"rt":466.10000002384186,"stimulus":"[A] option 1, [L] option 2, [G] neither","key_press":65,"name":"choice","trial_type":"html-keyboard-response","trial_index":131,"time_elapsed":186432,"internal_node_id":"0.0-131.0","subject":"S1C0800","sona":"40652","block":5,"time":"2021-09-04T00:25:58.811Z","response":"1st","certainty":"high","char":"A","transposition":1,"order":["shifted","swapped"],"probe_pitches":[3,-1,1,8,-1,3,-1,6],"shifted_pitches":[3,-1,1,9,-1,3,-1,6],"swapped_pitches":[3,-1,1,-1,8,3,-1,6],"shift_direction":1,"question_num":111,"has_decoy":false},{"rt":1264.2999999523163,"stimulus":"[A] option 1, [L] option 2, [G] neither","key_press":76,"name":"choice","trial_type":"html-keyboard-response","trial_index":142,"time_elapsed":202000,"internal_node_id":"0.0-142.0","subject":"S1C0800","sona":"40652","block":5,"time":"2021-09-04T00:25:58.811Z","response":"2nd","certainty":"high","char":"L","transposition":3,"order":["shifted","swapped"],"probe_pitches":[11,7,4,11,9,4,-1,2],"shifted_pitches":[11,7,4,11,10,4,-1,2],"swapped_pitches":[11,7,4,9,11,4,-1,2],"shift_direction":1,"question_num":121,"has_decoy":false},{"rt":1205.3999999761581,"stimulus":"[A] option 1, [L] option 2, [G] neither","key_press":65,"name":"choice","trial_type":"html-keyboard-response","trial_index":153,"time_elapsed":217610,"internal_node_id":"0.0-153.0","subject":"S1C0800","sona":"40652","block":5,"time":"2021-09-04T00:25:58.811Z","response":"1st","certainty":"high","char":"A","transposition":-1,"order":["shifted","swapped"],"probe_pitches":[-1,1,6,9,4,6,11,-1],"shifted_pitches":[-1,1,6,10,4,6,11,-1],"swapped_pitches":[-1,1,6,4,9,6,11,-1],"shift_direction":1,"question_num":131,"has_decoy":false},{"rt":1379.3999999761581,"stimulus":"[A] option 1, [L] option 2, [G] neither","key_press":76,"name":"choice","trial_type":"html-keyboard-response","trial_index":164,"time_elapsed":233335,"internal_node_id":"0.0-164.0","subject":"S1C0800","sona":"40652","block":5,"time":"2021-09-04T00:25:58.811Z","response":"2nd","certainty":"high","char":"L","transposition":-3,"order":["swapped","shifted"],"probe_pitches":[6,1,8,6,11,4,11,4],"shifted_pitches":[6,1,8,5,11,4,11,4],"swapped_pitches":[6,1,8,11,6,4,11,4],"shift_direction":-1,"question_num":141,"has_decoy":false},{"rt":1761.3999999761581,"stimulus":"[A] option 1, [L] option 2, [G] neither","key_press":76,"name":"choice","trial_type":"html-keyboard-response","trial_index":175,"time_elapsed":249437,"internal_node_id":"0.0-175.0","subject":"S1C0800","sona":"40652","block":5,"time":"2021-09-04T00:25:58.811Z","response":"2nd","certainty":"high","char":"L","transposition":-2,"order":["shifted","swapped"],"probe_pitches":[3,4,3,7,2,10,6,4],"shifted_pitches":[3,4,3,8,2,10,6,4],"swapped_pitches":[3,4,3,2,7,10,6,4],"shift_direction":1,"question_num":151,"has_decoy":false},{"rt":1203,"stimulus":"[A] option 1, [L] option 2, [G] neither","key_press":76,"name":"choice","trial_type":"html-keyboard-response","trial_index":186,"time_elapsed":265009,"internal_node_id":"0.0-186.0","subject":"S1C0800","sona":"40652","block":5,"time":"2021-09-04T00:25:58.811Z","response":"2nd","certainty":"high","char":"L","transposition":-1,"order":["swapped","shifted"],"probe_pitches":[9,4,7,-1,2,7,9,-1],"shifted_pitches":[9,4,7,-2,2,7,9,-1],"swapped_pitches":[9,4,7,2,-1,7,9,-1],"shift_direction":-1,"question_num":161,"has_decoy":false},{"rt":1259.3999999761581,"stimulus":"[A] option 1, [L] option 2, [G] neither","key_press":65,"name":"choice","trial_type":"html-keyboard-response","trial_index":197,"time_elapsed":280545,"internal_node_id":"0.0-197.0","subject":"S1C0800","sona":"40652","block":5,"time":"2021-09-04T00:25:58.811Z","response":"1st","certainty":"high","char":"A","transposition":0,"order":["swapped","shifted"],"probe_pitches":[4,-1,1,6,8,11,6,11],"shifted_pitches":[4,-1,1,7,8,11,6,11],"swapped_pitches":[4,-1,1,8,6,11,6,11],"shift_direction":1,"question_num":171,"has_decoy":false},{"rt":866.2000000476837,"stimulus":"[A] option 1, [L] option 2, [G] neither","key_press":76,"name":"choice","trial_type":"html-keyboard-response","trial_index":208,"time_elapsed":295850,"internal_node_id":"0.0-208.0","subject":"S1C0800","sona":"40652","block":5,"time":"2021-09-04T00:25:58.811Z","response":"2nd","certainty":"high","char":"L","transposition":-3,"order":["swapped","shifted"],"probe_pitches":[13,9,3,9,11,8,14,5],"shifted_pitches":[13,9,3,9,12,8,14,5],"swapped_pitches":[13,9,3,11,9,8,14,5],"shift_direction":1,"question_num":181,"has_decoy":false},{"rt":908.8999999761581,"stimulus":"[A] option 1, [L] option 2, [G] neither","key_press":76,"name":"choice","trial_type":"html-keyboard-response","trial_index":219,"time_elapsed":311105,"internal_node_id":"0.0-219.0","subject":"S1C0800","sona":"40652","block":5,"time":"2021-09-04T00:25:58.811Z","response":"2nd","certainty":"high","char":"L","transposition":2,"order":["swapped","shifted"],"probe_pitches":[3,6,8,11,12,2,9,11],"shifted_pitches":[3,6,8,11,13,2,9,11],"swapped_pitches":[3,6,8,12,11,2,9,11],"shift_direction":1,"question_num":191,"has_decoy":false}]