[{"rt":268.5,"stimulus":"[A] option 1, [L] option 2, [G] neither","key_press":76,"name":"choice","trial_type":"html-keyboard-response","trial_index":10,"time_elapsed":25970,"internal_node_id":"0.0-10.0","subject":"S1C1668","sona":"41539","block":2,"time":"2021-09-23T23:59:44.270Z","response":"2nd","certainty":"high","char":"L","transposition":-1,"order":["swapped","shifted"],"probe_pitches":[3,-2,3,5,10,0,10,0,5,-2,10,7,0,-2,3,7],"shifted_pitches":[3,-2,3,5,10,0,10,0,4,-2,10,7,0,-2,3,7],"swapped_pitches":[3,-2,3,5,10,0,10,5,0,-2,10,7,0,-2,3,7],"shift_direction":-1,"question_num":1,"has_decoy":false},{"rt":895.6999999880791,"stimulus":"[A] option 1, [L] option 2, [G] neither","key_press":65,"name":"choice","trial_type":"html-keyboard-response","trial_index":21,"time_elapsed":50197,"internal_node_id":"0.0-21.0","subject":"S1C1668","sona":"41539","block":2,"time":"2021-09-23T23:59:44.270Z","response":"1st","certainty":"high","char":"A","transposition":-2,"order":["swapped","shifted"],"probe_pitches":[5,0,-1,2,5,4,9,0,8,7,-2,8,7,-2,7,9],"shifted_pitches":[5,0,-1,2,5,4,9,1,8,7,-2,8,7,-2,7,9],"swapped_pitches":[5,0,-1,2,5,4,9,8,0,7,-2,8,7,-2,7,9],"shift_direction":1,"question_num":11,"has_decoy":false},{"rt":1619.1000000238419,"stimulus":"[A] option 1, [L] option 2, [G] neither","key_press":76,"name":"choice","trial_type":"html-keyboard-response","trial_index":32,"time_elapsed":74531,"internal_node_id":"0.0-32.0","subject":"S1C1668","sona":"41539","block":2,"time":"2021-09-23T23:59:44.270Z","response":"2nd","certainty":"high","char":"L","transposition":-2,"order":["swapped","shifted"],"probe_pitches":[0,-2,5,7,-2,3,0,5,-2,10,0,5,0,3,5,0],"shifted_pitches":[0,-2,5,7,-2,3,0,4,-2,10,0,5,0,3,5,0],"swapped_pitches":[0,-2,5,7,-2,3,0,-2,5,10,0,5,0,3,5,0],"shift_direction":-1,"question_num":21,"has_decoy":false},{"rt":1314.6000000238419,"stimulus":"[A] option 1, [L] option 2, [G] neither","key_press":76,"name":"choice","trial_type":"html-keyboard-response","trial_index":43,"time_elapsed":98205,"internal_node_id":"0.0-43.0","subject":"S1C1668","sona":"41539","block":2,"time":"2021-09-23T23:59:44.270Z","response":"2nd","certainty":"high","char":"L","transposition":0,"order":["swapped","shifted"],"probe_pitches":[1,5,1,-2,5,10,8,3,1,10,1,3,8,-2,8,10],"shifted_pitches":[1,5,1,-2,5,10,8,3,2,10,1,3,8,-2,8,10],"swapped_pitches":[1,5,1,-2,5,10,8,1,3,10,1,3,8,-2,8,10],"shift_direction":1,"question_num":31,"has_decoy":false},{"rt":1452.3999999761581,"stimulus":"[A] option 1, [L] option 2, [G] neither","key_press":65,"name":"choice","trial_type":"html-keyboard-response","trial_index":54,"time_elapsed":123927,"internal_node_id":"0.0-54.0","subject":"S1C1668","sona":"41539","block":2,"time":"2021-09-23T23:59:44.270Z","response":"1st","certainty":"high","char":"A","transposition":3,"order":["shifted","swapped"],"probe_pitches":[6,10,3,-2,6,-2,8,6,1,3,6,3,6,1,-2,3],"shifted_pitches":[6,10,3,-2,6,-2,8,5,1,3,6,3,6,1,-2,3],"swapped_pitches":[6,10,3,-2,6,-2,8,1,6,3,6,3,6,1,-2,3],"shift_direction":-1,"question_num":41,"has_decoy":false},{"rt":5607.399999976158,"stimulus":"[A] option 1, [L] option 2, [G] neither","key_press":65,"name":"choice","trial_type":"html-keyboard-response","trial_index":65,"time_elapsed":152878,"internal_node_id":"0.0-65.0","subject":"S1C1668","sona":"41539","block":2,"time":"2021-09-23T23:59:44.270Z","response":"1st","certainty":"high","char":"A","transposition":0,"order":["swapped","shifted"],"probe_pitches":[-1,-3,3,-1,8,1,7,6,0,-2,4,6,8,2,8,1],"shifted_pitches":[-1,-3,3,-1,8,1,7,5,0,-2,4,6,8,2,8,1],"swapped_pitches":[-1,-3,3,-1,8,1,7,0,6,-2,4,6,8,2,8,1],"shift_direction":-1,"question_num":51,"has_decoy":false},{"rt":235.9000000357628,"stimulus":"[A] option 1, [L] option 2, [G] neither","key_press":76,"name":"choice","trial_type":"html-keyboard-response","trial_index":76,"time_elapsed":175409,"internal_node_id":"0.0-76.0","subject":"S1C1668","sona":"41539","block":2,"time":"2021-09-23T23:59:44.270Z","response":"2nd","certainty":"high","char":"L","transposition":-2,"order":["swapped","shifted"],"probe_pitches":[2,0,2,-2,0,7,2,7,0,5,10,0,7,5,2,0],"shifted_pitches":[2,0,2,-2,0,7,2,7,-1,5,10,0,7,5,2,0],"swapped_pitches":[2,0,2,-2,0,7,2,0,7,5,10,0,7,5,2,0],"shift_direction":-1,"question_num":61,"has_decoy":false},{"rt":628.2000000476837,"stimulus":"[A] option 1, [L] option 2, [G] neither","key_press":65,"name":"choice","trial_type":"html-keyboard-response","trial_index":87,"time_elapsed":198345,"internal_node_id":"0.0-87.0","subject":"S1C1668","sona":"41539","block":2,"time":"2021-09-23T23:59:44.270Z","response":"1st","certainty":"high","char":"A","transposition":1,"order":["shifted","swapped"],"probe_pitches":[5,8,5,0,-2,3,5,10,-2,5,3,10,8,3,10,0],"shifted_pitches":[5,8,5,0,-2,3,5,11,-2,5,3,10,8,3,10,0],"swapped_pitches":[5,8,5,0,-2,3,5,-2,10,5,3,10,8,3,10,0],"shift_direction":1,"question_num":71,"has_decoy":false},{"rt":680.1999999880791,"stimulus":"[A] option 1, [L] option 2, [G] neither","key_press":76,"name":"choice","trial_type":"html-keyboard-response","trial_index":98,"time_elapsed":221911,"internal_node_id":"0.0-98.0","subject":"S1C1668","sona":"41539","block":2,"time":"2021-09-23T23:59:44.270Z","response":"2nd","certainty":"high","char":"L","transposition":-3,"order":["swapped","shifted"],"probe_pitches":[3,1,6,-1,-3,-1,0,7,1,-3,7,-3,2,3,1,4],"shifted_pitches":[3,1,6,-1,-3,-1,0,8,1,-3,7,-3,2,3,1,4],"swapped_pitches":[3,1,6,-1,-3,-1,0,1,7,-3,7,-3,2,3,1,4],"shift_direction":1,"question_num":81,"has_decoy":false},{"rt":484.10000002384186,"stimulus":"[A] option 1, [L] option 2, [G] neither","key_press":76,"name":"choice","trial_type":"html-keyboard-response","trial_index":109,"time_elapsed":245848,"internal_node_id":"0.0-109.0","subject":"S1C1668","sona":"41539","block":2,"time":"2021-09-23T23:59:44.270Z","response":"2nd","certainty":"high","char":"L","transposition":1,"order":["shifted","swapped"],"probe_pitches":[0,-2,1,-2,-1,2,5,-2,2,-1,-2,4,1,0,-3,1],"shifted_pitches":[0,-2,1,-2,-1,2,5,-2,3,-1,-2,4,1,0,-3,1],"swapped_pitches":[0,-2,1,-2,-1,2,5,2,-2,-1,-2,4,1,0,-3,1],"shift_direction":1,"question_num":91,"has_decoy":false},{"rt":254.80000001192093,"stimulus":"[A] option 1, [L] option 2, [G] neither","key_press":76,"name":"choice","trial_type":"html-keyboard-response","trial_index":120,"time_elapsed":268643,"internal_node_id":"0.0-120.0","subject":"S1C1668","sona":"41539","block":2,"time":"2021-09-23T23:59:44.270Z","response":"2nd","certainty":"high","char":"L","transposition":3,"order":["swapped","shifted"],"probe_pitches":[9,6,8,3,-3,6,-1,3,6,0,-2,8,3,9,3,4],"shifted_pitches":[9,6,8,3,-3,6,-1,2,6,0,-2,8,3,9,3,4],"swapped_pitches":[9,6,8,3,-3,6,-1,6,3,0,-2,8,3,9,3,4],"shift_direction":-1,"question_num":101,"has_decoy":false},{"rt":6370.199999988079,"stimulus":"[A] option 1, [L] option 2, [G] neither","key_press":65,"name":"choice","trial_type":"html-keyboard-response","trial_index":131,"time_elapsed":297547,"internal_node_id":"0.0-131.0","subject":"S1C1668","sona":"41539","block":2,"time":"2021-09-23T23:59:44.270Z","response":"1st","certainty":"high","char":"A","transposition":-3,"order":["shifted","swapped"],"probe_pitches":[8,2,0,8,4,5,-3,7,0,2,1,8,4,-2,3,6],"shifted_pitches":[8,2,0,8,4,5,-3,7,-1,2,1,8,4,-2,3,6],"swapped_pitches":[8,2,0,8,4,5,-3,0,7,2,1,8,4,-2,3,6],"shift_direction":-1,"question_num":111,"has_decoy":false},{"rt":2047,"stimulus":"[A] option 1, [L] option 2, [G] neither","key_press":76,"name":"choice","trial_type":"html-keyboard-response","trial_index":142,"time_elapsed":358992,"internal_node_id":"0.0-142.0","subject":"S1C1668","sona":"41539","block":2,"time":"2021-09-23T23:59:44.270Z","response":"2nd","certainty":"high","char":"L","transposition":-2,"order":["swapped","shifted"],"probe_pitches":[9,8,9,5,8,-2,6,8,1,9,-2,8,3,2,9,6],"shifted_pitches":[9,8,9,5,8,-2,6,7,1,9,-2,8,3,2,9,6],"swapped_pitches":[9,8,9,5,8,-2,6,1,8,9,-2,8,3,2,9,6],"shift_direction":-1,"question_num":121,"has_decoy":false},{"rt":1019.5999999642372,"stimulus":"[A] option 1, [L] option 2, [G] neither","key_press":65,"name":"choice","trial_type":"html-keyboard-response","trial_index":153,"time_elapsed":449919,"internal_node_id":"0.0-153.0","subject":"S1C1668","sona":"41539","block":2,"time":"2021-09-23T23:59:44.270Z","response":"1st","certainty":"high","char":"A","transposition":-1,"order":["shifted","swapped"],"probe_pitches":[8,6,3,1,3,8,10,1,3,6,10,3,1,6,1,8],"shifted_pitches":[8,6,3,1,3,8,10,2,3,6,10,3,1,6,1,8],"swapped_pitches":[8,6,3,1,3,8,10,3,1,6,10,3,1,6,1,8],"shift_direction":1,"question_num":131,"has_decoy":false},{"rt":7761,"stimulus":"[A] option 1, [L] option 2, [G] neither","key_press":76,"name":"choice","trial_type":"html-keyboard-response","trial_index":164,"time_elapsed":480004,"internal_node_id":"0.0-164.0","subject":"S1C1668","sona":"41539","block":2,"time":"2021-09-23T23:59:44.270Z","response":"2nd","certainty":"high","char":"L","transposition":-1,"order":["shifted","swapped"],"probe_pitches":[9,8,2,6,-3,3,6,2,1,9,7,5,-3,6,-2,8],"shifted_pitches":[9,8,2,6,-3,3,6,2,0,9,7,5,-3,6,-2,8],"swapped_pitches":[9,8,2,6,-3,3,6,1,2,9,7,5,-3,6,-2,8],"shift_direction":-1,"question_num":141,"has_decoy":false},{"rt":850.3000000119209,"stimulus":"[A] option 1, [L] option 2, [G] neither","key_press":65,"name":"choice","trial_type":"html-keyboard-response","trial_index":175,"time_elapsed":502934,"internal_node_id":"0.0-175.0","subject":"S1C1668","sona":"41539","block":2,"time":"2021-09-23T23:59:44.270Z","response":"1st","certainty":"high","char":"A","transposition":-3,"order":["shifted","swapped"],"probe_pitches":[-2,3,10,5,3,-2,0,10,8,3,-2,5,8,5,-2,10],"shifted_pitches":[-2,3,10,5,3,-2,0,9,8,3,-2,5,8,5,-2,10],"swapped_pitches":[-2,3,10,5,3,-2,0,8,10,3,-2,5,8,5,-2,10],"shift_direction":-1,"question_num":151,"has_decoy":false},{"rt":830.1999999880791,"stimulus":"[A] option 1, [L] option 2, [G] neither","key_press":65,"name":"choice","trial_type":"html-keyboard-response","trial_index":186,"time_elapsed":526182,"internal_node_id":"0.0-186.0","subject":"S1C1668","sona":"41539","block":2,"time":"2021-09-23T23:59:44.270Z","response":"1st","certainty":"high","char":"A","transposition":-3,"order":["shifted","swapped"],"probe_pitches":[-2,0,2,0,5,-2,0,7,2,-2,10,0,5,2,10,-2],"shifted_pitches":[-2,0,2,0,5,-2,0,7,3,-2,10,0,5,2,10,-2],"swapped_pitches":[-2,0,2,0,5,-2,0,2,7,-2,10,0,5,2,10,-2],"shift_direction":1,"question_num":161,"has_decoy":false},{"rt":249.60000002384186,"stimulus":"[A] option 1, [L] option 2, [G] neither","key_press":76,"name":"choice","trial_type":"html-keyboard-response","trial_index":197,"time_elapsed":549484,"internal_node_id":"0.0-197.0","subject":"S1C1668","sona":"41539","block":2,"time":"2021-09-23T23:59:44.270Z","response":"2nd","certainty":"high","char":"L","transposition":2,"order":["swapped","shifted"],"probe_pitches":[-2,1,-2,3,5,3,5,3,-2,10,1,-2,10,1,-2,8],"shifted_pitches":[-2,1,-2,3,5,3,5,3,-1,10,1,-2,10,1,-2,8],"swapped_pitches":[-2,1,-2,3,5,3,5,-2,3,10,1,-2,10,1,-2,8],"shift_direction":1,"question_num":171,"has_decoy":false},{"rt":851.6999999880791,"stimulus":"[A] option 1, [L] option 2, [G] neither","key_press":76,"name":"choice","trial_type":"html-keyboard-response","trial_index":208,"time_elapsed":572737,"internal_node_id":"0.0-208.0","subject":"S1C1668","sona":"41539","block":2,"time":"2021-09-23T23:59:44.270Z","response":"2nd","certainty":"high","char":"L","transposition":2,"order":["shifted","swapped"],"probe_pitches":[7,9,7,3,8,-1,-2,8,5,-2,-1,0,-3,8,7,-3],"shifted_pitches":[7,9,7,3,8,-1,-2,8,6,-2,-1,0,-3,8,7,-3],"swapped_pitches":[7,9,7,3,8,-1,-2,5,8,-2,-1,0,-3,8,7,-3],"shift_direction":1,"question_num":181,"has_decoy":false},{"rt":2773.199999988079,"stimulus":"[A] option 1, [L] option 2, [G] neither","key_press":65,"name":"choice","trial_type":"html-keyboard-response","trial_index":219,"time_elapsed":597938,"internal_node_id":"0.0-219.0","subject":"S1C1668","sona":"41539","block":2,"time":"2021-09-23T23:59:44.270Z","response":"1st","certainty":"high","char":"A","transposition":-1,"order":["shifted","swapped"],"probe_pitches":[9,7,6,7,3,0,-1,-2,3,0,2,6,0,8,-2,-1],"shifted_pitches":[9,7,6,7,3,0,-1,-2,4,0,2,6,0,8,-2,-1],"swapped_pitches":[9,7,6,7,3,0,-1,3,-2,0,2,6,0,8,-2,-1],"shift_direction":1,"question_num":191,"has_decoy":false}]