[{"rt":9486.400000035763,"stimulus":"[A] option 1, [L] option 2, [G] neither","key_press":76,"name":"choice","trial_type":"html-keyboard-response","trial_index":15,"time_elapsed":265269,"internal_node_id":"0.0-15.0","response":"2nd","certainty":"high","char":"L","transposition":-2,"order":["swapped","shifted"],"probe_pitches":[6,7,3,0,5,-3,4,0,-2,1,7,5,8,5,0,8],"shifted_pitches":[6,7,3,0,5,-3,4,-1,-2,1,7,5,8,5,0,8],"swapped_pitches":[6,7,3,0,5,-3,4,-2,0,1,7,5,8,5,0,8],"shift_direction":-1,"question_num":1,"has_decoy":false,"subject":"S1C1668","sona":"41539","block":1,"time":"2021-09-23T23:45:48.896Z"},{"rt":7211,"stimulus":"[A] option 1, [L] option 2, [G] neither","key_press":76,"name":"choice","trial_type":"html-keyboard-response","trial_index":26,"time_elapsed":296326,"internal_node_id":"0.0-26.0","response":"2nd","certainty":"high","char":"L","transposition":1,"order":["swapped","shifted"],"probe_pitches":[4,2,-1,3,7,8,9,-3,7,8,1,-2,7,-3,8,5],"shifted_pitches":[4,2,-1,3,7,8,9,-3,6,8,1,-2,7,-3,8,5],"swapped_pitches":[4,2,-1,3,7,8,9,7,-3,8,1,-2,7,-3,8,5],"shift_direction":-1,"question_num":11,"has_decoy":false,"subject":"S1C1668","sona":"41539","block":1,"time":"2021-09-23T23:45:48.896Z"},{"rt":1807.7999999523163,"stimulus":"[A] option 1, [L] option 2, [G] neither","key_press":65,"name":"choice","trial_type":"html-keyboard-response","trial_index":37,"time_elapsed":332500,"internal_node_id":"0.0-37.0","response":"1st","certainty":"high","char":"A","transposition":2,"order":["shifted","swapped"],"probe_pitches":[13,8,5,13,10,13,10,8,3,10,15,13,10,8,15,10],"shifted_pitches":[13,8,5,13,10,13,10,8,2,10,15,13,10,8,15,10],"swapped_pitches":[13,8,5,13,10,13,10,3,8,10,15,13,10,8,15,10],"shift_direction":-1,"question_num":21,"has_decoy":false,"subject":"S1C1668","sona":"41539","block":1,"time":"2021-09-23T23:45:48.896Z"},{"rt":2340.5,"stimulus":"[A] option 1, [L] option 2, [G] neither","key_press":76,"name":"choice","trial_type":"html-keyboard-response","trial_index":48,"time_elapsed":358111,"internal_node_id":"0.0-48.0","response":"2nd","certainty":"high","char":"L","transposition":-1,"order":["swapped","shifted"],"probe_pitches":[15,12,8,15,12,10,12,8,15,3,8,10,5,3,15,8],"shifted_pitches":[15,12,8,15,12,10,12,8,14,3,8,10,5,3,15,8],"swapped_pitches":[15,12,8,15,12,10,12,15,8,3,8,10,5,3,15,8],"shift_direction":-1,"question_num":31,"has_decoy":false,"subject":"S1C1668","sona":"41539","block":1,"time":"2021-09-23T23:45:48.896Z"},{"rt":2081.199999988079,"stimulus":"[A] option 1, [L] option 2, [G] neither","key_press":76,"name":"choice","trial_type":"html-keyboard-response","trial_index":59,"time_elapsed":383616,"internal_node_id":"0.0-59.0","response":"2nd","certainty":"high","char":"L","transposition":0,"order":["shifted","swapped"],"probe_pitches":[3,1,-1,3,2,5,-2,7,3,-1,2,1,0,2,-3,1],"shifted_pitches":[3,1,-1,3,2,5,-2,8,3,-1,2,1,0,2,-3,1],"swapped_pitches":[3,1,-1,3,2,5,-2,3,7,-1,2,1,0,2,-3,1],"shift_direction":1,"question_num":41,"has_decoy":false,"subject":"S1C1668","sona":"41539","block":1,"time":"2021-09-23T23:45:48.896Z"},{"rt":320.4000000357628,"stimulus":"[A] option 1, [L] option 2, [G] neither","key_press":76,"name":"choice","trial_type":"html-keyboard-response","trial_index":70,"time_elapsed":407570,"internal_node_id":"0.0-70.0","response":"2nd","certainty":"high","char":"L","transposition":-3,"order":["swapped","shifted"],"probe_pitches":[3,8,2,4,-1,2,9,1,-2,6,-2,-1,-2,1,-3,8],"shifted_pitches":[3,8,2,4,-1,2,9,0,-2,6,-2,-1,-2,1,-3,8],"swapped_pitches":[3,8,2,4,-1,2,9,-2,1,6,-2,-1,-2,1,-3,8],"shift_direction":-1,"question_num":51,"has_decoy":false,"subject":"S1C1668","sona":"41539","block":1,"time":"2021-09-23T23:45:48.896Z"},{"rt":1040.300000011921,"stimulus":"[A] option 1, [L] option 2, [G] neither","key_press":65,"name":"choice","trial_type":"html-keyboard-response","trial_index":81,"time_elapsed":431631,"internal_node_id":"0.0-81.0","response":"1st","certainty":"high","char":"A","transposition":-3,"order":["shifted","swapped"],"probe_pitches":[15,13,8,6,10,13,8,3,6,10,6,13,10,8,6,15],"shifted_pitches":[15,13,8,6,10,13,8,4,6,10,6,13,10,8,6,15],"swapped_pitches":[15,13,8,6,10,13,8,6,3,10,6,13,10,8,6,15],"shift_direction":1,"question_num":61,"has_decoy":false,"subject":"S1C1668","sona":"41539","block":1,"time":"2021-09-23T23:45:48.896Z"},{"rt":387,"stimulus":"[A] option 1, [L] option 2, [G] neither","key_press":65,"name":"choice","trial_type":"html-keyboard-response","trial_index":92,"time_elapsed":760448,"internal_node_id":"0.0-92.0","response":"1st","certainty":"high","char":"A","transposition":-3,"order":["shifted","swapped"],"probe_pitches":[8,2,0,5,1,2,4,8,9,5,-3,6,-1,-2,4,-2],"shifted_pitches":[8,2,0,5,1,2,4,7,9,5,-3,6,-1,-2,4,-2],"swapped_pitches":[8,2,0,5,1,2,4,9,8,5,-3,6,-1,-2,4,-2],"shift_direction":-1,"question_num":71,"has_decoy":false,"subject":"S1C1668","sona":"41539","block":1,"time":"2021-09-23T23:45:48.896Z"},{"rt":620.8000000119209,"stimulus":"[A] option 1, [L] option 2, [G] neither","key_press":76,"name":"choice","trial_type":"html-keyboard-response","trial_index":103,"time_elapsed":783780,"internal_node_id":"0.0-103.0","response":"2nd","certainty":"high","char":"L","transposition":3,"order":["swapped","shifted"],"probe_pitches":[13,15,8,15,10,15,13,8,15,6,13,6,8,13,6,8],"shifted_pitches":[13,15,8,15,10,15,13,7,15,6,13,6,8,13,6,8],"swapped_pitches":[13,15,8,15,10,15,13,15,8,6,13,6,8,13,6,8],"shift_direction":-1,"question_num":81,"has_decoy":false,"subject":"S1C1668","sona":"41539","block":1,"time":"2021-09-23T23:45:48.896Z"},{"rt":1137.3999999761581,"stimulus":"[A] option 1, [L] option 2, [G] neither","key_press":65,"name":"choice","trial_type":"html-keyboard-response","trial_index":114,"time_elapsed":807497,"internal_node_id":"0.0-114.0","response":"1st","certainty":"high","char":"A","transposition":3,"order":["shifted","swapped"],"probe_pitches":[5,9,7,1,4,2,-2,1,2,6,7,1,-3,-1,4,0],"shifted_pitches":[5,9,7,1,4,2,-2,1,3,6,7,1,-3,-1,4,0],"swapped_pitches":[5,9,7,1,4,2,-2,2,1,6,7,1,-3,-1,4,0],"shift_direction":1,"question_num":91,"has_decoy":false,"subject":"S1C1668","sona":"41539","block":1,"time":"2021-09-23T23:45:48.896Z"},{"rt":693.3000000119209,"stimulus":"[A] option 1, [L] option 2, [G] neither","key_press":76,"name":"choice","trial_type":"html-keyboard-response","trial_index":125,"time_elapsed":831149,"internal_node_id":"0.0-125.0","response":"2nd","certainty":"high","char":"L","transposition":-3,"order":["swapped","shifted"],"probe_pitches":[3,7,5,12,3,7,15,12,3,5,15,5,3,10,3,12],"shifted_pitches":[3,7,5,12,3,7,15,12,4,5,15,5,3,10,3,12],"swapped_pitches":[3,7,5,12,3,7,15,3,12,5,15,5,3,10,3,12],"shift_direction":1,"question_num":101,"has_decoy":false,"subject":"S1C1668","sona":"41539","block":1,"time":"2021-09-23T23:45:48.896Z"},{"rt":2644.800000011921,"stimulus":"[A] option 1, [L] option 2, [G] neither","key_press":65,"name":"choice","trial_type":"html-keyboard-response","trial_index":136,"time_elapsed":857116,"internal_node_id":"0.0-136.0","response":"1st","certainty":"high","char":"A","transposition":-2,"order":["shifted","swapped"],"probe_pitches":[10,12,15,10,8,5,3,15,10,3,12,15,12,8,10,8],"shifted_pitches":[10,12,15,10,8,5,3,15,9,3,12,15,12,8,10,8],"swapped_pitches":[10,12,15,10,8,5,3,10,15,3,12,15,12,8,10,8],"shift_direction":-1,"question_num":111,"has_decoy":false,"subject":"S1C1668","sona":"41539","block":1,"time":"2021-09-23T23:45:48.896Z"},{"rt":4542,"stimulus":"[A] option 1, [L] option 2, [G] neither","key_press":65,"name":"choice","trial_type":"html-keyboard-response","trial_index":147,"time_elapsed":888186,"internal_node_id":"0.0-147.0","response":"1st","certainty":"high","char":"A","transposition":2,"order":["shifted","swapped"],"probe_pitches":[4,-1,3,-2,5,2,-2,2,0,9,-2,-1,6,8,7,6],"shifted_pitches":[4,-1,3,-2,5,2,-2,2,1,9,-2,-1,6,8,7,6],"swapped_pitches":[4,-1,3,-2,5,2,-2,0,2,9,-2,-1,6,8,7,6],"shift_direction":1,"question_num":121,"has_decoy":false,"subject":"S1C1668","sona":"41539","block":1,"time":"2021-09-23T23:45:48.896Z"},{"rt":281.4000000357628,"stimulus":"[A] option 1, [L] option 2, [G] neither","key_press":76,"name":"choice","trial_type":"html-keyboard-response","trial_index":158,"time_elapsed":977266,"internal_node_id":"0.0-158.0","response":"2nd","certainty":"high","char":"L","transposition":-2,"order":["swapped","shifted"],"probe_pitches":[15,13,8,11,6,11,6,15,13,6,15,8,11,15,13,11],"shifted_pitches":[15,13,8,11,6,11,6,16,13,6,15,8,11,15,13,11],"swapped_pitches":[15,13,8,11,6,11,6,13,15,6,15,8,11,15,13,11],"shift_direction":1,"question_num":131,"has_decoy":false,"subject":"S1C1668","sona":"41539","block":1,"time":"2021-09-23T23:45:48.896Z"},{"rt":406.5,"stimulus":"[A] option 1, [L] option 2, [G] neither","key_press":65,"name":"choice","trial_type":"html-keyboard-response","trial_index":169,"time_elapsed":1000826,"internal_node_id":"0.0-169.0","response":"1st","certainty":"high","char":"A","transposition":1,"order":["shifted","swapped"],"probe_pitches":[13,11,6,11,13,15,13,3,15,8,13,3,8,15,6,13],"shifted_pitches":[13,11,6,11,13,15,13,3,16,8,13,3,8,15,6,13],"swapped_pitches":[13,11,6,11,13,15,13,15,3,8,13,3,8,15,6,13],"shift_direction":1,"question_num":141,"has_decoy":false,"subject":"S1C1668","sona":"41539","block":1,"time":"2021-09-23T23:45:48.896Z"},{"rt":971.6999999880791,"stimulus":"[A] option 1, [L] option 2, [G] neither","key_press":76,"name":"choice","trial_type":"html-keyboard-response","trial_index":180,"time_elapsed":1024911,"internal_node_id":"0.0-180.0","response":"2nd","certainty":"high","char":"L","transposition":-2,"order":["shifted","swapped"],"probe_pitches":[-2,1,2,9,5,7,9,0,3,6,0,6,8,3,7,8],"shifted_pitches":[-2,1,2,9,5,7,9,0,4,6,0,6,8,3,7,8],"swapped_pitches":[-2,1,2,9,5,7,9,3,0,6,0,6,8,3,7,8],"shift_direction":1,"question_num":151,"has_decoy":false,"subject":"S1C1668","sona":"41539","block":1,"time":"2021-09-23T23:45:48.896Z"},{"rt":1204.9000000357628,"stimulus":"[A] option 1, [L] option 2, [G] neither","key_press":65,"name":"choice","trial_type":"html-keyboard-response","trial_index":191,"time_elapsed":1048857,"internal_node_id":"0.0-191.0","response":"1st","certainty":"high","char":"A","transposition":-1,"order":["swapped","shifted"],"probe_pitches":[-3,0,3,1,7,-3,0,5,3,0,8,1,-1,0,3,5],"shifted_pitches":[-3,0,3,1,7,-3,0,5,2,0,8,1,-1,0,3,5],"swapped_pitches":[-3,0,3,1,7,-3,0,3,5,0,8,1,-1,0,3,5],"shift_direction":-1,"question_num":161,"has_decoy":false,"subject":"S1C1668","sona":"41539","block":1,"time":"2021-09-23T23:45:48.896Z"},{"rt":489.60000002384186,"stimulus":"[A] option 1, [L] option 2, [G] neither","key_press":65,"name":"choice","trial_type":"html-keyboard-response","trial_index":202,"time_elapsed":1071832,"internal_node_id":"0.0-202.0","response":"1st","certainty":"high","char":"A","transposition":0,"order":["shifted","swapped"],"probe_pitches":[10,15,13,15,10,5,8,13,3,15,3,5,10,3,10,3],"shifted_pitches":[10,15,13,15,10,5,8,14,3,15,3,5,10,3,10,3],"swapped_pitches":[10,15,13,15,10,5,8,3,13,15,3,5,10,3,10,3],"shift_direction":1,"question_num":171,"has_decoy":false,"subject":"S1C1668","sona":"41539","block":1,"time":"2021-09-23T23:45:48.896Z"},{"rt":784.8000000119209,"stimulus":"[A] option 1, [L] option 2, [G] neither","key_press":65,"name":"choice","trial_type":"html-keyboard-response","trial_index":213,"time_elapsed":1095801,"internal_node_id":"0.0-213.0","response":"1st","certainty":"high","char":"A","transposition":-1,"order":["swapped","shifted"],"probe_pitches":[-3,3,0,4,3,-2,8,4,3,-1,-2,8,-3,7,1,2],"shifted_pitches":[-3,3,0,4,3,-2,8,5,3,-1,-2,8,-3,7,1,2],"swapped_pitches":[-3,3,0,4,3,-2,8,3,4,-1,-2,8,-3,7,1,2],"shift_direction":1,"question_num":181,"has_decoy":false,"subject":"S1C1668","sona":"41539","block":1,"time":"2021-09-23T23:45:48.896Z"},{"rt":375.10000002384186,"stimulus":"[A] option 1, [L] option 2, [G] neither","key_press":76,"name":"choice","trial_type":"html-keyboard-response","trial_index":224,"time_elapsed":1119114,"internal_node_id":"0.0-224.0","response":"2nd","certainty":"high","char":"L","transposition":-1,"order":["swapped","shifted"],"probe_pitches":[15,12,7,10,12,7,3,12,10,5,12,7,12,5,12,10],"shifted_pitches":[15,12,7,10,12,7,3,11,10,5,12,7,12,5,12,10],"swapped_pitches":[15,12,7,10,12,7,3,10,12,5,12,7,12,5,12,10],"shift_direction":-1,"question_num":191,"has_decoy":false,"subject":"S1C1668","sona":"41539","block":1,"time":"2021-09-23T23:45:48.896Z"}]