[{"rt":1809.7999999821186,"stimulus":"[A] option 1, [L] option 2, [G] neither","key_press":76,"name":"choice","trial_type":"html-keyboard-response","trial_index":10,"time_elapsed":26696,"internal_node_id":"0.0-10.0","subject":"S1C1615","sona":"37390","block":3,"time":"2021-09-16T15:03:34.702Z","response":"2nd","certainty":"high","char":"L","transposition":-2,"order":["swapped","shifted"],"probe_pitches":[12,14,7,12,5,2,5,12,14,5,14,12,10,14,12,10],"shifted_pitches":[12,14,7,12,5,2,5,12,13,5,14,12,10,14,12,10],"swapped_pitches":[12,14,7,12,5,2,5,14,12,5,14,12,10,14,12,10],"shift_direction":-1,"question_num":1,"has_decoy":false},{"rt":5836.299999982119,"stimulus":"[A] option 1, [L] option 2, [G] neither","key_press":76,"name":"choice","trial_type":"html-keyboard-response","trial_index":21,"time_elapsed":57203,"internal_node_id":"0.0-21.0","subject":"S1C1615","sona":"37390","block":3,"time":"2021-09-16T15:03:34.702Z","response":"2nd","certainty":"high","char":"L","transposition":-3,"order":["shifted","swapped"],"probe_pitches":[3,9,4,9,5,8,4,9,0,8,3,8,4,3,0,7],"shifted_pitches":[3,9,4,9,5,8,4,10,0,8,3,8,4,3,0,7],"swapped_pitches":[3,9,4,9,5,8,4,0,9,8,3,8,4,3,0,7],"shift_direction":1,"question_num":11,"has_decoy":false},{"rt":1512.9000000059605,"stimulus":"[A] option 1, [L] option 2, [G] neither","key_press":65,"name":"choice","trial_type":"html-keyboard-response","trial_index":32,"time_elapsed":82869,"internal_node_id":"0.0-32.0","subject":"S1C1615","sona":"37390","block":3,"time":"2021-09-16T15:03:34.702Z","response":"1st","certainty":"high","char":"A","transposition":-1,"order":["swapped","shifted"],"probe_pitches":[7,5,7,14,10,5,10,7,14,10,14,12,7,2,5,10],"shifted_pitches":[7,5,7,14,10,5,10,7,13,10,14,12,7,2,5,10],"swapped_pitches":[7,5,7,14,10,5,10,14,7,10,14,12,7,2,5,10],"shift_direction":-1,"question_num":21,"has_decoy":false},{"rt":300.59999999403954,"stimulus":"[A] option 1, [L] option 2, [G] neither","key_press":76,"name":"choice","trial_type":"html-keyboard-response","trial_index":43,"time_elapsed":106747,"internal_node_id":"0.0-43.0","subject":"S1C1615","sona":"37390","block":3,"time":"2021-09-16T15:03:34.702Z","response":"2nd","certainty":"high","char":"L","transposition":-1,"order":["swapped","shifted"],"probe_pitches":[2,7,14,7,9,2,11,2,4,7,4,14,11,9,7,2],"shifted_pitches":[2,7,14,7,9,2,11,3,4,7,4,14,11,9,7,2],"swapped_pitches":[2,7,14,7,9,2,11,4,2,7,4,14,11,9,7,2],"shift_direction":1,"question_num":31,"has_decoy":false},{"rt":6762.5,"stimulus":"[A] option 1, [L] option 2, [G] neither","key_press":65,"name":"choice","trial_type":"html-keyboard-response","trial_index":54,"time_elapsed":135989,"internal_node_id":"0.0-54.0","subject":"S1C1615","sona":"37390","block":3,"time":"2021-09-16T15:03:34.702Z","response":"1st","certainty":"high","char":"A","transposition":2,"order":["shifted","swapped"],"probe_pitches":[4,9,4,12,14,7,4,7,2,12,2,12,7,12,4,14],"shifted_pitches":[4,9,4,12,14,7,4,8,2,12,2,12,7,12,4,14],"swapped_pitches":[4,9,4,12,14,7,4,2,7,12,2,12,7,12,4,14],"shift_direction":1,"question_num":41,"has_decoy":false},{"rt":3287.7999999821186,"stimulus":"[A] option 1, [L] option 2, [G] neither","key_press":76,"name":"choice","trial_type":"html-keyboard-response","trial_index":65,"time_elapsed":162564,"internal_node_id":"0.0-65.0","subject":"S1C1615","sona":"37390","block":3,"time":"2021-09-16T15:03:34.702Z","response":"2nd","certainty":"high","char":"L","transposition":3,"order":["shifted","swapped"],"probe_pitches":[9,3,6,1,5,10,1,5,6,10,0,9,-1,3,11,2],"shifted_pitches":[9,3,6,1,5,10,1,4,6,10,0,9,-1,3,11,2],"swapped_pitches":[9,3,6,1,5,10,1,6,5,10,0,9,-1,3,11,2],"shift_direction":-1,"question_num":51,"has_decoy":false},{"rt":796.5999999940395,"stimulus":"[A] option 1, [L] option 2, [G] neither","key_press":65,"name":"choice","trial_type":"html-keyboard-response","trial_index":76,"time_elapsed":220530,"internal_node_id":"0.0-76.0","subject":"S1C1615","sona":"37390","block":3,"time":"2021-09-16T15:03:34.702Z","response":"1st","certainty":"high","char":"A","transposition":0,"order":["swapped","shifted"],"probe_pitches":[6,1,4,10,1,6,-1,5,9,1,2,10,4,0,4,9],"shifted_pitches":[6,1,4,10,1,6,-1,5,8,1,2,10,4,0,4,9],"swapped_pitches":[6,1,4,10,1,6,-1,9,5,1,2,10,4,0,4,9],"shift_direction":-1,"question_num":61,"has_decoy":false},{"rt":1414.5,"stimulus":"[A] option 1, [L] option 2, [G] neither","key_press":65,"name":"choice","trial_type":"html-keyboard-response","trial_index":87,"time_elapsed":244968,"internal_node_id":"0.0-87.0","subject":"S1C1615","sona":"37390","block":3,"time":"2021-09-16T15:03:34.702Z","response":"1st","certainty":"high","char":"A","transposition":-3,"order":["shifted","swapped"],"probe_pitches":[7,12,7,9,5,14,12,9,5,2,7,5,7,5,9,2],"shifted_pitches":[7,12,7,9,5,14,12,8,5,2,7,5,7,5,9,2],"swapped_pitches":[7,12,7,9,5,14,12,5,9,2,7,5,7,5,9,2],"shift_direction":-1,"question_num":71,"has_decoy":false},{"rt":10165.5,"stimulus":"[A] option 1, [L] option 2, [G] neither","key_press":76,"name":"choice","trial_type":"html-keyboard-response","trial_index":98,"time_elapsed":278569,"internal_node_id":"0.0-98.0","subject":"S1C1615","sona":"37390","block":3,"time":"2021-09-16T15:03:34.702Z","response":"2nd","certainty":"high","char":"L","transposition":-3,"order":["swapped","shifted"],"probe_pitches":[2,5,2,5,2,7,14,2,5,14,2,9,5,12,5,2],"shifted_pitches":[2,5,2,5,2,7,14,2,6,14,2,9,5,12,5,2],"swapped_pitches":[2,5,2,5,2,7,14,5,2,14,2,9,5,12,5,2],"shift_direction":1,"question_num":81,"has_decoy":false},{"rt":12642.09999999404,"stimulus":"[A] option 1, [L] option 2, [G] neither","key_press":65,"name":"choice","trial_type":"html-keyboard-response","trial_index":109,"time_elapsed":316946,"internal_node_id":"0.0-109.0","subject":"S1C1615","sona":"37390","block":3,"time":"2021-09-16T15:03:34.702Z","response":"1st","certainty":"high","char":"A","transposition":-1,"order":["swapped","shifted"],"probe_pitches":[10,5,10,8,5,6,8,7,4,11,10,0,-1,6,2,-1],"shifted_pitches":[10,5,10,8,5,6,8,7,3,11,10,0,-1,6,2,-1],"swapped_pitches":[10,5,10,8,5,6,8,4,7,11,10,0,-1,6,2,-1],"shift_direction":-1,"question_num":91,"has_decoy":false},{"rt":981.1000000238419,"stimulus":"[A] option 1, [L] option 2, [G] neither","key_press":76,"name":"choice","trial_type":"html-keyboard-response","trial_index":120,"time_elapsed":341575,"internal_node_id":"0.0-120.0","subject":"S1C1615","sona":"37390","block":3,"time":"2021-09-16T15:03:34.702Z","response":"2nd","certainty":"high","char":"L","transposition":-2,"order":["shifted","swapped"],"probe_pitches":[4,5,0,5,6,-1,5,1,-1,5,7,4,11,3,6,1],"shifted_pitches":[4,5,0,5,6,-1,5,2,-1,5,7,4,11,3,6,1],"swapped_pitches":[4,5,0,5,6,-1,5,-1,1,5,7,4,11,3,6,1],"shift_direction":1,"question_num":101,"has_decoy":false},{"rt":1834.800000011921,"stimulus":"[A] option 1, [L] option 2, [G] neither","key_press":65,"name":"choice","trial_type":"html-keyboard-response","trial_index":131,"time_elapsed":367878,"internal_node_id":"0.0-131.0","subject":"S1C1615","sona":"37390","block":3,"time":"2021-09-16T15:03:34.702Z","response":"1st","certainty":"high","char":"A","transposition":-2,"order":["shifted","swapped"],"probe_pitches":[4,2,9,14,9,6,2,11,9,4,2,14,11,6,11,2],"shifted_pitches":[4,2,9,14,9,6,2,11,8,4,2,14,11,6,11,2],"swapped_pitches":[4,2,9,14,9,6,2,9,11,4,2,14,11,6,11,2],"shift_direction":-1,"question_num":111,"has_decoy":false},{"rt":24306.5,"stimulus":"[A] option 1, [L] option 2, [G] neither","key_press":76,"name":"choice","trial_type":"html-keyboard-response","trial_index":142,"time_elapsed":415080,"internal_node_id":"0.0-142.0","subject":"S1C1615","sona":"37390","block":3,"time":"2021-09-16T15:03:34.702Z","response":"2nd","certainty":"high","char":"L","transposition":0,"order":["shifted","swapped"],"probe_pitches":[9,11,14,11,4,6,11,4,9,6,14,2,9,2,6,14],"shifted_pitches":[9,11,14,11,4,6,11,3,9,6,14,2,9,2,6,14],"swapped_pitches":[9,11,14,11,4,6,11,9,4,6,14,2,9,2,6,14],"shift_direction":-1,"question_num":121,"has_decoy":false},{"rt":1524.7999999821186,"stimulus":"[A] option 1, [L] option 2, [G] neither","key_press":65,"name":"choice","trial_type":"html-keyboard-response","trial_index":153,"time_elapsed":447475,"internal_node_id":"0.0-153.0","subject":"S1C1615","sona":"37390","block":3,"time":"2021-09-16T15:03:34.702Z","response":"1st","certainty":"high","char":"A","transposition":-1,"order":["shifted","swapped"],"probe_pitches":[4,9,7,1,4,9,7,6,2,7,9,11,0,4,10,-1],"shifted_pitches":[4,9,7,1,4,9,7,5,2,7,9,11,0,4,10,-1],"swapped_pitches":[4,9,7,1,4,9,7,2,6,7,9,11,0,4,10,-1],"shift_direction":-1,"question_num":131,"has_decoy":false},{"rt":9414.899999976158,"stimulus":"[A] option 1, [L] option 2, [G] neither","key_press":65,"name":"choice","trial_type":"html-keyboard-response","trial_index":164,"time_elapsed":480035,"internal_node_id":"0.0-164.0","subject":"S1C1615","sona":"37390","block":3,"time":"2021-09-16T15:03:34.702Z","response":"1st","certainty":"high","char":"A","transposition":-2,"order":["swapped","shifted"],"probe_pitches":[2,0,6,-1,8,3,4,10,0,11,4,2,0,11,4,2],"shifted_pitches":[2,0,6,-1,8,3,4,10,1,11,4,2,0,11,4,2],"swapped_pitches":[2,0,6,-1,8,3,4,0,10,11,4,2,0,11,4,2],"shift_direction":1,"question_num":141,"has_decoy":false},{"rt":2227.5,"stimulus":"[A] option 1, [L] option 2, [G] neither","key_press":65,"name":"choice","trial_type":"html-keyboard-response","trial_index":175,"time_elapsed":505117,"internal_node_id":"0.0-175.0","subject":"S1C1615","sona":"37390","block":3,"time":"2021-09-16T15:03:34.702Z","response":"1st","certainty":"high","char":"A","transposition":2,"order":["swapped","shifted"],"probe_pitches":[6,2,-1,3,8,11,6,11,8,-1,8,3,7,6,10,0],"shifted_pitches":[6,2,-1,3,8,11,6,11,9,-1,8,3,7,6,10,0],"swapped_pitches":[6,2,-1,3,8,11,6,8,11,-1,8,3,7,6,10,0],"shift_direction":1,"question_num":151,"has_decoy":false},{"rt":82775.70000001788,"stimulus":"[A] option 1, [L] option 2, [G] neither","key_press":76,"name":"choice","trial_type":"html-keyboard-response","trial_index":186,"time_elapsed":616855,"internal_node_id":"0.0-186.0","subject":"S1C1615","sona":"37390","block":3,"time":"2021-09-16T15:03:34.702Z","response":"2nd","certainty":"high","char":"L","transposition":3,"order":["shifted","swapped"],"probe_pitches":[2,7,14,12,7,14,4,12,9,14,7,4,7,2,12,7],"shifted_pitches":[2,7,14,12,7,14,4,12,10,14,7,4,7,2,12,7],"swapped_pitches":[2,7,14,12,7,14,4,9,12,14,7,4,7,2,12,7],"shift_direction":1,"question_num":161,"has_decoy":false},{"rt":3905.399999976158,"stimulus":"[A] option 1, [L] option 2, [G] neither","key_press":76,"name":"choice","trial_type":"html-keyboard-response","trial_index":197,"time_elapsed":645101,"internal_node_id":"0.0-197.0","subject":"S1C1615","sona":"37390","block":3,"time":"2021-09-16T15:03:34.702Z","response":"2nd","certainty":"high","char":"L","transposition":1,"order":["swapped","shifted"],"probe_pitches":[9,4,7,2,9,4,14,9,2,14,4,9,2,9,11,14],"shifted_pitches":[9,4,7,2,9,4,14,10,2,14,4,9,2,9,11,14],"swapped_pitches":[9,4,7,2,9,4,14,2,9,14,4,9,2,9,11,14],"shift_direction":1,"question_num":171,"has_decoy":false},{"rt":11514.600000023842,"stimulus":"[A] option 1, [L] option 2, [G] neither","key_press":76,"name":"choice","trial_type":"html-keyboard-response","trial_index":208,"time_elapsed":678960,"internal_node_id":"0.0-208.0","subject":"S1C1615","sona":"37390","block":3,"time":"2021-09-16T15:03:34.702Z","response":"2nd","certainty":"high","char":"L","transposition":-3,"order":["swapped","shifted"],"probe_pitches":[4,8,1,-1,3,9,4,11,6,5,4,6,0,9,-1,11],"shifted_pitches":[4,8,1,-1,3,9,4,11,7,5,4,6,0,9,-1,11],"swapped_pitches":[4,8,1,-1,3,9,4,6,11,5,4,6,0,9,-1,11],"shift_direction":1,"question_num":181,"has_decoy":false},{"rt":1312.9000000059605,"stimulus":"[A] option 1, [L] option 2, [G] neither","key_press":65,"name":"choice","trial_type":"html-keyboard-response","trial_index":219,"time_elapsed":714078,"internal_node_id":"0.0-219.0","subject":"S1C1615","sona":"37390","block":3,"time":"2021-09-16T15:03:34.702Z","response":"1st","certainty":"high","char":"A","transposition":1,"order":["shifted","swapped"],"probe_pitches":[10,4,3,7,4,7,9,7,0,9,10,0,5,3,11,0],"shifted_pitches":[10,4,3,7,4,7,9,6,0,9,10,0,5,3,11,0],"swapped_pitches":[10,4,3,7,4,7,9,0,7,9,10,0,5,3,11,0],"shift_direction":-1,"question_num":191,"has_decoy":false}]