[{"rt":1600.9000000059605,"stimulus":"[A] option 1, [L] option 2, [G] neither","key_press":65,"name":"choice","trial_type":"html-keyboard-response","trial_index":10,"time_elapsed":29852,"internal_node_id":"0.0-10.0","subject":"S1C1615","sona":"37390","block":4,"time":"2021-09-16T15:15:07.767Z","response":"1st","certainty":"high","char":"A","transposition":-3,"order":["swapped","shifted"],"probe_pitches":[-1,5,2,6,8,-1,4,6,8,1,8,2,3,5,2,-1],"shifted_pitches":[-1,5,2,6,8,-1,4,6,7,1,8,2,3,5,2,-1],"swapped_pitches":[-1,5,2,6,8,-1,4,8,6,1,8,2,3,5,2,-1],"shift_direction":-1,"question_num":1,"has_decoy":false},{"rt":1153.4000000059605,"stimulus":"[A] option 1, [L] option 2, [G] neither","key_press":76,"name":"choice","trial_type":"html-keyboard-response","trial_index":21,"time_elapsed":54314,"internal_node_id":"0.0-21.0","subject":"S1C1615","sona":"37390","block":4,"time":"2021-09-16T15:15:07.767Z","response":"2nd","certainty":"high","char":"L","transposition":3,"order":["shifted","swapped"],"probe_pitches":[2,0,7,-1,2,0,3,1,9,0,3,11,-1,3,4,3],"shifted_pitches":[2,0,7,-1,2,0,3,1,8,0,3,11,-1,3,4,3],"swapped_pitches":[2,0,7,-1,2,0,3,9,1,0,3,11,-1,3,4,3],"shift_direction":-1,"question_num":11,"has_decoy":false},{"rt":1807,"stimulus":"[A] option 1, [L] option 2, [G] neither","key_press":65,"name":"choice","trial_type":"html-keyboard-response","trial_index":32,"time_elapsed":78408,"internal_node_id":"0.0-32.0","subject":"S1C1615","sona":"37390","block":4,"time":"2021-09-16T15:15:07.767Z","response":"1st","certainty":"high","char":"A","transposition":-3,"order":["shifted","swapped"],"probe_pitches":[1,-3,-1,-3,1,4,6,4,-1,1,9,1,4,6,-3,-1],"shifted_pitches":[1,-3,-1,-3,1,4,6,4,-2,1,9,1,4,6,-3,-1],"swapped_pitches":[1,-3,-1,-3,1,4,6,-1,4,1,9,1,4,6,-3,-1],"shift_direction":-1,"question_num":21,"has_decoy":false},{"rt":2653.5,"stimulus":"[A] option 1, [L] option 2, [G] neither","key_press":65,"name":"choice","trial_type":"html-keyboard-response","trial_index":43,"time_elapsed":103345,"internal_node_id":"0.0-43.0","subject":"S1C1615","sona":"37390","block":4,"time":"2021-09-16T15:15:07.767Z","response":"1st","certainty":"high","char":"A","transposition":-2,"order":["swapped","shifted"],"probe_pitches":[-1,4,-3,2,-3,2,4,7,2,-3,4,7,4,-1,7,2],"shifted_pitches":[-1,4,-3,2,-3,2,4,7,3,-3,4,7,4,-1,7,2],"swapped_pitches":[-1,4,-3,2,-3,2,4,2,7,-3,4,7,4,-1,7,2],"shift_direction":1,"question_num":31,"has_decoy":false},{"rt":26129.90000000596,"stimulus":"[A] option 1, [L] option 2, [G] neither","key_press":76,"name":"choice","trial_type":"html-keyboard-response","trial_index":54,"time_elapsed":161111,"internal_node_id":"0.0-54.0","subject":"S1C1615","sona":"37390","block":4,"time":"2021-09-16T15:15:07.767Z","response":"2nd","certainty":"high","char":"L","transposition":-3,"order":["shifted","swapped"],"probe_pitches":[2,6,2,-1,4,2,6,4,-3,2,9,6,2,6,-3,6],"shifted_pitches":[2,6,2,-1,4,2,6,4,-2,2,9,6,2,6,-3,6],"swapped_pitches":[2,6,2,-1,4,2,6,-3,4,2,9,6,2,6,-3,6],"shift_direction":1,"question_num":41,"has_decoy":false},{"rt":7371.5999999940395,"stimulus":"[A] option 1, [L] option 2, [G] neither","key_press":65,"name":"choice","trial_type":"html-keyboard-response","trial_index":65,"time_elapsed":191399,"internal_node_id":"0.0-65.0","subject":"S1C1615","sona":"37390","block":4,"time":"2021-09-16T15:15:07.767Z","response":"1st","certainty":"high","char":"A","transposition":-2,"order":["shifted","swapped"],"probe_pitches":[2,4,-1,1,9,6,10,6,1,4,8,10,1,8,3,0],"shifted_pitches":[2,4,-1,1,9,6,10,5,1,4,8,10,1,8,3,0],"swapped_pitches":[2,4,-1,1,9,6,10,1,6,4,8,10,1,8,3,0],"shift_direction":-1,"question_num":51,"has_decoy":false},{"rt":5648,"stimulus":"[A] option 1, [L] option 2, [G] neither","key_press":76,"name":"choice","trial_type":"html-keyboard-response","trial_index":76,"time_elapsed":219495,"internal_node_id":"0.0-76.0","subject":"S1C1615","sona":"37390","block":4,"time":"2021-09-16T15:15:07.767Z","response":"2nd","certainty":"high","char":"L","transposition":0,"order":["swapped","shifted"],"probe_pitches":[9,4,0,7,0,4,2,-3,7,4,-3,7,4,0,4,0],"shifted_pitches":[9,4,0,7,0,4,2,-3,8,4,-3,7,4,0,4,0],"swapped_pitches":[9,4,0,7,0,4,2,7,-3,4,-3,7,4,0,4,0],"shift_direction":1,"question_num":61,"has_decoy":false},{"rt":3030.5,"stimulus":"[A] option 1, [L] option 2, [G] neither","key_press":65,"name":"choice","trial_type":"html-keyboard-response","trial_index":87,"time_elapsed":245868,"internal_node_id":"0.0-87.0","subject":"S1C1615","sona":"37390","block":4,"time":"2021-09-16T15:15:07.767Z","response":"1st","certainty":"high","char":"A","transposition":-1,"order":["swapped","shifted"],"probe_pitches":[9,4,-3,4,-3,2,-1,2,6,-1,9,2,9,2,4,-1],"shifted_pitches":[9,4,-3,4,-3,2,-1,2,7,-1,9,2,9,2,4,-1],"swapped_pitches":[9,4,-3,4,-3,2,-1,6,2,-1,9,2,9,2,4,-1],"shift_direction":1,"question_num":71,"has_decoy":false},{"rt":1811.699999988079,"stimulus":"[A] option 1, [L] option 2, [G] neither","key_press":65,"name":"choice","trial_type":"html-keyboard-response","trial_index":98,"time_elapsed":270009,"internal_node_id":"0.0-98.0","subject":"S1C1615","sona":"37390","block":4,"time":"2021-09-16T15:15:07.767Z","response":"1st","certainty":"high","char":"A","transposition":-1,"order":["shifted","swapped"],"probe_pitches":[9,11,7,9,11,10,11,-1,1,7,10,1,8,9,1,0],"shifted_pitches":[9,11,7,9,11,10,11,-1,2,7,10,1,8,9,1,0],"swapped_pitches":[9,11,7,9,11,10,11,1,-1,7,10,1,8,9,1,0],"shift_direction":1,"question_num":81,"has_decoy":false},{"rt":6693.699999988079,"stimulus":"[A] option 1, [L] option 2, [G] neither","key_press":76,"name":"choice","trial_type":"html-keyboard-response","trial_index":109,"time_elapsed":299531,"internal_node_id":"0.0-109.0","subject":"S1C1615","sona":"37390","block":4,"time":"2021-09-16T15:15:07.767Z","response":"2nd","certainty":"high","char":"L","transposition":3,"order":["shifted","swapped"],"probe_pitches":[1,4,9,1,4,-1,9,6,1,-1,-3,1,-1,1,-3,4],"shifted_pitches":[1,4,9,1,4,-1,9,5,1,-1,-3,1,-1,1,-3,4],"swapped_pitches":[1,4,9,1,4,-1,9,1,6,-1,-3,1,-1,1,-3,4],"shift_direction":-1,"question_num":91,"has_decoy":false},{"rt":441.69999998807907,"stimulus":"[A] option 1, [L] option 2, [G] neither","key_press":76,"name":"choice","trial_type":"html-keyboard-response","trial_index":120,"time_elapsed":325409,"internal_node_id":"0.0-120.0","subject":"S1C1615","sona":"37390","block":4,"time":"2021-09-16T15:15:07.767Z","response":"2nd","certainty":"high","char":"L","transposition":2,"order":["swapped","shifted"],"probe_pitches":[9,7,5,2,9,0,5,7,0,-3,7,2,0,7,5,9],"shifted_pitches":[9,7,5,2,9,0,5,6,0,-3,7,2,0,7,5,9],"swapped_pitches":[9,7,5,2,9,0,5,0,7,-3,7,2,0,7,5,9],"shift_direction":-1,"question_num":101,"has_decoy":false},{"rt":8646.09999999404,"stimulus":"[A] option 1, [L] option 2, [G] neither","key_press":65,"name":"choice","trial_type":"html-keyboard-response","trial_index":131,"time_elapsed":360893,"internal_node_id":"0.0-131.0","subject":"S1C1615","sona":"37390","block":4,"time":"2021-09-16T15:15:07.767Z","response":"1st","certainty":"high","char":"A","transposition":-3,"order":["swapped","shifted"],"probe_pitches":[-1,4,10,11,9,1,5,4,1,2,0,-1,7,2,8,6],"shifted_pitches":[-1,4,10,11,9,1,5,3,1,2,0,-1,7,2,8,6],"swapped_pitches":[-1,4,10,11,9,1,5,1,4,2,0,-1,7,2,8,6],"shift_direction":-1,"question_num":111,"has_decoy":false},{"rt":717,"stimulus":"[A] option 1, [L] option 2, [G] neither","key_press":76,"name":"choice","trial_type":"html-keyboard-response","trial_index":142,"time_elapsed":389464,"internal_node_id":"0.0-142.0","subject":"S1C1615","sona":"37390","block":4,"time":"2021-09-16T15:15:07.767Z","response":"2nd","certainty":"high","char":"L","transposition":-1,"order":["shifted","swapped"],"probe_pitches":[-3,2,0,2,7,2,-3,0,2,9,2,7,0,9,2,4],"shifted_pitches":[-3,2,0,2,7,2,-3,-1,2,9,2,7,0,9,2,4],"swapped_pitches":[-3,2,0,2,7,2,-3,2,0,9,2,7,0,9,2,4],"shift_direction":-1,"question_num":121,"has_decoy":false},{"rt":1741.7999999821186,"stimulus":"[A] option 1, [L] option 2, [G] neither","key_press":65,"name":"choice","trial_type":"html-keyboard-response","trial_index":153,"time_elapsed":413730,"internal_node_id":"0.0-153.0","subject":"S1C1615","sona":"37390","block":4,"time":"2021-09-16T15:15:07.767Z","response":"1st","certainty":"high","char":"A","transposition":-2,"order":["shifted","swapped"],"probe_pitches":[9,6,10,5,0,2,6,7,2,4,9,0,3,8,2,10],"shifted_pitches":[9,6,10,5,0,2,6,7,1,4,9,0,3,8,2,10],"swapped_pitches":[9,6,10,5,0,2,6,2,7,4,9,0,3,8,2,10],"shift_direction":-1,"question_num":131,"has_decoy":false},{"rt":25575.69999998808,"stimulus":"[A] option 1, [L] option 2, [G] neither","key_press":76,"name":"choice","trial_type":"html-keyboard-response","trial_index":164,"time_elapsed":461423,"internal_node_id":"0.0-164.0","subject":"S1C1615","sona":"37390","block":4,"time":"2021-09-16T15:15:07.767Z","response":"2nd","certainty":"high","char":"L","transposition":-2,"order":["shifted","swapped"],"probe_pitches":[5,7,5,-3,0,7,0,7,5,2,9,-3,7,2,9,-3],"shifted_pitches":[5,7,5,-3,0,7,0,8,5,2,9,-3,7,2,9,-3],"swapped_pitches":[5,7,5,-3,0,7,0,5,7,2,9,-3,7,2,9,-3],"shift_direction":1,"question_num":141,"has_decoy":false},{"rt":1038.7999999821186,"stimulus":"[A] option 1, [L] option 2, [G] neither","key_press":65,"name":"choice","trial_type":"html-keyboard-response","trial_index":175,"time_elapsed":489932,"internal_node_id":"0.0-175.0","subject":"S1C1615","sona":"37390","block":4,"time":"2021-09-16T15:15:07.767Z","response":"1st","certainty":"high","char":"A","transposition":1,"order":["shifted","swapped"],"probe_pitches":[3,7,1,9,2,1,9,5,2,-1,2,1,9,10,1,9],"shifted_pitches":[3,7,1,9,2,1,9,6,2,-1,2,1,9,10,1,9],"swapped_pitches":[3,7,1,9,2,1,9,2,5,-1,2,1,9,10,1,9],"shift_direction":1,"question_num":151,"has_decoy":false},{"rt":20419.5,"stimulus":"[A] option 1, [L] option 2, [G] neither","key_press":76,"name":"choice","trial_type":"html-keyboard-response","trial_index":186,"time_elapsed":532603,"internal_node_id":"0.0-186.0","subject":"S1C1615","sona":"37390","block":4,"time":"2021-09-16T15:15:07.767Z","response":"2nd","certainty":"high","char":"L","transposition":1,"order":["swapped","shifted"],"probe_pitches":[7,4,2,-1,7,9,2,9,-3,-1,9,-1,-3,4,2,-1],"shifted_pitches":[7,4,2,-1,7,9,2,8,-3,-1,9,-1,-3,4,2,-1],"swapped_pitches":[7,4,2,-1,7,9,2,-3,9,-1,9,-1,-3,4,2,-1],"shift_direction":-1,"question_num":161,"has_decoy":false},{"rt":2711.9000000059605,"stimulus":"[A] option 1, [L] option 2, [G] neither","key_press":65,"name":"choice","trial_type":"html-keyboard-response","trial_index":197,"time_elapsed":618771,"internal_node_id":"0.0-197.0","subject":"S1C1615","sona":"37390","block":4,"time":"2021-09-16T15:15:07.767Z","response":"1st","certainty":"high","char":"A","transposition":-1,"order":["swapped","shifted"],"probe_pitches":[10,5,11,6,0,5,10,3,6,10,3,8,11,6,3,5],"shifted_pitches":[10,5,11,6,0,5,10,4,6,10,3,8,11,6,3,5],"swapped_pitches":[10,5,11,6,0,5,10,6,3,10,3,8,11,6,3,5],"shift_direction":1,"question_num":171,"has_decoy":false},{"rt":2816.4000000059605,"stimulus":"[A] option 1, [L] option 2, [G] neither","key_press":76,"name":"choice","trial_type":"html-keyboard-response","trial_index":208,"time_elapsed":643896,"internal_node_id":"0.0-208.0","subject":"S1C1615","sona":"37390","block":4,"time":"2021-09-16T15:15:07.767Z","response":"2nd","certainty":"high","char":"L","transposition":0,"order":["swapped","shifted"],"probe_pitches":[0,5,-1,5,6,-1,6,4,9,8,3,2,3,6,-1,1],"shifted_pitches":[0,5,-1,5,6,-1,6,4,10,8,3,2,3,6,-1,1],"swapped_pitches":[0,5,-1,5,6,-1,6,9,4,8,3,2,3,6,-1,1],"shift_direction":1,"question_num":181,"has_decoy":false},{"rt":19722.40000000596,"stimulus":"[A] option 1, [L] option 2, [G] neither","key_press":65,"name":"choice","trial_type":"html-keyboard-response","trial_index":219,"time_elapsed":687732,"internal_node_id":"0.0-219.0","subject":"S1C1615","sona":"37390","block":4,"time":"2021-09-16T15:15:07.767Z","response":"1st","certainty":"high","char":"A","transposition":2,"order":["swapped","shifted"],"probe_pitches":[-1,4,11,8,1,3,-1,8,5,6,2,6,7,5,4,-1],"shifted_pitches":[-1,4,11,8,1,3,-1,9,5,6,2,6,7,5,4,-1],"swapped_pitches":[-1,4,11,8,1,3,-1,5,8,6,2,6,7,5,4,-1],"shift_direction":1,"question_num":191,"has_decoy":false}]