[{"rt":2367.199999988079,"stimulus":"[A] option 1, [L] option 2, [G] neither","key_press":65,"name":"choice","trial_type":"html-keyboard-response","trial_index":10,"time_elapsed":28344,"internal_node_id":"0.0-10.0","subject":"S1C1615","sona":"37390","block":2,"time":"2021-09-16T14:51:15.459Z","response":"1st","certainty":"high","char":"A","transposition":-2,"order":["shifted","swapped"],"probe_pitches":[4,2,9,4,2,4,6,-1,2,6,11,-1,6,2,4,9],"shifted_pitches":[4,2,9,4,2,4,6,-1,3,6,11,-1,6,2,4,9],"swapped_pitches":[4,2,9,4,2,4,6,2,-1,6,11,-1,6,2,4,9],"shift_direction":1,"question_num":1,"has_decoy":false},{"rt":1752.5,"stimulus":"[A] option 1, [L] option 2, [G] neither","key_press":76,"name":"choice","trial_type":"html-keyboard-response","trial_index":21,"time_elapsed":52439,"internal_node_id":"0.0-21.0","subject":"S1C1615","sona":"37390","block":2,"time":"2021-09-16T14:51:15.459Z","response":"2nd","certainty":"high","char":"L","transposition":-2,"order":["swapped","shifted"],"probe_pitches":[8,4,1,-1,1,11,8,6,11,8,-1,11,8,-1,4,6],"shifted_pitches":[8,4,1,-1,1,11,8,7,11,8,-1,11,8,-1,4,6],"swapped_pitches":[8,4,1,-1,1,11,8,11,6,8,-1,11,8,-1,4,6],"shift_direction":1,"question_num":11,"has_decoy":false},{"rt":2711.5,"stimulus":"[A] option 1, [L] option 2, [G] neither","key_press":65,"name":"choice","trial_type":"html-keyboard-response","trial_index":32,"time_elapsed":100368,"internal_node_id":"0.0-32.0","subject":"S1C1615","sona":"37390","block":2,"time":"2021-09-16T14:51:15.459Z","response":"1st","certainty":"high","char":"A","transposition":-2,"order":["swapped","shifted"],"probe_pitches":[6,4,9,13,10,6,1,6,8,9,12,8,9,2,10,1],"shifted_pitches":[6,4,9,13,10,6,1,7,8,9,12,8,9,2,10,1],"swapped_pitches":[6,4,9,13,10,6,1,8,6,9,12,8,9,2,10,1],"shift_direction":1,"question_num":21,"has_decoy":false},{"rt":816.6999999880791,"stimulus":"[A] option 1, [L] option 2, [G] neither","key_press":76,"name":"choice","trial_type":"html-keyboard-response","trial_index":43,"time_elapsed":126974,"internal_node_id":"0.0-43.0","subject":"S1C1615","sona":"37390","block":2,"time":"2021-09-16T14:51:15.459Z","response":"2nd","certainty":"high","char":"L","transposition":0,"order":["swapped","shifted"],"probe_pitches":[4,-1,6,11,4,11,1,8,-1,6,1,4,-1,4,-1,6],"shifted_pitches":[4,-1,6,11,4,11,1,8,-2,6,1,4,-1,4,-1,6],"swapped_pitches":[4,-1,6,11,4,11,1,-1,8,6,1,4,-1,4,-1,6],"shift_direction":-1,"question_num":31,"has_decoy":false},{"rt":3255.5,"stimulus":"[A] option 1, [L] option 2, [G] neither","key_press":76,"name":"choice","trial_type":"html-keyboard-response","trial_index":54,"time_elapsed":152542,"internal_node_id":"0.0-54.0","subject":"S1C1615","sona":"37390","block":2,"time":"2021-09-16T14:51:15.459Z","response":"2nd","certainty":"high","char":"L","transposition":-3,"order":["swapped","shifted"],"probe_pitches":[3,5,10,3,1,3,10,3,6,10,13,8,1,6,9,2],"shifted_pitches":[3,5,10,3,1,3,10,4,6,10,13,8,1,6,9,2],"swapped_pitches":[3,5,10,3,1,3,10,6,3,10,13,8,1,6,9,2],"shift_direction":1,"question_num":41,"has_decoy":false},{"rt":1376.199999988079,"stimulus":"[A] option 1, [L] option 2, [G] neither","key_press":65,"name":"choice","trial_type":"html-keyboard-response","trial_index":65,"time_elapsed":176323,"internal_node_id":"0.0-65.0","subject":"S1C1615","sona":"37390","block":2,"time":"2021-09-16T14:51:15.459Z","response":"1st","certainty":"high","char":"A","transposition":-1,"order":["shifted","swapped"],"probe_pitches":[11,9,2,10,1,3,11,6,1,7,5,7,5,8,5,1],"shifted_pitches":[11,9,2,10,1,3,11,6,0,7,5,7,5,8,5,1],"swapped_pitches":[11,9,2,10,1,3,11,1,6,7,5,7,5,8,5,1],"shift_direction":-1,"question_num":51,"has_decoy":false},{"rt":1862.4000000059605,"stimulus":"[A] option 1, [L] option 2, [G] neither","key_press":76,"name":"choice","trial_type":"html-keyboard-response","trial_index":76,"time_elapsed":201639,"internal_node_id":"0.0-76.0","subject":"S1C1615","sona":"37390","block":2,"time":"2021-09-16T14:51:15.459Z","response":"2nd","certainty":"high","char":"L","transposition":-1,"order":["shifted","swapped"],"probe_pitches":[12,8,9,11,12,4,6,1,11,2,3,5,8,12,13,8],"shifted_pitches":[12,8,9,11,12,4,6,1,10,2,3,5,8,12,13,8],"swapped_pitches":[12,8,9,11,12,4,6,11,1,2,3,5,8,12,13,8],"shift_direction":-1,"question_num":61,"has_decoy":false},{"rt":1766.699999988079,"stimulus":"[A] option 1, [L] option 2, [G] neither","key_press":76,"name":"choice","trial_type":"html-keyboard-response","trial_index":87,"time_elapsed":225944,"internal_node_id":"0.0-87.0","subject":"S1C1615","sona":"37390","block":2,"time":"2021-09-16T14:51:15.459Z","response":"2nd","certainty":"high","char":"L","transposition":-2,"order":["swapped","shifted"],"probe_pitches":[6,7,12,7,4,10,7,2,5,10,5,10,13,11,5,10],"shifted_pitches":[6,7,12,7,4,10,7,3,5,10,5,10,13,11,5,10],"swapped_pitches":[6,7,12,7,4,10,7,5,2,10,5,10,13,11,5,10],"shift_direction":1,"question_num":71,"has_decoy":false},{"rt":2463.2999999821186,"stimulus":"[A] option 1, [L] option 2, [G] neither","key_press":65,"name":"choice","trial_type":"html-keyboard-response","trial_index":98,"time_elapsed":253710,"internal_node_id":"0.0-98.0","subject":"S1C1615","sona":"37390","block":2,"time":"2021-09-16T14:51:15.459Z","response":"1st","certainty":"high","char":"A","transposition":-1,"order":["swapped","shifted"],"probe_pitches":[7,11,9,2,-1,4,-1,2,11,7,-1,9,4,11,-1,9],"shifted_pitches":[7,11,9,2,-1,4,-1,2,10,7,-1,9,4,11,-1,9],"swapped_pitches":[7,11,9,2,-1,4,-1,11,2,7,-1,9,4,11,-1,9],"shift_direction":-1,"question_num":81,"has_decoy":false},{"rt":447.19999998807907,"stimulus":"[A] option 1, [L] option 2, [G] neither","key_press":65,"name":"choice","trial_type":"html-keyboard-response","trial_index":109,"time_elapsed":276704,"internal_node_id":"0.0-109.0","subject":"S1C1615","sona":"37390","block":2,"time":"2021-09-16T14:51:15.459Z","response":"1st","certainty":"high","char":"A","transposition":-1,"order":["shifted","swapped"],"probe_pitches":[4,-1,6,4,1,11,9,-1,11,1,4,6,-1,1,-1,1],"shifted_pitches":[4,-1,6,4,1,11,9,0,11,1,4,6,-1,1,-1,1],"swapped_pitches":[4,-1,6,4,1,11,9,11,-1,1,4,6,-1,1,-1,1],"shift_direction":1,"question_num":91,"has_decoy":false},{"rt":2531,"stimulus":"[A] option 1, [L] option 2, [G] neither","key_press":65,"name":"choice","trial_type":"html-keyboard-response","trial_index":120,"time_elapsed":301628,"internal_node_id":"0.0-120.0","subject":"S1C1615","sona":"37390","block":2,"time":"2021-09-16T14:51:15.459Z","response":"1st","certainty":"high","char":"A","transposition":1,"order":["swapped","shifted"],"probe_pitches":[4,9,4,1,4,7,9,5,7,1,4,2,10,13,3,2],"shifted_pitches":[4,9,4,1,4,7,9,6,7,1,4,2,10,13,3,2],"swapped_pitches":[4,9,4,1,4,7,9,7,5,1,4,2,10,13,3,2],"shift_direction":1,"question_num":101,"has_decoy":false},{"rt":773.4000000059605,"stimulus":"[A] option 1, [L] option 2, [G] neither","key_press":76,"name":"choice","trial_type":"html-keyboard-response","trial_index":131,"time_elapsed":326070,"internal_node_id":"0.0-131.0","subject":"S1C1615","sona":"37390","block":2,"time":"2021-09-16T14:51:15.459Z","response":"2nd","certainty":"high","char":"L","transposition":-3,"order":["swapped","shifted"],"probe_pitches":[9,4,2,-1,7,9,7,-1,9,11,-1,9,7,11,9,11],"shifted_pitches":[9,4,2,-1,7,9,7,-1,8,11,-1,9,7,11,9,11],"swapped_pitches":[9,4,2,-1,7,9,7,9,-1,11,-1,9,7,11,9,11],"shift_direction":-1,"question_num":111,"has_decoy":false},{"rt":3432.9000000059605,"stimulus":"[A] option 1, [L] option 2, [G] neither","key_press":65,"name":"choice","trial_type":"html-keyboard-response","trial_index":142,"time_elapsed":351810,"internal_node_id":"0.0-142.0","subject":"S1C1615","sona":"37390","block":2,"time":"2021-09-16T14:51:15.459Z","response":"1st","certainty":"high","char":"A","transposition":2,"order":["shifted","swapped"],"probe_pitches":[2,8,2,5,6,5,7,6,10,11,7,1,11,6,11,12],"shifted_pitches":[2,8,2,5,6,5,7,6,9,11,7,1,11,6,11,12],"swapped_pitches":[2,8,2,5,6,5,7,10,6,11,7,1,11,6,11,12],"shift_direction":-1,"question_num":121,"has_decoy":false},{"rt":2284.9000000059605,"stimulus":"[A] option 1, [L] option 2, [G] neither","key_press":65,"name":"choice","trial_type":"html-keyboard-response","trial_index":153,"time_elapsed":382322,"internal_node_id":"0.0-153.0","subject":"S1C1615","sona":"37390","block":2,"time":"2021-09-16T14:51:15.459Z","response":"1st","certainty":"high","char":"A","transposition":0,"order":["swapped","shifted"],"probe_pitches":[4,7,13,5,1,7,5,7,10,1,2,3,12,10,3,10],"shifted_pitches":[4,7,13,5,1,7,5,8,10,1,2,3,12,10,3,10],"swapped_pitches":[4,7,13,5,1,7,5,10,7,1,2,3,12,10,3,10],"shift_direction":1,"question_num":131,"has_decoy":false},{"rt":885,"stimulus":"[A] option 1, [L] option 2, [G] neither","key_press":76,"name":"choice","trial_type":"html-keyboard-response","trial_index":164,"time_elapsed":406732,"internal_node_id":"0.0-164.0","subject":"S1C1615","sona":"37390","block":2,"time":"2021-09-16T14:51:15.459Z","response":"2nd","certainty":"high","char":"L","transposition":3,"order":["shifted","swapped"],"probe_pitches":[12,7,2,9,7,13,10,5,12,4,12,13,5,2,3,5],"shifted_pitches":[12,7,2,9,7,13,10,5,11,4,12,13,5,2,3,5],"swapped_pitches":[12,7,2,9,7,13,10,12,5,4,12,13,5,2,3,5],"shift_direction":-1,"question_num":141,"has_decoy":false},{"rt":974.8000000119209,"stimulus":"[A] option 1, [L] option 2, [G] neither","key_press":76,"name":"choice","trial_type":"html-keyboard-response","trial_index":175,"time_elapsed":430042,"internal_node_id":"0.0-175.0","subject":"S1C1615","sona":"37390","block":2,"time":"2021-09-16T14:51:15.459Z","response":"2nd","certainty":"high","char":"L","transposition":-3,"order":["swapped","shifted"],"probe_pitches":[3,6,8,11,6,8,11,3,-1,8,-1,1,6,3,11,8],"shifted_pitches":[3,6,8,11,6,8,11,2,-1,8,-1,1,6,3,11,8],"swapped_pitches":[3,6,8,11,6,8,11,-1,3,8,-1,1,6,3,11,8],"shift_direction":-1,"question_num":151,"has_decoy":false},{"rt":840.5,"stimulus":"[A] option 1, [L] option 2, [G] neither","key_press":76,"name":"choice","trial_type":"html-keyboard-response","trial_index":186,"time_elapsed":453717,"internal_node_id":"0.0-186.0","subject":"S1C1615","sona":"37390","block":2,"time":"2021-09-16T14:51:15.459Z","response":"2nd","certainty":"high","char":"L","transposition":1,"order":["shifted","swapped"],"probe_pitches":[11,6,9,6,1,6,4,11,6,-1,9,6,-1,9,11,4],"shifted_pitches":[11,6,9,6,1,6,4,11,7,-1,9,6,-1,9,11,4],"swapped_pitches":[11,6,9,6,1,6,4,6,11,-1,9,6,-1,9,11,4],"shift_direction":1,"question_num":161,"has_decoy":false},{"rt":1616.4000000059605,"stimulus":"[A] option 1, [L] option 2, [G] neither","key_press":65,"name":"choice","trial_type":"html-keyboard-response","trial_index":197,"time_elapsed":478223,"internal_node_id":"0.0-197.0","subject":"S1C1615","sona":"37390","block":2,"time":"2021-09-16T14:51:15.459Z","response":"1st","certainty":"high","char":"A","transposition":-3,"order":["shifted","swapped"],"probe_pitches":[10,12,6,10,2,11,9,12,6,10,8,4,6,3,8,4],"shifted_pitches":[10,12,6,10,2,11,9,12,5,10,8,4,6,3,8,4],"swapped_pitches":[10,12,6,10,2,11,9,6,12,10,8,4,6,3,8,4],"shift_direction":-1,"question_num":171,"has_decoy":false},{"rt":2949.5,"stimulus":"[A] option 1, [L] option 2, [G] neither","key_press":76,"name":"choice","trial_type":"html-keyboard-response","trial_index":208,"time_elapsed":504676,"internal_node_id":"0.0-208.0","subject":"S1C1615","sona":"37390","block":2,"time":"2021-09-16T14:51:15.459Z","response":"2nd","certainty":"high","char":"L","transposition":2,"order":["shifted","swapped"],"probe_pitches":[8,11,6,8,-1,3,1,11,3,1,3,8,1,8,3,6],"shifted_pitches":[8,11,6,8,-1,3,1,12,3,1,3,8,1,8,3,6],"swapped_pitches":[8,11,6,8,-1,3,1,3,11,1,3,8,1,8,3,6],"shift_direction":1,"question_num":181,"has_decoy":false},{"rt":1141.5999999940395,"stimulus":"[A] option 1, [L] option 2, [G] neither","key_press":65,"name":"choice","trial_type":"html-keyboard-response","trial_index":219,"time_elapsed":530218,"internal_node_id":"0.0-219.0","subject":"S1C1615","sona":"37390","block":2,"time":"2021-09-16T14:51:15.459Z","response":"1st","certainty":"high","char":"A","transposition":3,"order":["shifted","swapped"],"probe_pitches":[4,9,11,9,2,-1,9,6,2,-1,11,2,4,-1,9,4],"shifted_pitches":[4,9,11,9,2,-1,9,5,2,-1,11,2,4,-1,9,4],"swapped_pitches":[4,9,11,9,2,-1,9,2,6,-1,11,2,4,-1,9,4],"shift_direction":-1,"question_num":191,"has_decoy":false}]