[{"rt":11584.59999999404,"stimulus":"[A] option 1, [L] option 2, [G] neither","key_press":76,"name":"choice","trial_type":"html-keyboard-response","trial_index":15,"time_elapsed":339459,"internal_node_id":"0.0-15.0","response":"2nd","certainty":"high","char":"L","transposition":-3,"order":["shifted","swapped"],"probe_pitches":[4,-1,4,9,1,4,6,4,-1,11,1,-1,6,9,11,1],"shifted_pitches":[4,-1,4,9,1,4,6,3,-1,11,1,-1,6,9,11,1],"swapped_pitches":[4,-1,4,9,1,4,6,-1,4,11,1,-1,6,9,11,1],"shift_direction":-1,"question_num":1,"has_decoy":false,"subject":"S1C1615","sona":"37390","block":1,"time":"2021-09-16T14:42:18.073Z"},{"rt":3144.899999976158,"stimulus":"[A] option 1, [L] option 2, [G] neither","key_press":76,"name":"choice","trial_type":"html-keyboard-response","trial_index":26,"time_elapsed":368380,"internal_node_id":"0.0-26.0","response":"2nd","certainty":"high","char":"L","transposition":-1,"order":["swapped","shifted"],"probe_pitches":[2,6,4,9,2,9,6,11,9,6,-1,4,2,9,-1,9],"shifted_pitches":[2,6,4,9,2,9,6,11,10,6,-1,4,2,9,-1,9],"swapped_pitches":[2,6,4,9,2,9,6,9,11,6,-1,4,2,9,-1,9],"shift_direction":1,"question_num":11,"has_decoy":false,"subject":"S1C1615","sona":"37390","block":1,"time":"2021-09-16T14:42:18.073Z"},{"rt":1865.300000011921,"stimulus":"[A] option 1, [L] option 2, [G] neither","key_press":65,"name":"choice","trial_type":"html-keyboard-response","trial_index":37,"time_elapsed":396910,"internal_node_id":"0.0-37.0","response":"1st","certainty":"high","char":"A","transposition":-1,"order":["shifted","swapped"],"probe_pitches":[7,3,7,15,13,11,3,7,12,3,4,9,14,10,3,7],"shifted_pitches":[7,3,7,15,13,11,3,6,12,3,4,9,14,10,3,7],"swapped_pitches":[7,3,7,15,13,11,3,12,7,3,4,9,14,10,3,7],"shift_direction":-1,"question_num":21,"has_decoy":false,"subject":"S1C1615","sona":"37390","block":1,"time":"2021-09-16T14:42:18.073Z"},{"rt":891.8000000119209,"stimulus":"[A] option 1, [L] option 2, [G] neither","key_press":76,"name":"choice","trial_type":"html-keyboard-response","trial_index":48,"time_elapsed":423737,"internal_node_id":"0.0-48.0","response":"2nd","certainty":"high","char":"L","transposition":-3,"order":["swapped","shifted"],"probe_pitches":[4,6,4,1,9,-1,1,-1,4,11,4,-1,9,4,1,4],"shifted_pitches":[4,6,4,1,9,-1,1,-1,5,11,4,-1,9,4,1,4],"swapped_pitches":[4,6,4,1,9,-1,1,4,-1,11,4,-1,9,4,1,4],"shift_direction":1,"question_num":31,"has_decoy":false,"subject":"S1C1615","sona":"37390","block":1,"time":"2021-09-16T14:42:18.073Z"},{"rt":395.2999999821186,"stimulus":"[A] option 1, [L] option 2, [G] neither","key_press":76,"name":"choice","trial_type":"html-keyboard-response","trial_index":59,"time_elapsed":448780,"internal_node_id":"0.0-59.0","response":"2nd","certainty":"high","char":"L","transposition":-2,"order":["swapped","shifted"],"probe_pitches":[-1,4,8,4,-1,4,6,1,11,-1,1,-1,6,8,1,-1],"shifted_pitches":[-1,4,8,4,-1,4,6,0,11,-1,1,-1,6,8,1,-1],"swapped_pitches":[-1,4,8,4,-1,4,6,11,1,-1,1,-1,6,8,1,-1],"shift_direction":-1,"question_num":41,"has_decoy":false,"subject":"S1C1615","sona":"37390","block":1,"time":"2021-09-16T14:42:18.073Z"},{"rt":1367.0999999940395,"stimulus":"[A] option 1, [L] option 2, [G] neither","key_press":65,"name":"choice","trial_type":"html-keyboard-response","trial_index":70,"time_elapsed":477993,"internal_node_id":"0.0-70.0","response":"1st","certainty":"high","char":"A","transposition":3,"order":["swapped","shifted"],"probe_pitches":[6,9,6,13,8,4,7,13,5,10,15,6,8,4,5,4],"shifted_pitches":[6,9,6,13,8,4,7,12,5,10,15,6,8,4,5,4],"swapped_pitches":[6,9,6,13,8,4,7,5,13,10,15,6,8,4,5,4],"shift_direction":-1,"question_num":51,"has_decoy":false,"subject":"S1C1615","sona":"37390","block":1,"time":"2021-09-16T14:42:18.073Z"},{"rt":1133.8999999761581,"stimulus":"[A] option 1, [L] option 2, [G] neither","key_press":65,"name":"choice","trial_type":"html-keyboard-response","trial_index":81,"time_elapsed":556967,"internal_node_id":"0.0-81.0","response":"1st","certainty":"high","char":"A","transposition":-2,"order":["swapped","shifted"],"probe_pitches":[8,14,8,5,3,10,4,6,3,12,5,4,13,8,9,15],"shifted_pitches":[8,14,8,5,3,10,4,7,3,12,5,4,13,8,9,15],"swapped_pitches":[8,14,8,5,3,10,4,3,6,12,5,4,13,8,9,15],"shift_direction":1,"question_num":61,"has_decoy":false,"subject":"S1C1615","sona":"37390","block":1,"time":"2021-09-16T14:42:18.073Z"},{"rt":690.7000000178814,"stimulus":"[A] option 1, [L] option 2, [G] neither","key_press":76,"name":"choice","trial_type":"html-keyboard-response","trial_index":92,"time_elapsed":584054,"internal_node_id":"0.0-92.0","response":"2nd","certainty":"high","char":"L","transposition":0,"order":["swapped","shifted"],"probe_pitches":[11,6,11,8,6,1,-1,4,11,6,8,11,8,4,1,6],"shifted_pitches":[11,6,11,8,6,1,-1,4,10,6,8,11,8,4,1,6],"swapped_pitches":[11,6,11,8,6,1,-1,11,4,6,8,11,8,4,1,6],"shift_direction":-1,"question_num":71,"has_decoy":false,"subject":"S1C1615","sona":"37390","block":1,"time":"2021-09-16T14:42:18.073Z"},{"rt":7823.5999999940395,"stimulus":"[A] option 1, [L] option 2, [G] neither","key_press":76,"name":"choice","trial_type":"html-keyboard-response","trial_index":103,"time_elapsed":614507,"internal_node_id":"0.0-103.0","response":"2nd","certainty":"high","char":"L","transposition":-3,"order":["shifted","swapped"],"probe_pitches":[7,8,12,6,15,12,7,15,11,12,4,12,11,13,4,13],"shifted_pitches":[7,8,12,6,15,12,7,15,10,12,4,12,11,13,4,13],"swapped_pitches":[7,8,12,6,15,12,7,11,15,12,4,12,11,13,4,13],"shift_direction":-1,"question_num":81,"has_decoy":false,"subject":"S1C1615","sona":"37390","block":1,"time":"2021-09-16T14:42:18.073Z"},{"rt":2788.4000000059605,"stimulus":"[A] option 1, [L] option 2, [G] neither","key_press":65,"name":"choice","trial_type":"html-keyboard-response","trial_index":114,"time_elapsed":642421,"internal_node_id":"0.0-114.0","response":"1st","certainty":"high","char":"A","transposition":0,"order":["swapped","shifted"],"probe_pitches":[3,7,11,12,14,11,10,4,7,12,6,11,9,11,9,7],"shifted_pitches":[3,7,11,12,14,11,10,5,7,12,6,11,9,11,9,7],"swapped_pitches":[3,7,11,12,14,11,10,7,4,12,6,11,9,11,9,7],"shift_direction":1,"question_num":91,"has_decoy":false,"subject":"S1C1615","sona":"37390","block":1,"time":"2021-09-16T14:42:18.073Z"},{"rt":1430.300000011921,"stimulus":"[A] option 1, [L] option 2, [G] neither","key_press":65,"name":"choice","trial_type":"html-keyboard-response","trial_index":125,"time_elapsed":671543,"internal_node_id":"0.0-125.0","response":"1st","certainty":"high","char":"A","transposition":-2,"order":["swapped","shifted"],"probe_pitches":[13,11,4,11,5,7,6,3,8,14,7,15,8,13,4,7],"shifted_pitches":[13,11,4,11,5,7,6,3,9,14,7,15,8,13,4,7],"swapped_pitches":[13,11,4,11,5,7,6,8,3,14,7,15,8,13,4,7],"shift_direction":1,"question_num":101,"has_decoy":false,"subject":"S1C1615","sona":"37390","block":1,"time":"2021-09-16T14:42:18.073Z"},{"rt":1713.7999999821186,"stimulus":"[A] option 1, [L] option 2, [G] neither","key_press":65,"name":"choice","trial_type":"html-keyboard-response","trial_index":136,"time_elapsed":696567,"internal_node_id":"0.0-136.0","response":"1st","certainty":"high","char":"A","transposition":-1,"order":["shifted","swapped"],"probe_pitches":[6,12,14,13,12,9,11,13,9,3,9,5,4,5,4,3],"shifted_pitches":[6,12,14,13,12,9,11,13,8,3,9,5,4,5,4,3],"swapped_pitches":[6,12,14,13,12,9,11,9,13,3,9,5,4,5,4,3],"shift_direction":-1,"question_num":111,"has_decoy":false,"subject":"S1C1615","sona":"37390","block":1,"time":"2021-09-16T14:42:18.073Z"},{"rt":2255.4000000059605,"stimulus":"[A] option 1, [L] option 2, [G] neither","key_press":76,"name":"choice","trial_type":"html-keyboard-response","trial_index":147,"time_elapsed":725718,"internal_node_id":"0.0-147.0","response":"2nd","certainty":"high","char":"L","transposition":2,"order":["shifted","swapped"],"probe_pitches":[11,6,11,3,8,11,3,-1,8,11,1,-1,11,3,1,11],"shifted_pitches":[11,6,11,3,8,11,3,-1,9,11,1,-1,11,3,1,11],"swapped_pitches":[11,6,11,3,8,11,3,8,-1,11,1,-1,11,3,1,11],"shift_direction":1,"question_num":121,"has_decoy":false,"subject":"S1C1615","sona":"37390","block":1,"time":"2021-09-16T14:42:18.073Z"},{"rt":678.7999999821186,"stimulus":"[A] option 1, [L] option 2, [G] neither","key_press":65,"name":"choice","trial_type":"html-keyboard-response","trial_index":158,"time_elapsed":752731,"internal_node_id":"0.0-158.0","response":"1st","certainty":"high","char":"A","transposition":-1,"order":["shifted","swapped"],"probe_pitches":[1,-1,3,11,3,1,3,11,1,6,11,8,3,8,-1,11],"shifted_pitches":[1,-1,3,11,3,1,3,12,1,6,11,8,3,8,-1,11],"swapped_pitches":[1,-1,3,11,3,1,3,1,11,6,11,8,3,8,-1,11],"shift_direction":1,"question_num":131,"has_decoy":false,"subject":"S1C1615","sona":"37390","block":1,"time":"2021-09-16T14:42:18.073Z"},{"rt":697.7000000178814,"stimulus":"[A] option 1, [L] option 2, [G] neither","key_press":65,"name":"choice","trial_type":"html-keyboard-response","trial_index":169,"time_elapsed":778890,"internal_node_id":"0.0-169.0","response":"1st","certainty":"high","char":"A","transposition":1,"order":["shifted","swapped"],"probe_pitches":[11,9,11,9,6,4,2,6,-1,11,4,11,4,-1,2,4],"shifted_pitches":[11,9,11,9,6,4,2,6,-2,11,4,11,4,-1,2,4],"swapped_pitches":[11,9,11,9,6,4,2,-1,6,11,4,11,4,-1,2,4],"shift_direction":-1,"question_num":141,"has_decoy":false,"subject":"S1C1615","sona":"37390","block":1,"time":"2021-09-16T14:42:18.073Z"},{"rt":2874.0999999940395,"stimulus":"[A] option 1, [L] option 2, [G] neither","key_press":65,"name":"choice","trial_type":"html-keyboard-response","trial_index":180,"time_elapsed":806917,"internal_node_id":"0.0-180.0","response":"1st","certainty":"high","char":"A","transposition":-3,"order":["shifted","swapped"],"probe_pitches":[3,7,8,4,5,7,9,7,10,3,15,10,4,10,8,3],"shifted_pitches":[3,7,8,4,5,7,9,7,11,3,15,10,4,10,8,3],"swapped_pitches":[3,7,8,4,5,7,9,10,7,3,15,10,4,10,8,3],"shift_direction":1,"question_num":151,"has_decoy":false,"subject":"S1C1615","sona":"37390","block":1,"time":"2021-09-16T14:42:18.073Z"},{"rt":573.8999999761581,"stimulus":"[A] option 1, [L] option 2, [G] neither","key_press":65,"name":"choice","trial_type":"html-keyboard-response","trial_index":191,"time_elapsed":849106,"internal_node_id":"0.0-191.0","response":"1st","certainty":"high","char":"A","transposition":1,"order":["shifted","swapped"],"probe_pitches":[6,4,9,10,4,8,4,13,15,4,12,13,3,7,8,7],"shifted_pitches":[6,4,9,10,4,8,4,14,15,4,12,13,3,7,8,7],"swapped_pitches":[6,4,9,10,4,8,4,15,13,4,12,13,3,7,8,7],"shift_direction":1,"question_num":161,"has_decoy":false,"subject":"S1C1615","sona":"37390","block":1,"time":"2021-09-16T14:42:18.073Z"},{"rt":1265.5,"stimulus":"[A] option 1, [L] option 2, [G] neither","key_press":65,"name":"choice","trial_type":"html-keyboard-response","trial_index":202,"time_elapsed":872768,"internal_node_id":"0.0-202.0","response":"1st","certainty":"high","char":"A","transposition":2,"order":["swapped","shifted"],"probe_pitches":[9,7,3,4,6,7,12,11,14,12,3,4,8,3,9,15],"shifted_pitches":[9,7,3,4,6,7,12,11,13,12,3,4,8,3,9,15],"swapped_pitches":[9,7,3,4,6,7,12,14,11,12,3,4,8,3,9,15],"shift_direction":-1,"question_num":171,"has_decoy":false,"subject":"S1C1615","sona":"37390","block":1,"time":"2021-09-16T14:42:18.073Z"},{"rt":2153.699999988079,"stimulus":"[A] option 1, [L] option 2, [G] neither","key_press":76,"name":"choice","trial_type":"html-keyboard-response","trial_index":213,"time_elapsed":897316,"internal_node_id":"0.0-213.0","response":"2nd","certainty":"high","char":"L","transposition":3,"order":["swapped","shifted"],"probe_pitches":[-1,4,11,9,11,4,11,2,-1,7,11,2,-1,4,2,7],"shifted_pitches":[-1,4,11,9,11,4,11,3,-1,7,11,2,-1,4,2,7],"swapped_pitches":[-1,4,11,9,11,4,11,-1,2,7,11,2,-1,4,2,7],"shift_direction":1,"question_num":181,"has_decoy":false,"subject":"S1C1615","sona":"37390","block":1,"time":"2021-09-16T14:42:18.073Z"},{"rt":1135.4000000059605,"stimulus":"[A] option 1, [L] option 2, [G] neither","key_press":65,"name":"choice","trial_type":"html-keyboard-response","trial_index":224,"time_elapsed":921729,"internal_node_id":"0.0-224.0","response":"1st","certainty":"high","char":"A","transposition":-2,"order":["shifted","swapped"],"probe_pitches":[-1,4,-1,2,9,-1,2,9,-1,4,-1,7,9,7,2,-1],"shifted_pitches":[-1,4,-1,2,9,-1,2,8,-1,4,-1,7,9,7,2,-1],"swapped_pitches":[-1,4,-1,2,9,-1,2,-1,9,4,-1,7,9,7,2,-1],"shift_direction":-1,"question_num":191,"has_decoy":false,"subject":"S1C1615","sona":"37390","block":1,"time":"2021-09-16T14:42:18.073Z"}]