[{"rt":3707.899999976158,"stimulus":"[A] option 1, [L] option 2, [G] neither","key_press":65,"name":"choice","trial_type":"html-keyboard-response","trial_index":10,"time_elapsed":27656,"internal_node_id":"0.0-10.0","subject":"S1C1615","sona":"37390","block":5,"time":"2021-09-16T15:29:37.679Z","response":"1st","certainty":"high","char":"A","transposition":2,"order":["shifted","swapped"],"probe_pitches":[15,13,8,6,8,15,10,15,8,10,13,3,15,6,10,13],"shifted_pitches":[15,13,8,6,8,15,10,16,8,10,13,3,15,6,10,13],"swapped_pitches":[15,13,8,6,8,15,10,8,15,10,13,3,15,6,10,13],"shift_direction":1,"question_num":1,"has_decoy":false},{"rt":11279,"stimulus":"[A] option 1, [L] option 2, [G] neither","key_press":76,"name":"choice","trial_type":"html-keyboard-response","trial_index":21,"time_elapsed":62457,"internal_node_id":"0.0-21.0","subject":"S1C1615","sona":"37390","block":5,"time":"2021-09-16T15:29:37.679Z","response":"2nd","certainty":"high","char":"L","transposition":-1,"order":["shifted","swapped"],"probe_pitches":[10,5,8,10,5,3,13,8,5,13,8,15,3,5,13,3],"shifted_pitches":[10,5,8,10,5,3,13,7,5,13,8,15,3,5,13,3],"swapped_pitches":[10,5,8,10,5,3,13,5,8,13,8,15,3,5,13,3],"shift_direction":-1,"question_num":11,"has_decoy":false},{"rt":1805,"stimulus":"[A] option 1, [L] option 2, [G] neither","key_press":65,"name":"choice","trial_type":"html-keyboard-response","trial_index":32,"time_elapsed":87263,"internal_node_id":"0.0-32.0","subject":"S1C1615","sona":"37390","block":5,"time":"2021-09-16T15:29:37.679Z","response":"1st","certainty":"high","char":"A","transposition":0,"order":["swapped","shifted"],"probe_pitches":[6,9,2,6,2,9,2,11,13,5,13,2,14,6,4,5],"shifted_pitches":[6,9,2,6,2,9,2,12,13,5,13,2,14,6,4,5],"swapped_pitches":[6,9,2,6,2,9,2,13,11,5,13,2,14,6,4,5],"shift_direction":1,"question_num":21,"has_decoy":false},{"rt":2119.9000000059605,"stimulus":"[A] option 1, [L] option 2, [G] neither","key_press":65,"name":"choice","trial_type":"html-keyboard-response","trial_index":43,"time_elapsed":113798,"internal_node_id":"0.0-43.0","subject":"S1C1615","sona":"37390","block":5,"time":"2021-09-16T15:29:37.679Z","response":"1st","certainty":"high","char":"A","transposition":-3,"order":["swapped","shifted"],"probe_pitches":[14,12,7,10,3,7,6,8,12,4,11,10,12,10,6,11],"shifted_pitches":[14,12,7,10,3,7,6,8,13,4,11,10,12,10,6,11],"swapped_pitches":[14,12,7,10,3,7,6,12,8,4,11,10,12,10,6,11],"shift_direction":1,"question_num":31,"has_decoy":false},{"rt":260,"stimulus":"[A] option 1, [L] option 2, [G] neither","key_press":65,"name":"choice","trial_type":"html-keyboard-response","trial_index":54,"time_elapsed":137938,"internal_node_id":"0.0-54.0","subject":"S1C1615","sona":"37390","block":5,"time":"2021-09-16T15:29:37.679Z","response":"1st","certainty":"high","char":"A","transposition":0,"order":["swapped","shifted"],"probe_pitches":[12,10,8,3,10,5,12,3,10,5,10,8,10,3,15,8],"shifted_pitches":[12,10,8,3,10,5,12,3,11,5,10,8,10,3,15,8],"swapped_pitches":[12,10,8,3,10,5,12,10,3,5,10,8,10,3,15,8],"shift_direction":1,"question_num":41,"has_decoy":false},{"rt":215760.09999999404,"stimulus":"[A] option 1, [L] option 2, [G] neither","key_press":65,"name":"choice","trial_type":"html-keyboard-response","trial_index":65,"time_elapsed":376029,"internal_node_id":"0.0-65.0","subject":"S1C1615","sona":"37390","block":5,"time":"2021-09-16T15:29:37.679Z","response":"1st","certainty":"high","char":"A","transposition":1,"order":["swapped","shifted"],"probe_pitches":[8,3,8,3,8,13,8,11,6,13,6,8,3,11,6,15],"shifted_pitches":[8,3,8,3,8,13,8,12,6,13,6,8,3,11,6,15],"swapped_pitches":[8,3,8,3,8,13,8,6,11,13,6,8,3,11,6,15],"shift_direction":1,"question_num":51,"has_decoy":false},{"rt":6254.9000000059605,"stimulus":"[A] option 1, [L] option 2, [G] neither","key_press":65,"name":"choice","trial_type":"html-keyboard-response","trial_index":76,"time_elapsed":407481,"internal_node_id":"0.0-76.0","subject":"S1C1615","sona":"37390","block":5,"time":"2021-09-16T15:29:37.679Z","response":"1st","certainty":"high","char":"A","transposition":2,"order":["shifted","swapped"],"probe_pitches":[10,13,6,8,11,8,6,9,4,13,12,13,9,10,9,4],"shifted_pitches":[10,13,6,8,11,8,6,9,5,13,12,13,9,10,9,4],"swapped_pitches":[10,13,6,8,11,8,6,4,9,13,12,13,9,10,9,4],"shift_direction":1,"question_num":61,"has_decoy":false},{"rt":2244,"stimulus":"[A] option 1, [L] option 2, [G] neither","key_press":76,"name":"choice","trial_type":"html-keyboard-response","trial_index":87,"time_elapsed":437100,"internal_node_id":"0.0-87.0","subject":"S1C1615","sona":"37390","block":5,"time":"2021-09-16T15:29:37.679Z","response":"2nd","certainty":"high","char":"L","transposition":-2,"order":["shifted","swapped"],"probe_pitches":[6,12,8,12,11,3,13,5,11,2,10,12,9,13,10,3],"shifted_pitches":[6,12,8,12,11,3,13,4,11,2,10,12,9,13,10,3],"swapped_pitches":[6,12,8,12,11,3,13,11,5,2,10,12,9,13,10,3],"shift_direction":-1,"question_num":71,"has_decoy":false},{"rt":25702.90000000596,"stimulus":"[A] option 1, [L] option 2, [G] neither","key_press":65,"name":"choice","trial_type":"html-keyboard-response","trial_index":98,"time_elapsed":485390,"internal_node_id":"0.0-98.0","subject":"S1C1615","sona":"37390","block":5,"time":"2021-09-16T15:29:37.679Z","response":"1st","certainty":"high","char":"A","transposition":1,"order":["shifted","swapped"],"probe_pitches":[7,12,8,2,11,8,5,9,11,2,13,4,12,5,11,2],"shifted_pitches":[7,12,8,2,11,8,5,9,10,2,13,4,12,5,11,2],"swapped_pitches":[7,12,8,2,11,8,5,11,9,2,13,4,12,5,11,2],"shift_direction":-1,"question_num":81,"has_decoy":false},{"rt":1920.5,"stimulus":"[A] option 1, [L] option 2, [G] neither","key_press":65,"name":"choice","trial_type":"html-keyboard-response","trial_index":109,"time_elapsed":512532,"internal_node_id":"0.0-109.0","subject":"S1C1615","sona":"37390","block":5,"time":"2021-09-16T15:29:37.679Z","response":"1st","certainty":"high","char":"A","transposition":-1,"order":["shifted","swapped"],"probe_pitches":[4,9,6,2,9,10,3,6,8,9,14,10,4,14,3,8],"shifted_pitches":[4,9,6,2,9,10,3,7,8,9,14,10,4,14,3,8],"swapped_pitches":[4,9,6,2,9,10,3,8,6,9,14,10,4,14,3,8],"shift_direction":1,"question_num":91,"has_decoy":false},{"rt":4281,"stimulus":"[A] option 1, [L] option 2, [G] neither","key_press":76,"name":"choice","trial_type":"html-keyboard-response","trial_index":120,"time_elapsed":539252,"internal_node_id":"0.0-120.0","subject":"S1C1615","sona":"37390","block":5,"time":"2021-09-16T15:29:37.679Z","response":"2nd","certainty":"high","char":"L","transposition":3,"order":["swapped","shifted"],"probe_pitches":[6,10,3,6,8,10,3,8,6,10,3,10,13,8,15,8],"shifted_pitches":[6,10,3,6,8,10,3,8,5,10,3,10,13,8,15,8],"swapped_pitches":[6,10,3,6,8,10,3,6,8,10,3,10,13,8,15,8],"shift_direction":-1,"question_num":101,"has_decoy":false},{"rt":4942.5999999940395,"stimulus":"[A] option 1, [L] option 2, [G] neither","key_press":65,"name":"choice","trial_type":"html-keyboard-response","trial_index":131,"time_elapsed":568284,"internal_node_id":"0.0-131.0","subject":"S1C1615","sona":"37390","block":5,"time":"2021-09-16T15:29:37.679Z","response":"1st","certainty":"high","char":"A","transposition":-1,"order":["shifted","swapped"],"probe_pitches":[3,5,7,5,7,3,7,5,12,7,10,15,7,12,3,7],"shifted_pitches":[3,5,7,5,7,3,7,5,11,7,10,15,7,12,3,7],"swapped_pitches":[3,5,7,5,7,3,7,12,5,7,10,15,7,12,3,7],"shift_direction":-1,"question_num":111,"has_decoy":false},{"rt":14555,"stimulus":"[A] option 1, [L] option 2, [G] neither","key_press":65,"name":"choice","trial_type":"html-keyboard-response","trial_index":142,"time_elapsed":606296,"internal_node_id":"0.0-142.0","subject":"S1C1615","sona":"37390","block":5,"time":"2021-09-16T15:29:37.679Z","response":"1st","certainty":"high","char":"A","transposition":-3,"order":["swapped","shifted"],"probe_pitches":[6,8,6,11,3,6,3,11,6,3,13,6,11,13,11,8],"shifted_pitches":[6,8,6,11,3,6,3,11,5,3,13,6,11,13,11,8],"swapped_pitches":[6,8,6,11,3,6,3,6,11,3,13,6,11,13,11,8],"shift_direction":-1,"question_num":121,"has_decoy":false},{"rt":3776.4000000059605,"stimulus":"[A] option 1, [L] option 2, [G] neither","key_press":76,"name":"choice","trial_type":"html-keyboard-response","trial_index":153,"time_elapsed":640798,"internal_node_id":"0.0-153.0","subject":"S1C1615","sona":"37390","block":5,"time":"2021-09-16T15:29:37.679Z","response":"2nd","certainty":"high","char":"L","transposition":-2,"order":["swapped","shifted"],"probe_pitches":[12,7,12,7,3,7,3,7,15,12,7,12,15,10,3,5],"shifted_pitches":[12,7,12,7,3,7,3,6,15,12,7,12,15,10,3,5],"swapped_pitches":[12,7,12,7,3,7,3,15,7,12,7,12,15,10,3,5],"shift_direction":-1,"question_num":131,"has_decoy":false},{"rt":8498.699999988079,"stimulus":"[A] option 1, [L] option 2, [G] neither","key_press":65,"name":"choice","trial_type":"html-keyboard-response","trial_index":164,"time_elapsed":674890,"internal_node_id":"0.0-164.0","subject":"S1C1615","sona":"37390","block":5,"time":"2021-09-16T15:29:37.679Z","response":"1st","certainty":"high","char":"A","transposition":-3,"order":["shifted","swapped"],"probe_pitches":[15,10,13,15,8,15,10,3,5,15,3,8,3,5,8,5],"shifted_pitches":[15,10,13,15,8,15,10,3,6,15,3,8,3,5,8,5],"swapped_pitches":[15,10,13,15,8,15,10,5,3,15,3,8,3,5,8,5],"shift_direction":1,"question_num":141,"has_decoy":false},{"rt":5322,"stimulus":"[A] option 1, [L] option 2, [G] neither","key_press":76,"name":"choice","trial_type":"html-keyboard-response","trial_index":175,"time_elapsed":715103,"internal_node_id":"0.0-175.0","subject":"S1C1615","sona":"37390","block":5,"time":"2021-09-16T15:29:37.679Z","response":"2nd","certainty":"high","char":"L","transposition":-2,"order":["shifted","swapped"],"probe_pitches":[12,8,15,8,10,3,12,3,15,5,12,3,15,5,3,10],"shifted_pitches":[12,8,15,8,10,3,12,4,15,5,12,3,15,5,3,10],"swapped_pitches":[12,8,15,8,10,3,12,15,3,5,12,3,15,5,3,10],"shift_direction":1,"question_num":151,"has_decoy":false},{"rt":3941.9000000059605,"stimulus":"[A] option 1, [L] option 2, [G] neither","key_press":65,"name":"choice","trial_type":"html-keyboard-response","trial_index":186,"time_elapsed":778570,"internal_node_id":"0.0-186.0","subject":"S1C1615","sona":"37390","block":5,"time":"2021-09-16T15:29:37.679Z","response":"1st","certainty":"high","char":"A","transposition":-2,"order":["swapped","shifted"],"probe_pitches":[8,13,8,5,6,7,13,10,11,8,5,8,12,5,3,10],"shifted_pitches":[8,13,8,5,6,7,13,9,11,8,5,8,12,5,3,10],"swapped_pitches":[8,13,8,5,6,7,13,11,10,8,5,8,12,5,3,10],"shift_direction":-1,"question_num":161,"has_decoy":false},{"rt":7538,"stimulus":"[A] option 1, [L] option 2, [G] neither","key_press":65,"name":"choice","trial_type":"html-keyboard-response","trial_index":197,"time_elapsed":811666,"internal_node_id":"0.0-197.0","subject":"S1C1615","sona":"37390","block":5,"time":"2021-09-16T15:29:37.679Z","response":"1st","certainty":"high","char":"A","transposition":3,"order":["swapped","shifted"],"probe_pitches":[13,9,12,8,10,12,7,12,3,4,10,8,2,8,9,10],"shifted_pitches":[13,9,12,8,10,12,7,11,3,4,10,8,2,8,9,10],"swapped_pitches":[13,9,12,8,10,12,7,3,12,4,10,8,2,8,9,10],"shift_direction":-1,"question_num":171,"has_decoy":false},{"rt":1343.5999999940395,"stimulus":"[A] option 1, [L] option 2, [G] neither","key_press":65,"name":"choice","trial_type":"html-keyboard-response","trial_index":208,"time_elapsed":840022,"internal_node_id":"0.0-208.0","subject":"S1C1615","sona":"37390","block":5,"time":"2021-09-16T15:29:37.679Z","response":"1st","certainty":"high","char":"A","transposition":-3,"order":["shifted","swapped"],"probe_pitches":[9,10,5,4,9,4,10,5,9,10,6,14,12,10,7,12],"shifted_pitches":[9,10,5,4,9,4,10,5,8,10,6,14,12,10,7,12],"swapped_pitches":[9,10,5,4,9,4,10,9,5,10,6,14,12,10,7,12],"shift_direction":-1,"question_num":181,"has_decoy":false},{"rt":1323.4000000059605,"stimulus":"[A] option 1, [L] option 2, [G] neither","key_press":76,"name":"choice","trial_type":"html-keyboard-response","trial_index":219,"time_elapsed":866882,"internal_node_id":"0.0-219.0","subject":"S1C1615","sona":"37390","block":5,"time":"2021-09-16T15:29:37.679Z","response":"2nd","certainty":"high","char":"L","transposition":-1,"order":["swapped","shifted"],"probe_pitches":[11,8,3,7,4,13,3,2,5,10,12,7,13,12,5,7],"shifted_pitches":[11,8,3,7,4,13,3,2,6,10,12,7,13,12,5,7],"swapped_pitches":[11,8,3,7,4,13,3,5,2,10,12,7,13,12,5,7],"shift_direction":1,"question_num":191,"has_decoy":false}]