[{"rt":592.4000000059605,"stimulus":"[A] option 1, [L] option 2, [G] neither","key_press":76,"name":"choice","trial_type":"html-keyboard-response","trial_index":10,"time_elapsed":26732,"internal_node_id":"0.0-10.0","subject":"S1C1619","sona":"41599","block":6,"time":"2021-09-16T19:12:53.864Z","response":"2nd","certainty":"high","char":"L","transposition":-1,"order":["swapped","shifted"],"probe_pitches":[4,6,10,7,8,2,0,2,8,6,4,6,12,9,12,8],"shifted_pitches":[4,6,10,7,8,2,0,3,8,6,4,6,12,9,12,8],"swapped_pitches":[4,6,10,7,8,2,0,8,2,6,4,6,12,9,12,8],"shift_direction":1,"question_num":1,"has_decoy":false},{"rt":1788.9000000059605,"stimulus":"[A] option 1, [L] option 2, [G] neither","key_press":76,"name":"choice","trial_type":"html-keyboard-response","trial_index":21,"time_elapsed":56078,"internal_node_id":"0.0-21.0","subject":"S1C1619","sona":"41599","block":6,"time":"2021-09-16T19:12:53.864Z","response":"2nd","certainty":"high","char":"L","transposition":3,"order":["swapped","shifted"],"probe_pitches":[9,4,2,0,2,4,-3,7,0,-3,2,7,9,-3,4,9],"shifted_pitches":[9,4,2,0,2,4,-3,7,-1,-3,2,7,9,-3,4,9],"swapped_pitches":[9,4,2,0,2,4,-3,0,7,-3,2,7,9,-3,4,9],"shift_direction":-1,"question_num":11,"has_decoy":false},{"rt":369.2000000178814,"stimulus":"[A] option 1, [L] option 2, [G] neither","key_press":65,"name":"choice","trial_type":"html-keyboard-response","trial_index":32,"time_elapsed":79506,"internal_node_id":"0.0-32.0","subject":"S1C1619","sona":"41599","block":6,"time":"2021-09-16T19:12:53.864Z","response":"1st","certainty":"high","char":"A","transposition":-2,"order":["shifted","swapped"],"probe_pitches":[8,7,9,2,8,0,8,4,6,7,2,7,11,6,11,6],"shifted_pitches":[8,7,9,2,8,0,8,5,6,7,2,7,11,6,11,6],"swapped_pitches":[8,7,9,2,8,0,8,6,4,7,2,7,11,6,11,6],"shift_direction":1,"question_num":21,"has_decoy":false},{"rt":497.5,"stimulus":"[A] option 1, [L] option 2, [G] neither","key_press":65,"name":"choice","trial_type":"html-keyboard-response","trial_index":43,"time_elapsed":104646,"internal_node_id":"0.0-43.0","subject":"S1C1619","sona":"41599","block":6,"time":"2021-09-16T19:12:53.864Z","response":"1st","certainty":"high","char":"A","transposition":0,"order":["swapped","shifted"],"probe_pitches":[11,5,12,11,2,11,5,0,11,7,0,5,2,11,5,1],"shifted_pitches":[11,5,12,11,2,11,5,0,10,7,0,5,2,11,5,1],"swapped_pitches":[11,5,12,11,2,11,5,11,0,7,0,5,2,11,5,1],"shift_direction":-1,"question_num":31,"has_decoy":false},{"rt":1046,"stimulus":"[A] option 1, [L] option 2, [G] neither","key_press":65,"name":"choice","trial_type":"html-keyboard-response","trial_index":54,"time_elapsed":129435,"internal_node_id":"0.0-54.0","subject":"S1C1619","sona":"41599","block":6,"time":"2021-09-16T19:12:53.864Z","response":"1st","certainty":"high","char":"A","transposition":3,"order":["swapped","shifted"],"probe_pitches":[12,9,11,4,9,4,3,1,7,11,10,3,11,5,2,4],"shifted_pitches":[12,9,11,4,9,4,3,1,6,11,10,3,11,5,2,4],"swapped_pitches":[12,9,11,4,9,4,3,7,1,11,10,3,11,5,2,4],"shift_direction":-1,"question_num":41,"has_decoy":false},{"rt":391.69999998807907,"stimulus":"[A] option 1, [L] option 2, [G] neither","key_press":76,"name":"choice","trial_type":"html-keyboard-response","trial_index":65,"time_elapsed":154300,"internal_node_id":"0.0-65.0","subject":"S1C1619","sona":"41599","block":6,"time":"2021-09-16T19:12:53.864Z","response":"2nd","certainty":"high","char":"L","transposition":-2,"order":["swapped","shifted"],"probe_pitches":[5,9,7,9,7,2,0,7,5,2,7,5,0,2,0,7],"shifted_pitches":[5,9,7,9,7,2,0,8,5,2,7,5,0,2,0,7],"swapped_pitches":[5,9,7,9,7,2,0,5,7,2,7,5,0,2,0,7],"shift_direction":1,"question_num":51,"has_decoy":false},{"rt":478.5,"stimulus":"[A] option 1, [L] option 2, [G] neither","key_press":76,"name":"choice","trial_type":"html-keyboard-response","trial_index":76,"time_elapsed":178733,"internal_node_id":"0.0-76.0","subject":"S1C1619","sona":"41599","block":6,"time":"2021-09-16T19:12:53.864Z","response":"2nd","certainty":"high","char":"L","transposition":2,"order":["shifted","swapped"],"probe_pitches":[-3,-1,2,9,4,9,6,-3,-1,6,2,4,6,-3,6,9],"shifted_pitches":[-3,-1,2,9,4,9,6,-3,-2,6,2,4,6,-3,6,9],"swapped_pitches":[-3,-1,2,9,4,9,6,-1,-3,6,2,4,6,-3,6,9],"shift_direction":-1,"question_num":61,"has_decoy":false},{"rt":523.2999999821186,"stimulus":"[A] option 1, [L] option 2, [G] neither","key_press":76,"name":"choice","trial_type":"html-keyboard-response","trial_index":87,"time_elapsed":204495,"internal_node_id":"0.0-87.0","subject":"S1C1619","sona":"41599","block":6,"time":"2021-09-16T19:12:53.864Z","response":"2nd","certainty":"high","char":"L","transposition":-2,"order":["swapped","shifted"],"probe_pitches":[2,1,2,5,8,3,8,3,0,7,0,11,8,7,6,9],"shifted_pitches":[2,1,2,5,8,3,8,4,0,7,0,11,8,7,6,9],"swapped_pitches":[2,1,2,5,8,3,8,0,3,7,0,11,8,7,6,9],"shift_direction":1,"question_num":71,"has_decoy":false},{"rt":779.0999999940395,"stimulus":"[A] option 1, [L] option 2, [G] neither","key_press":76,"name":"choice","trial_type":"html-keyboard-response","trial_index":98,"time_elapsed":230563,"internal_node_id":"0.0-98.0","subject":"S1C1619","sona":"41599","block":6,"time":"2021-09-16T19:12:53.864Z","response":"2nd","certainty":"high","char":"L","transposition":1,"order":["shifted","swapped"],"probe_pitches":[7,1,5,4,2,5,9,7,11,9,0,11,5,1,9,3],"shifted_pitches":[7,1,5,4,2,5,9,8,11,9,0,11,5,1,9,3],"swapped_pitches":[7,1,5,4,2,5,9,11,7,9,0,11,5,1,9,3],"shift_direction":1,"question_num":81,"has_decoy":false},{"rt":583.5,"stimulus":"[A] option 1, [L] option 2, [G] neither","key_press":65,"name":"choice","trial_type":"html-keyboard-response","trial_index":109,"time_elapsed":254699,"internal_node_id":"0.0-109.0","subject":"S1C1619","sona":"41599","block":6,"time":"2021-09-16T19:12:53.864Z","response":"1st","certainty":"high","char":"A","transposition":-1,"order":["swapped","shifted"],"probe_pitches":[12,9,8,5,6,11,6,3,0,8,11,4,6,7,0,1],"shifted_pitches":[12,9,8,5,6,11,6,2,0,8,11,4,6,7,0,1],"swapped_pitches":[12,9,8,5,6,11,6,0,3,8,11,4,6,7,0,1],"shift_direction":-1,"question_num":91,"has_decoy":false},{"rt":677.0999999940395,"stimulus":"[A] option 1, [L] option 2, [G] neither","key_press":65,"name":"choice","trial_type":"html-keyboard-response","trial_index":120,"time_elapsed":280221,"internal_node_id":"0.0-120.0","subject":"S1C1619","sona":"41599","block":6,"time":"2021-09-16T19:12:53.864Z","response":"1st","certainty":"high","char":"A","transposition":-1,"order":["shifted","swapped"],"probe_pitches":[2,0,4,7,9,0,-3,4,9,7,4,0,-3,7,2,9],"shifted_pitches":[2,0,4,7,9,0,-3,4,10,7,4,0,-3,7,2,9],"swapped_pitches":[2,0,4,7,9,0,-3,9,4,7,4,0,-3,7,2,9],"shift_direction":1,"question_num":101,"has_decoy":false},{"rt":1078.699999988079,"stimulus":"[A] option 1, [L] option 2, [G] neither","key_press":65,"name":"choice","trial_type":"html-keyboard-response","trial_index":131,"time_elapsed":305796,"internal_node_id":"0.0-131.0","subject":"S1C1619","sona":"41599","block":6,"time":"2021-09-16T19:12:53.864Z","response":"1st","certainty":"high","char":"A","transposition":1,"order":["shifted","swapped"],"probe_pitches":[-1,-3,-1,6,4,-3,-1,9,6,-1,-3,6,4,9,2,-1],"shifted_pitches":[-1,-3,-1,6,4,-3,-1,10,6,-1,-3,6,4,9,2,-1],"swapped_pitches":[-1,-3,-1,6,4,-3,-1,6,9,-1,-3,6,4,9,2,-1],"shift_direction":1,"question_num":111,"has_decoy":false},{"rt":1734.4000000059605,"stimulus":"[A] option 1, [L] option 2, [G] neither","key_press":65,"name":"choice","trial_type":"html-keyboard-response","trial_index":142,"time_elapsed":333614,"internal_node_id":"0.0-142.0","subject":"S1C1619","sona":"41599","block":6,"time":"2021-09-16T19:12:53.864Z","response":"1st","certainty":"high","char":"A","transposition":2,"order":["shifted","swapped"],"probe_pitches":[5,10,7,4,2,6,5,6,8,5,0,1,3,6,0,7],"shifted_pitches":[5,10,7,4,2,6,5,6,9,5,0,1,3,6,0,7],"swapped_pitches":[5,10,7,4,2,6,5,8,6,5,0,1,3,6,0,7],"shift_direction":1,"question_num":121,"has_decoy":false},{"rt":15828.300000011921,"stimulus":"[A] option 1, [L] option 2, [G] neither","key_press":65,"name":"choice","trial_type":"html-keyboard-response","trial_index":153,"time_elapsed":372209,"internal_node_id":"0.0-153.0","subject":"S1C1619","sona":"41599","block":6,"time":"2021-09-16T19:12:53.864Z","response":"1st","certainty":"high","char":"A","transposition":-3,"order":["shifted","swapped"],"probe_pitches":[8,12,5,12,4,12,4,5,12,6,3,12,0,4,7,10],"shifted_pitches":[8,12,5,12,4,12,4,5,11,6,3,12,0,4,7,10],"swapped_pitches":[8,12,5,12,4,12,4,12,5,6,3,12,0,4,7,10],"shift_direction":-1,"question_num":131,"has_decoy":false},{"rt":486.69999998807907,"stimulus":"[A] option 1, [L] option 2, [G] neither","key_press":65,"name":"choice","trial_type":"html-keyboard-response","trial_index":164,"time_elapsed":397086,"internal_node_id":"0.0-164.0","subject":"S1C1619","sona":"41599","block":6,"time":"2021-09-16T19:12:53.864Z","response":"1st","certainty":"high","char":"A","transposition":-1,"order":["shifted","swapped"],"probe_pitches":[-3,-1,-3,2,4,9,4,-3,2,9,-3,-1,4,7,2,4],"shifted_pitches":[-3,-1,-3,2,4,9,4,-4,2,9,-3,-1,4,7,2,4],"swapped_pitches":[-3,-1,-3,2,4,9,4,2,-3,9,-3,-1,4,7,2,4],"shift_direction":-1,"question_num":141,"has_decoy":false},{"rt":361.30000001192093,"stimulus":"[A] option 1, [L] option 2, [G] neither","key_press":65,"name":"choice","trial_type":"html-keyboard-response","trial_index":175,"time_elapsed":420379,"internal_node_id":"0.0-175.0","subject":"S1C1619","sona":"41599","block":6,"time":"2021-09-16T19:12:53.864Z","response":"1st","certainty":"high","char":"A","transposition":-3,"order":["shifted","swapped"],"probe_pitches":[1,-1,-3,4,-3,1,9,1,4,6,9,1,9,1,-3,1],"shifted_pitches":[1,-1,-3,4,-3,1,9,0,4,6,9,1,9,1,-3,1],"swapped_pitches":[1,-1,-3,4,-3,1,9,4,1,6,9,1,9,1,-3,1],"shift_direction":-1,"question_num":151,"has_decoy":false},{"rt":1003.1999999880791,"stimulus":"[A] option 1, [L] option 2, [G] neither","key_press":65,"name":"choice","trial_type":"html-keyboard-response","trial_index":186,"time_elapsed":445303,"internal_node_id":"0.0-186.0","subject":"S1C1619","sona":"41599","block":6,"time":"2021-09-16T19:12:53.864Z","response":"1st","certainty":"high","char":"A","transposition":-3,"order":["shifted","swapped"],"probe_pitches":[5,6,0,8,0,4,9,4,8,0,12,6,2,5,3,12],"shifted_pitches":[5,6,0,8,0,4,9,4,7,0,12,6,2,5,3,12],"swapped_pitches":[5,6,0,8,0,4,9,8,4,0,12,6,2,5,3,12],"shift_direction":-1,"question_num":161,"has_decoy":false},{"rt":1366.2999999821186,"stimulus":"[A] option 1, [L] option 2, [G] neither","key_press":76,"name":"choice","trial_type":"html-keyboard-response","trial_index":197,"time_elapsed":471836,"internal_node_id":"0.0-197.0","subject":"S1C1619","sona":"41599","block":6,"time":"2021-09-16T19:12:53.864Z","response":"2nd","certainty":"high","char":"L","transposition":0,"order":["swapped","shifted"],"probe_pitches":[4,9,6,9,6,9,1,-3,6,4,6,-1,9,6,1,9],"shifted_pitches":[4,9,6,9,6,9,1,-2,6,4,6,-1,9,6,1,9],"swapped_pitches":[4,9,6,9,6,9,1,6,-3,4,6,-1,9,6,1,9],"shift_direction":1,"question_num":171,"has_decoy":false},{"rt":1720.300000011921,"stimulus":"[A] option 1, [L] option 2, [G] neither","key_press":76,"name":"choice","trial_type":"html-keyboard-response","trial_index":208,"time_elapsed":496185,"internal_node_id":"0.0-208.0","subject":"S1C1619","sona":"41599","block":6,"time":"2021-09-16T19:12:53.864Z","response":"2nd","certainty":"high","char":"L","transposition":-2,"order":["swapped","shifted"],"probe_pitches":[0,5,0,-3,0,7,5,7,-3,5,9,-3,0,5,-3,2],"shifted_pitches":[0,5,0,-3,0,7,5,7,-4,5,9,-3,0,5,-3,2],"swapped_pitches":[0,5,0,-3,0,7,5,-3,7,5,9,-3,0,5,-3,2],"shift_direction":-1,"question_num":181,"has_decoy":false},{"rt":487.30000001192093,"stimulus":"[A] option 1, [L] option 2, [G] neither","key_press":76,"name":"choice","trial_type":"html-keyboard-response","trial_index":219,"time_elapsed":520125,"internal_node_id":"0.0-219.0","subject":"S1C1619","sona":"41599","block":6,"time":"2021-09-16T19:12:53.864Z","response":"2nd","certainty":"high","char":"L","transposition":-3,"order":["swapped","shifted"],"probe_pitches":[-1,4,-3,4,7,2,7,9,2,7,4,-1,-3,7,-3,7],"shifted_pitches":[-1,4,-3,4,7,2,7,9,3,7,4,-1,-3,7,-3,7],"swapped_pitches":[-1,4,-3,4,7,2,7,2,9,7,4,-1,-3,7,-3,7],"shift_direction":1,"question_num":191,"has_decoy":false}]