[{"rt":4936.899999976158,"stimulus":"[A] option 1, [L] option 2, [G] neither","key_press":76,"name":"choice","trial_type":"html-keyboard-response","trial_index":10,"time_elapsed":29056,"internal_node_id":"0.0-10.0","subject":"S1C1619","sona":"41599","block":4,"time":"2021-09-16T18:48:05.464Z","response":"2nd","certainty":"high","char":"L","transposition":-1,"order":["swapped","shifted"],"probe_pitches":[9,8,10,8,5,0,1,10,5,0,5,9,10,2,6,7],"shifted_pitches":[9,8,10,8,5,0,1,11,5,0,5,9,10,2,6,7],"swapped_pitches":[9,8,10,8,5,0,1,5,10,0,5,9,10,2,6,7],"shift_direction":1,"question_num":1,"has_decoy":false},{"rt":4109.800000011921,"stimulus":"[A] option 1, [L] option 2, [G] neither","key_press":76,"name":"choice","trial_type":"html-keyboard-response","trial_index":21,"time_elapsed":58053,"internal_node_id":"0.0-21.0","subject":"S1C1619","sona":"41599","block":4,"time":"2021-09-16T18:48:05.464Z","response":"2nd","certainty":"high","char":"L","transposition":2,"order":["shifted","swapped"],"probe_pitches":[9,10,5,6,11,2,9,5,3,12,11,12,11,6,8,1],"shifted_pitches":[9,10,5,6,11,2,9,5,4,12,11,12,11,6,8,1],"swapped_pitches":[9,10,5,6,11,2,9,3,5,12,11,12,11,6,8,1],"shift_direction":1,"question_num":11,"has_decoy":false},{"rt":3051.0999999940395,"stimulus":"[A] option 1, [L] option 2, [G] neither","key_press":76,"name":"choice","trial_type":"html-keyboard-response","trial_index":32,"time_elapsed":85661,"internal_node_id":"0.0-32.0","subject":"S1C1619","sona":"41599","block":4,"time":"2021-09-16T18:48:05.464Z","response":"2nd","certainty":"high","char":"L","transposition":1,"order":["shifted","swapped"],"probe_pitches":[5,7,12,10,2,5,2,12,10,14,7,10,5,2,10,7],"shifted_pitches":[5,7,12,10,2,5,2,13,10,14,7,10,5,2,10,7],"swapped_pitches":[5,7,12,10,2,5,2,10,12,14,7,10,5,2,10,7],"shift_direction":1,"question_num":21,"has_decoy":false},{"rt":398.90000000596046,"stimulus":"[A] option 1, [L] option 2, [G] neither","key_press":65,"name":"choice","trial_type":"html-keyboard-response","trial_index":43,"time_elapsed":110624,"internal_node_id":"0.0-43.0","subject":"S1C1619","sona":"41599","block":4,"time":"2021-09-16T18:48:05.464Z","response":"1st","certainty":"high","char":"A","transposition":-3,"order":["swapped","shifted"],"probe_pitches":[0,6,10,12,10,2,10,8,0,11,3,6,3,9,11,9],"shifted_pitches":[0,6,10,12,10,2,10,7,0,11,3,6,3,9,11,9],"swapped_pitches":[0,6,10,12,10,2,10,0,8,11,3,6,3,9,11,9],"shift_direction":-1,"question_num":31,"has_decoy":false},{"rt":2428.5999999940395,"stimulus":"[A] option 1, [L] option 2, [G] neither","key_press":65,"name":"choice","trial_type":"html-keyboard-response","trial_index":54,"time_elapsed":137683,"internal_node_id":"0.0-54.0","subject":"S1C1619","sona":"41599","block":4,"time":"2021-09-16T18:48:05.464Z","response":"1st","certainty":"high","char":"A","transposition":-1,"order":["shifted","swapped"],"probe_pitches":[6,9,11,4,2,4,14,11,9,6,9,14,11,14,11,2],"shifted_pitches":[6,9,11,4,2,4,14,11,8,6,9,14,11,14,11,2],"swapped_pitches":[6,9,11,4,2,4,14,9,11,6,9,14,11,14,11,2],"shift_direction":-1,"question_num":41,"has_decoy":false},{"rt":1301.4000000059605,"stimulus":"[A] option 1, [L] option 2, [G] neither","key_press":76,"name":"choice","trial_type":"html-keyboard-response","trial_index":65,"time_elapsed":162016,"internal_node_id":"0.0-65.0","subject":"S1C1619","sona":"41599","block":4,"time":"2021-09-16T18:48:05.464Z","response":"2nd","certainty":"high","char":"L","transposition":-2,"order":["swapped","shifted"],"probe_pitches":[10,5,12,5,7,10,14,5,2,12,2,5,12,7,12,10],"shifted_pitches":[10,5,12,5,7,10,14,6,2,12,2,5,12,7,12,10],"swapped_pitches":[10,5,12,5,7,10,14,2,5,12,2,5,12,7,12,10],"shift_direction":1,"question_num":51,"has_decoy":false},{"rt":1634.7000000178814,"stimulus":"[A] option 1, [L] option 2, [G] neither","key_press":76,"name":"choice","trial_type":"html-keyboard-response","trial_index":76,"time_elapsed":186536,"internal_node_id":"0.0-76.0","subject":"S1C1619","sona":"41599","block":4,"time":"2021-09-16T18:48:05.464Z","response":"2nd","certainty":"high","char":"L","transposition":2,"order":["shifted","swapped"],"probe_pitches":[4,9,11,14,11,6,11,14,6,9,6,2,6,2,4,11],"shifted_pitches":[4,9,11,14,11,6,11,14,5,9,6,2,6,2,4,11],"swapped_pitches":[4,9,11,14,11,6,11,6,14,9,6,2,6,2,4,11],"shift_direction":-1,"question_num":61,"has_decoy":false},{"rt":4254,"stimulus":"[A] option 1, [L] option 2, [G] neither","key_press":65,"name":"choice","trial_type":"html-keyboard-response","trial_index":87,"time_elapsed":213417,"internal_node_id":"0.0-87.0","subject":"S1C1619","sona":"41599","block":4,"time":"2021-09-16T18:48:05.464Z","response":"1st","certainty":"high","char":"A","transposition":-3,"order":["shifted","swapped"],"probe_pitches":[9,12,14,9,7,9,12,7,14,5,2,9,12,14,12,14],"shifted_pitches":[9,12,14,9,7,9,12,8,14,5,2,9,12,14,12,14],"swapped_pitches":[9,12,14,9,7,9,12,14,7,5,2,9,12,14,12,14],"shift_direction":1,"question_num":71,"has_decoy":false},{"rt":3636.2000000178814,"stimulus":"[A] option 1, [L] option 2, [G] neither","key_press":76,"name":"choice","trial_type":"html-keyboard-response","trial_index":98,"time_elapsed":241470,"internal_node_id":"0.0-98.0","subject":"S1C1619","sona":"41599","block":4,"time":"2021-09-16T18:48:05.464Z","response":"2nd","certainty":"high","char":"L","transposition":-2,"order":["swapped","shifted"],"probe_pitches":[4,2,4,2,9,12,9,14,2,4,9,12,7,9,2,7],"shifted_pitches":[4,2,4,2,9,12,9,14,1,4,9,12,7,9,2,7],"swapped_pitches":[4,2,4,2,9,12,9,2,14,4,9,12,7,9,2,7],"shift_direction":-1,"question_num":81,"has_decoy":false},{"rt":1945.4000000059605,"stimulus":"[A] option 1, [L] option 2, [G] neither","key_press":65,"name":"choice","trial_type":"html-keyboard-response","trial_index":109,"time_elapsed":267768,"internal_node_id":"0.0-109.0","subject":"S1C1619","sona":"41599","block":4,"time":"2021-09-16T18:48:05.464Z","response":"1st","certainty":"high","char":"A","transposition":-3,"order":["shifted","swapped"],"probe_pitches":[12,10,9,6,7,3,1,3,9,2,11,2,9,4,7,4],"shifted_pitches":[12,10,9,6,7,3,1,3,8,2,11,2,9,4,7,4],"swapped_pitches":[12,10,9,6,7,3,1,9,3,2,11,2,9,4,7,4],"shift_direction":-1,"question_num":91,"has_decoy":false},{"rt":2823.800000011921,"stimulus":"[A] option 1, [L] option 2, [G] neither","key_press":65,"name":"choice","trial_type":"html-keyboard-response","trial_index":120,"time_elapsed":292993,"internal_node_id":"0.0-120.0","subject":"S1C1619","sona":"41599","block":4,"time":"2021-09-16T18:48:05.464Z","response":"1st","certainty":"high","char":"A","transposition":-2,"order":["swapped","shifted"],"probe_pitches":[5,9,12,6,11,10,11,1,9,11,6,5,3,6,0,1],"shifted_pitches":[5,9,12,6,11,10,11,2,9,11,6,5,3,6,0,1],"swapped_pitches":[5,9,12,6,11,10,11,9,1,11,6,5,3,6,0,1],"shift_direction":1,"question_num":101,"has_decoy":false},{"rt":690.5,"stimulus":"[A] option 1, [L] option 2, [G] neither","key_press":65,"name":"choice","trial_type":"html-keyboard-response","trial_index":131,"time_elapsed":315729,"internal_node_id":"0.0-131.0","subject":"S1C1619","sona":"41599","block":4,"time":"2021-09-16T18:48:05.464Z","response":"1st","certainty":"high","char":"A","transposition":3,"order":["swapped","shifted"],"probe_pitches":[14,12,7,12,5,9,2,5,14,12,2,5,12,7,12,7],"shifted_pitches":[14,12,7,12,5,9,2,5,13,12,2,5,12,7,12,7],"swapped_pitches":[14,12,7,12,5,9,2,14,5,12,2,5,12,7,12,7],"shift_direction":-1,"question_num":111,"has_decoy":false},{"rt":618.7000000178814,"stimulus":"[A] option 1, [L] option 2, [G] neither","key_press":65,"name":"choice","trial_type":"html-keyboard-response","trial_index":142,"time_elapsed":342085,"internal_node_id":"0.0-142.0","subject":"S1C1619","sona":"41599","block":4,"time":"2021-09-16T18:48:05.464Z","response":"1st","certainty":"high","char":"A","transposition":1,"order":["shifted","swapped"],"probe_pitches":[9,4,7,4,1,10,5,7,2,3,0,1,7,8,2,4],"shifted_pitches":[9,4,7,4,1,10,5,6,2,3,0,1,7,8,2,4],"swapped_pitches":[9,4,7,4,1,10,5,2,7,3,0,1,7,8,2,4],"shift_direction":-1,"question_num":121,"has_decoy":false},{"rt":1562.300000011921,"stimulus":"[A] option 1, [L] option 2, [G] neither","key_press":65,"name":"choice","trial_type":"html-keyboard-response","trial_index":153,"time_elapsed":387713,"internal_node_id":"0.0-153.0","subject":"S1C1619","sona":"41599","block":4,"time":"2021-09-16T18:48:05.464Z","response":"1st","certainty":"high","char":"A","transposition":-1,"order":["shifted","swapped"],"probe_pitches":[2,7,8,10,8,4,1,5,8,4,12,2,3,8,4,0],"shifted_pitches":[2,7,8,10,8,4,1,5,9,4,12,2,3,8,4,0],"swapped_pitches":[2,7,8,10,8,4,1,8,5,4,12,2,3,8,4,0],"shift_direction":1,"question_num":131,"has_decoy":false},{"rt":1451.9000000059605,"stimulus":"[A] option 1, [L] option 2, [G] neither","key_press":76,"name":"choice","trial_type":"html-keyboard-response","trial_index":164,"time_elapsed":414935,"internal_node_id":"0.0-164.0","subject":"S1C1619","sona":"41599","block":4,"time":"2021-09-16T18:48:05.464Z","response":"2nd","certainty":"high","char":"L","transposition":-3,"order":["swapped","shifted"],"probe_pitches":[14,11,4,2,11,2,7,11,9,4,11,14,7,2,4,11],"shifted_pitches":[14,11,4,2,11,2,7,12,9,4,11,14,7,2,4,11],"swapped_pitches":[14,11,4,2,11,2,7,9,11,4,11,14,7,2,4,11],"shift_direction":1,"question_num":141,"has_decoy":false},{"rt":2658.199999988079,"stimulus":"[A] option 1, [L] option 2, [G] neither","key_press":76,"name":"choice","trial_type":"html-keyboard-response","trial_index":175,"time_elapsed":442312,"internal_node_id":"0.0-175.0","subject":"S1C1619","sona":"41599","block":4,"time":"2021-09-16T18:48:05.464Z","response":"2nd","certainty":"high","char":"L","transposition":-1,"order":["swapped","shifted"],"probe_pitches":[2,7,2,7,11,14,9,14,2,4,7,11,14,9,4,14],"shifted_pitches":[2,7,2,7,11,14,9,15,2,4,7,11,14,9,4,14],"swapped_pitches":[2,7,2,7,11,14,9,2,14,4,7,11,14,9,4,14],"shift_direction":1,"question_num":151,"has_decoy":false},{"rt":3575.0999999940395,"stimulus":"[A] option 1, [L] option 2, [G] neither","key_press":76,"name":"choice","trial_type":"html-keyboard-response","trial_index":186,"time_elapsed":469037,"internal_node_id":"0.0-186.0","subject":"S1C1619","sona":"41599","block":4,"time":"2021-09-16T18:48:05.464Z","response":"2nd","certainty":"high","char":"L","transposition":-2,"order":["swapped","shifted"],"probe_pitches":[9,8,7,0,2,0,1,8,6,10,7,10,8,9,2,12],"shifted_pitches":[9,8,7,0,2,0,1,8,5,10,7,10,8,9,2,12],"swapped_pitches":[9,8,7,0,2,0,1,6,8,10,7,10,8,9,2,12],"shift_direction":-1,"question_num":161,"has_decoy":false},{"rt":3022.300000011921,"stimulus":"[A] option 1, [L] option 2, [G] neither","key_press":76,"name":"choice","trial_type":"html-keyboard-response","trial_index":197,"time_elapsed":495081,"internal_node_id":"0.0-197.0","subject":"S1C1619","sona":"41599","block":4,"time":"2021-09-16T18:48:05.464Z","response":"2nd","certainty":"high","char":"L","transposition":3,"order":["shifted","swapped"],"probe_pitches":[2,1,4,12,4,8,9,2,7,12,8,2,0,4,2,1],"shifted_pitches":[2,1,4,12,4,8,9,3,7,12,8,2,0,4,2,1],"swapped_pitches":[2,1,4,12,4,8,9,7,2,12,8,2,0,4,2,1],"shift_direction":1,"question_num":171,"has_decoy":false},{"rt":11157.40000000596,"stimulus":"[A] option 1, [L] option 2, [G] neither","key_press":76,"name":"choice","trial_type":"html-keyboard-response","trial_index":208,"time_elapsed":543529,"internal_node_id":"0.0-208.0","subject":"S1C1619","sona":"41599","block":4,"time":"2021-09-16T18:48:05.464Z","response":"2nd","certainty":"high","char":"L","transposition":0,"order":["swapped","shifted"],"probe_pitches":[7,5,3,9,12,9,1,0,11,4,1,6,0,5,6,0],"shifted_pitches":[7,5,3,9,12,9,1,0,10,4,1,6,0,5,6,0],"swapped_pitches":[7,5,3,9,12,9,1,11,0,4,1,6,0,5,6,0],"shift_direction":-1,"question_num":181,"has_decoy":false},{"rt":7250.4000000059605,"stimulus":"[A] option 1, [L] option 2, [G] neither","key_press":76,"name":"choice","trial_type":"html-keyboard-response","trial_index":219,"time_elapsed":573730,"internal_node_id":"0.0-219.0","subject":"S1C1619","sona":"41599","block":4,"time":"2021-09-16T18:48:05.464Z","response":"2nd","certainty":"high","char":"L","transposition":0,"order":["shifted","swapped"],"probe_pitches":[4,7,9,7,9,4,7,12,14,4,14,12,2,14,12,9],"shifted_pitches":[4,7,9,7,9,4,7,12,13,4,14,12,2,14,12,9],"swapped_pitches":[4,7,9,7,9,4,7,14,12,4,14,12,2,14,12,9],"shift_direction":-1,"question_num":191,"has_decoy":false}]