[{"rt":9233.800000011921,"stimulus":"[A] option 1, [L] option 2, [G] neither","key_press":76,"name":"choice","trial_type":"html-keyboard-response","trial_index":15,"time_elapsed":236039,"internal_node_id":"0.0-15.0","response":"2nd","certainty":"high","char":"L","transposition":1,"order":["swapped","shifted"],"probe_pitches":[2,4,0,-1,8,-1,7,5,11,10,1,4,10,9,7,2],"shifted_pitches":[2,4,0,-1,8,-1,7,6,11,10,1,4,10,9,7,2],"swapped_pitches":[2,4,0,-1,8,-1,7,11,5,10,1,4,10,9,7,2],"shift_direction":1,"question_num":1,"has_decoy":false,"subject":"S1C1619","sona":"41599","block":1,"time":"2021-09-16T18:16:56.463Z"},{"rt":1544.300000011921,"stimulus":"[A] option 1, [L] option 2, [G] neither","key_press":65,"name":"choice","trial_type":"html-keyboard-response","trial_index":26,"time_elapsed":268322,"internal_node_id":"0.0-26.0","response":"1st","certainty":"high","char":"A","transposition":-1,"order":["shifted","swapped"],"probe_pitches":[-3,2,-1,7,2,4,7,4,-1,2,-1,4,7,9,4,7],"shifted_pitches":[-3,2,-1,7,2,4,7,5,-1,2,-1,4,7,9,4,7],"swapped_pitches":[-3,2,-1,7,2,4,7,-1,4,2,-1,4,7,9,4,7],"shift_direction":1,"question_num":11,"has_decoy":false,"subject":"S1C1619","sona":"41599","block":1,"time":"2021-09-16T18:16:56.463Z"},{"rt":9343.90000000596,"stimulus":"[A] option 1, [L] option 2, [G] neither","key_press":76,"name":"choice","trial_type":"html-keyboard-response","trial_index":37,"time_elapsed":316287,"internal_node_id":"0.0-37.0","response":"2nd","certainty":"high","char":"L","transposition":0,"order":["shifted","swapped"],"probe_pitches":[0,2,5,7,6,8,2,3,11,1,4,1,3,7,5,3],"shifted_pitches":[0,2,5,7,6,8,2,3,10,1,4,1,3,7,5,3],"swapped_pitches":[0,2,5,7,6,8,2,11,3,1,4,1,3,7,5,3],"shift_direction":-1,"question_num":21,"has_decoy":false,"subject":"S1C1619","sona":"41599","block":1,"time":"2021-09-16T18:16:56.463Z"},{"rt":1100,"stimulus":"[A] option 1, [L] option 2, [G] neither","key_press":76,"name":"choice","trial_type":"html-keyboard-response","trial_index":48,"time_elapsed":341877,"internal_node_id":"0.0-48.0","response":"2nd","certainty":"high","char":"L","transposition":1,"order":["shifted","swapped"],"probe_pitches":[0,-3,4,-3,2,-3,4,9,7,2,-3,4,0,9,7,4],"shifted_pitches":[0,-3,4,-3,2,-3,4,9,8,2,-3,4,0,9,7,4],"swapped_pitches":[0,-3,4,-3,2,-3,4,7,9,2,-3,4,0,9,7,4],"shift_direction":1,"question_num":31,"has_decoy":false,"subject":"S1C1619","sona":"41599","block":1,"time":"2021-09-16T18:16:56.463Z"},{"rt":4441.800000011921,"stimulus":"[A] option 1, [L] option 2, [G] neither","key_press":71,"name":"choice","trial_type":"html-keyboard-response","trial_index":59,"time_elapsed":378301,"internal_node_id":"0.0-59.0","response":"neither","certainty":"high","char":"G","transposition":-2,"order":["swapped","shifted"],"probe_pitches":[5,7,9,7,2,7,9,5,2,9,7,9,2,5,9,0],"shifted_pitches":[5,7,9,7,2,7,9,5,1,9,7,9,2,5,9,0],"swapped_pitches":[5,7,9,7,2,7,9,2,5,9,7,9,2,5,9,0],"shift_direction":-1,"question_num":41,"has_decoy":false,"subject":"S1C1619","sona":"41599","block":1,"time":"2021-09-16T18:16:56.463Z"},{"rt":1224.4000000059605,"stimulus":"[A] option 1, [L] option 2, [G] neither","key_press":65,"name":"choice","trial_type":"html-keyboard-response","trial_index":70,"time_elapsed":403597,"internal_node_id":"0.0-70.0","response":"1st","certainty":"high","char":"A","transposition":2,"order":["shifted","swapped"],"probe_pitches":[0,3,4,1,-1,3,10,2,4,9,2,11,10,1,6,8],"shifted_pitches":[0,3,4,1,-1,3,10,2,5,9,2,11,10,1,6,8],"swapped_pitches":[0,3,4,1,-1,3,10,4,2,9,2,11,10,1,6,8],"shift_direction":1,"question_num":51,"has_decoy":false,"subject":"S1C1619","sona":"41599","block":1,"time":"2021-09-16T18:16:56.463Z"},{"rt":947.5,"stimulus":"[A] option 1, [L] option 2, [G] neither","key_press":76,"name":"choice","trial_type":"html-keyboard-response","trial_index":81,"time_elapsed":427505,"internal_node_id":"0.0-81.0","response":"2nd","certainty":"high","char":"L","transposition":-1,"order":["swapped","shifted"],"probe_pitches":[0,6,0,6,2,0,9,4,6,-1,6,2,7,9,-1,9],"shifted_pitches":[0,6,0,6,2,0,9,3,6,-1,6,2,7,9,-1,9],"swapped_pitches":[0,6,0,6,2,0,9,6,4,-1,6,2,7,9,-1,9],"shift_direction":-1,"question_num":61,"has_decoy":false,"subject":"S1C1619","sona":"41599","block":1,"time":"2021-09-16T18:16:56.463Z"},{"rt":5212.300000011921,"stimulus":"[A] option 1, [L] option 2, [G] neither","key_press":76,"name":"choice","trial_type":"html-keyboard-response","trial_index":92,"time_elapsed":460655,"internal_node_id":"0.0-92.0","response":"2nd","certainty":"high","char":"L","transposition":-3,"order":["swapped","shifted"],"probe_pitches":[4,9,4,6,9,6,9,6,2,-3,-1,-3,9,2,-3,9],"shifted_pitches":[4,9,4,6,9,6,9,5,2,-3,-1,-3,9,2,-3,9],"swapped_pitches":[4,9,4,6,9,6,9,2,6,-3,-1,-3,9,2,-3,9],"shift_direction":-1,"question_num":71,"has_decoy":false,"subject":"S1C1619","sona":"41599","block":1,"time":"2021-09-16T18:16:56.463Z"},{"rt":622.7000000178814,"stimulus":"[A] option 1, [L] option 2, [G] neither","key_press":76,"name":"choice","trial_type":"html-keyboard-response","trial_index":103,"time_elapsed":486592,"internal_node_id":"0.0-103.0","response":"2nd","certainty":"high","char":"L","transposition":3,"order":["swapped","shifted"],"probe_pitches":[-1,2,9,6,9,2,6,-3,-1,2,-1,4,6,-1,-3,-1],"shifted_pitches":[-1,2,9,6,9,2,6,-4,-1,2,-1,4,6,-1,-3,-1],"swapped_pitches":[-1,2,9,6,9,2,6,-1,-3,2,-1,4,6,-1,-3,-1],"shift_direction":-1,"question_num":81,"has_decoy":false,"subject":"S1C1619","sona":"41599","block":1,"time":"2021-09-16T18:16:56.463Z"},{"rt":2541.2000000178814,"stimulus":"[A] option 1, [L] option 2, [G] neither","key_press":76,"name":"choice","trial_type":"html-keyboard-response","trial_index":114,"time_elapsed":512575,"internal_node_id":"0.0-114.0","response":"2nd","certainty":"high","char":"L","transposition":-2,"order":["swapped","shifted"],"probe_pitches":[10,8,7,0,3,2,-1,2,5,3,6,8,3,10,9,11],"shifted_pitches":[10,8,7,0,3,2,-1,2,4,3,6,8,3,10,9,11],"swapped_pitches":[10,8,7,0,3,2,-1,5,2,3,6,8,3,10,9,11],"shift_direction":-1,"question_num":91,"has_decoy":false,"subject":"S1C1619","sona":"41599","block":1,"time":"2021-09-16T18:16:56.463Z"},{"rt":1437.9000000059605,"stimulus":"[A] option 1, [L] option 2, [G] neither","key_press":65,"name":"choice","trial_type":"html-keyboard-response","trial_index":125,"time_elapsed":539376,"internal_node_id":"0.0-125.0","response":"1st","certainty":"high","char":"A","transposition":-2,"order":["shifted","swapped"],"probe_pitches":[7,9,7,5,0,5,7,5,2,9,-3,0,9,-3,2,5],"shifted_pitches":[7,9,7,5,0,5,7,6,2,9,-3,0,9,-3,2,5],"swapped_pitches":[7,9,7,5,0,5,7,2,5,9,-3,0,9,-3,2,5],"shift_direction":1,"question_num":101,"has_decoy":false,"subject":"S1C1619","sona":"41599","block":1,"time":"2021-09-16T18:16:56.463Z"},{"rt":13647.399999976158,"stimulus":"[A] option 1, [L] option 2, [G] neither","key_press":76,"name":"choice","trial_type":"html-keyboard-response","trial_index":136,"time_elapsed":576523,"internal_node_id":"0.0-136.0","response":"2nd","certainty":"high","char":"L","transposition":3,"order":["shifted","swapped"],"probe_pitches":[4,10,5,2,0,2,8,2,10,3,2,10,0,7,3,5],"shifted_pitches":[4,10,5,2,0,2,8,1,10,3,2,10,0,7,3,5],"swapped_pitches":[4,10,5,2,0,2,8,10,2,3,2,10,0,7,3,5],"shift_direction":-1,"question_num":111,"has_decoy":false,"subject":"S1C1619","sona":"41599","block":1,"time":"2021-09-16T18:16:56.463Z"},{"rt":12302.40000000596,"stimulus":"[A] option 1, [L] option 2, [G] neither","key_press":65,"name":"choice","trial_type":"html-keyboard-response","trial_index":147,"time_elapsed":612305,"internal_node_id":"0.0-147.0","response":"1st","certainty":"high","char":"A","transposition":-3,"order":["swapped","shifted"],"probe_pitches":[4,6,4,11,7,1,11,6,7,1,2,7,2,11,7,3],"shifted_pitches":[4,6,4,11,7,1,11,6,8,1,2,7,2,11,7,3],"swapped_pitches":[4,6,4,11,7,1,11,7,6,1,2,7,2,11,7,3],"shift_direction":1,"question_num":121,"has_decoy":false,"subject":"S1C1619","sona":"41599","block":1,"time":"2021-09-16T18:16:56.463Z"},{"rt":440.2000000178814,"stimulus":"[A] option 1, [L] option 2, [G] neither","key_press":76,"name":"choice","trial_type":"html-keyboard-response","trial_index":158,"time_elapsed":635825,"internal_node_id":"0.0-158.0","response":"2nd","certainty":"high","char":"L","transposition":-1,"order":["shifted","swapped"],"probe_pitches":[0,1,5,7,10,0,11,4,8,2,0,1,7,8,5,7],"shifted_pitches":[0,1,5,7,10,0,11,4,9,2,0,1,7,8,5,7],"swapped_pitches":[0,1,5,7,10,0,11,8,4,2,0,1,7,8,5,7],"shift_direction":1,"question_num":131,"has_decoy":false,"subject":"S1C1619","sona":"41599","block":1,"time":"2021-09-16T18:16:56.463Z"},{"rt":2159.7000000178814,"stimulus":"[A] option 1, [L] option 2, [G] neither","key_press":76,"name":"choice","trial_type":"html-keyboard-response","trial_index":169,"time_elapsed":662043,"internal_node_id":"0.0-169.0","response":"2nd","certainty":"high","char":"L","transposition":-1,"order":["swapped","shifted"],"probe_pitches":[-1,-3,1,-3,4,6,-3,4,9,-1,6,4,6,-3,6,-1],"shifted_pitches":[-1,-3,1,-3,4,6,-3,4,8,-1,6,4,6,-3,6,-1],"swapped_pitches":[-1,-3,1,-3,4,6,-3,9,4,-1,6,4,6,-3,6,-1],"shift_direction":-1,"question_num":141,"has_decoy":false,"subject":"S1C1619","sona":"41599","block":1,"time":"2021-09-16T18:16:56.463Z"},{"rt":1209.300000011921,"stimulus":"[A] option 1, [L] option 2, [G] neither","key_press":65,"name":"choice","trial_type":"html-keyboard-response","trial_index":180,"time_elapsed":686393,"internal_node_id":"0.0-180.0","response":"1st","certainty":"high","char":"A","transposition":-3,"order":["swapped","shifted"],"probe_pitches":[9,7,5,-1,8,-1,6,3,5,-1,6,7,0,9,4,9],"shifted_pitches":[9,7,5,-1,8,-1,6,2,5,-1,6,7,0,9,4,9],"swapped_pitches":[9,7,5,-1,8,-1,6,5,3,-1,6,7,0,9,4,9],"shift_direction":-1,"question_num":151,"has_decoy":false,"subject":"S1C1619","sona":"41599","block":1,"time":"2021-09-16T18:16:56.463Z"},{"rt":408,"stimulus":"[A] option 1, [L] option 2, [G] neither","key_press":76,"name":"choice","trial_type":"html-keyboard-response","trial_index":191,"time_elapsed":709767,"internal_node_id":"0.0-191.0","response":"2nd","certainty":"high","char":"L","transposition":0,"order":["shifted","swapped"],"probe_pitches":[7,2,-1,2,-1,7,-3,4,-1,9,7,-1,4,7,2,7],"shifted_pitches":[7,2,-1,2,-1,7,-3,4,-2,9,7,-1,4,7,2,7],"swapped_pitches":[7,2,-1,2,-1,7,-3,-1,4,9,7,-1,4,7,2,7],"shift_direction":-1,"question_num":161,"has_decoy":false,"subject":"S1C1619","sona":"41599","block":1,"time":"2021-09-16T18:16:56.463Z"},{"rt":1356.3999999761581,"stimulus":"[A] option 1, [L] option 2, [G] neither","key_press":76,"name":"choice","trial_type":"html-keyboard-response","trial_index":202,"time_elapsed":733810,"internal_node_id":"0.0-202.0","response":"2nd","certainty":"high","char":"L","transposition":-2,"order":["shifted","swapped"],"probe_pitches":[8,5,1,-1,5,4,2,6,11,10,6,8,-1,1,5,3],"shifted_pitches":[8,5,1,-1,5,4,2,7,11,10,6,8,-1,1,5,3],"swapped_pitches":[8,5,1,-1,5,4,2,11,6,10,6,8,-1,1,5,3],"shift_direction":1,"question_num":171,"has_decoy":false,"subject":"S1C1619","sona":"41599","block":1,"time":"2021-09-16T18:16:56.463Z"},{"rt":1014.0999999940395,"stimulus":"[A] option 1, [L] option 2, [G] neither","key_press":76,"name":"choice","trial_type":"html-keyboard-response","trial_index":213,"time_elapsed":758241,"internal_node_id":"0.0-213.0","response":"2nd","certainty":"high","char":"L","transposition":2,"order":["swapped","shifted"],"probe_pitches":[4,6,1,-3,-1,4,9,6,4,1,-1,9,1,9,4,-3],"shifted_pitches":[4,6,1,-3,-1,4,9,6,5,1,-1,9,1,9,4,-3],"swapped_pitches":[4,6,1,-3,-1,4,9,4,6,1,-1,9,1,9,4,-3],"shift_direction":1,"question_num":181,"has_decoy":false,"subject":"S1C1619","sona":"41599","block":1,"time":"2021-09-16T18:16:56.463Z"},{"rt":2273.0999999940395,"stimulus":"[A] option 1, [L] option 2, [G] neither","key_press":76,"name":"choice","trial_type":"html-keyboard-response","trial_index":224,"time_elapsed":784811,"internal_node_id":"0.0-224.0","response":"2nd","certainty":"high","char":"L","transposition":-3,"order":["shifted","swapped"],"probe_pitches":[2,0,-3,2,0,7,-3,2,9,7,4,7,0,-3,0,4],"shifted_pitches":[2,0,-3,2,0,7,-3,3,9,7,4,7,0,-3,0,4],"swapped_pitches":[2,0,-3,2,0,7,-3,9,2,7,4,7,0,-3,0,4],"shift_direction":1,"question_num":191,"has_decoy":false,"subject":"S1C1619","sona":"41599","block":1,"time":"2021-09-16T18:16:56.463Z"}]