[{"rt":672.0999999940395,"stimulus":"[A] option 1, [L] option 2, [G] neither","key_press":76,"name":"choice","trial_type":"html-keyboard-response","trial_index":10,"time_elapsed":33590,"internal_node_id":"0.0-10.0","subject":"S1C1619","sona":"41599","block":2,"time":"2021-09-16T18:27:57.942Z","response":"2nd","certainty":"high","char":"L","transposition":3,"order":["swapped","shifted"],"probe_pitches":[0,2,0,2,10,7,5,0,10,5,10,2,5,2,0,2],"shifted_pitches":[0,2,0,2,10,7,5,0,11,5,10,2,5,2,0,2],"swapped_pitches":[0,2,0,2,10,7,5,10,0,5,10,2,5,2,0,2],"shift_direction":1,"question_num":1,"has_decoy":false},{"rt":634.0999999940395,"stimulus":"[A] option 1, [L] option 2, [G] neither","key_press":65,"name":"choice","trial_type":"html-keyboard-response","trial_index":21,"time_elapsed":92459,"internal_node_id":"0.0-21.0","subject":"S1C1619","sona":"41599","block":2,"time":"2021-09-16T18:27:57.942Z","response":"1st","certainty":"high","char":"A","transposition":1,"order":["swapped","shifted"],"probe_pitches":[6,7,8,14,5,11,5,8,11,2,3,13,8,7,11,4],"shifted_pitches":[6,7,8,14,5,11,5,8,12,2,3,13,8,7,11,4],"swapped_pitches":[6,7,8,14,5,11,5,11,8,2,3,13,8,7,11,4],"shift_direction":1,"question_num":11,"has_decoy":false},{"rt":2423.0999999940395,"stimulus":"[A] option 1, [L] option 2, [G] neither","key_press":76,"name":"choice","trial_type":"html-keyboard-response","trial_index":32,"time_elapsed":117763,"internal_node_id":"0.0-32.0","subject":"S1C1619","sona":"41599","block":2,"time":"2021-09-16T18:27:57.942Z","response":"2nd","certainty":"high","char":"L","transposition":1,"order":["swapped","shifted"],"probe_pitches":[8,3,10,8,3,10,5,12,10,5,3,8,5,3,12,0],"shifted_pitches":[8,3,10,8,3,10,5,12,9,5,3,8,5,3,12,0],"swapped_pitches":[8,3,10,8,3,10,5,10,12,5,3,8,5,3,12,0],"shift_direction":-1,"question_num":21,"has_decoy":false},{"rt":2894.0999999940395,"stimulus":"[A] option 1, [L] option 2, [G] neither","key_press":76,"name":"choice","trial_type":"html-keyboard-response","trial_index":43,"time_elapsed":147956,"internal_node_id":"0.0-43.0","subject":"S1C1619","sona":"41599","block":2,"time":"2021-09-16T18:27:57.942Z","response":"2nd","certainty":"high","char":"L","transposition":-2,"order":["swapped","shifted"],"probe_pitches":[4,8,14,12,4,14,12,5,10,12,14,4,9,10,2,13],"shifted_pitches":[4,8,14,12,4,14,12,5,11,12,14,4,9,10,2,13],"swapped_pitches":[4,8,14,12,4,14,12,10,5,12,14,4,9,10,2,13],"shift_direction":1,"question_num":31,"has_decoy":false},{"rt":3384.699999988079,"stimulus":"[A] option 1, [L] option 2, [G] neither","key_press":76,"name":"choice","trial_type":"html-keyboard-response","trial_index":54,"time_elapsed":175262,"internal_node_id":"0.0-54.0","subject":"S1C1619","sona":"41599","block":2,"time":"2021-09-16T18:27:57.942Z","response":"2nd","certainty":"high","char":"L","transposition":2,"order":["shifted","swapped"],"probe_pitches":[9,7,9,7,9,7,12,7,3,8,3,8,2,7,10,9],"shifted_pitches":[9,7,9,7,9,7,12,6,3,8,3,8,2,7,10,9],"swapped_pitches":[9,7,9,7,9,7,12,3,7,8,3,8,2,7,10,9],"shift_direction":-1,"question_num":41,"has_decoy":false},{"rt":1303.2999999821186,"stimulus":"[A] option 1, [L] option 2, [G] neither","key_press":65,"name":"choice","trial_type":"html-keyboard-response","trial_index":65,"time_elapsed":199849,"internal_node_id":"0.0-65.0","subject":"S1C1619","sona":"41599","block":2,"time":"2021-09-16T18:27:57.942Z","response":"1st","certainty":"high","char":"A","transposition":-3,"order":["swapped","shifted"],"probe_pitches":[9,4,8,7,6,12,4,11,6,8,12,5,8,9,5,13],"shifted_pitches":[9,4,8,7,6,12,4,10,6,8,12,5,8,9,5,13],"swapped_pitches":[9,4,8,7,6,12,4,6,11,8,12,5,8,9,5,13],"shift_direction":-1,"question_num":51,"has_decoy":false},{"rt":3747.2999999821186,"stimulus":"[A] option 1, [L] option 2, [G] neither","key_press":76,"name":"choice","trial_type":"html-keyboard-response","trial_index":76,"time_elapsed":226366,"internal_node_id":"0.0-76.0","subject":"S1C1619","sona":"41599","block":2,"time":"2021-09-16T18:27:57.942Z","response":"2nd","certainty":"high","char":"L","transposition":-1,"order":["shifted","swapped"],"probe_pitches":[11,12,6,10,14,6,2,6,8,4,11,10,14,12,11,14],"shifted_pitches":[11,12,6,10,14,6,2,7,8,4,11,10,14,12,11,14],"swapped_pitches":[11,12,6,10,14,6,2,8,6,4,11,10,14,12,11,14],"shift_direction":1,"question_num":61,"has_decoy":false},{"rt":31292.90000000596,"stimulus":"[A] option 1, [L] option 2, [G] neither","key_press":76,"name":"choice","trial_type":"html-keyboard-response","trial_index":87,"time_elapsed":283554,"internal_node_id":"0.0-87.0","subject":"S1C1619","sona":"41599","block":2,"time":"2021-09-16T18:27:57.942Z","response":"2nd","certainty":"high","char":"L","transposition":0,"order":["shifted","swapped"],"probe_pitches":[5,2,7,9,2,5,9,0,12,5,9,12,0,7,0,9],"shifted_pitches":[5,2,7,9,2,5,9,0,13,5,9,12,0,7,0,9],"swapped_pitches":[5,2,7,9,2,5,9,12,0,5,9,12,0,7,0,9],"shift_direction":1,"question_num":71,"has_decoy":false},{"rt":1777.2000000178814,"stimulus":"[A] option 1, [L] option 2, [G] neither","key_press":76,"name":"choice","trial_type":"html-keyboard-response","trial_index":98,"time_elapsed":310075,"internal_node_id":"0.0-98.0","subject":"S1C1619","sona":"41599","block":2,"time":"2021-09-16T18:27:57.942Z","response":"2nd","certainty":"high","char":"L","transposition":-3,"order":["shifted","swapped"],"probe_pitches":[8,3,5,3,12,10,12,5,0,3,10,8,5,0,5,12],"shifted_pitches":[8,3,5,3,12,10,12,4,0,3,10,8,5,0,5,12],"swapped_pitches":[8,3,5,3,12,10,12,0,5,3,10,8,5,0,5,12],"shift_direction":-1,"question_num":81,"has_decoy":false},{"rt":11610.5,"stimulus":"[A] option 1, [L] option 2, [G] neither","key_press":65,"name":"choice","trial_type":"html-keyboard-response","trial_index":109,"time_elapsed":356612,"internal_node_id":"0.0-109.0","subject":"S1C1619","sona":"41599","block":2,"time":"2021-09-16T18:27:57.942Z","response":"1st","certainty":"high","char":"A","transposition":-1,"order":["swapped","shifted"],"probe_pitches":[10,5,10,5,0,5,7,5,3,7,12,5,10,0,5,3],"shifted_pitches":[10,5,10,5,0,5,7,6,3,7,12,5,10,0,5,3],"swapped_pitches":[10,5,10,5,0,5,7,3,5,7,12,5,10,0,5,3],"shift_direction":1,"question_num":91,"has_decoy":false},{"rt":9279.90000000596,"stimulus":"[A] option 1, [L] option 2, [G] neither","key_press":76,"name":"choice","trial_type":"html-keyboard-response","trial_index":120,"time_elapsed":388036,"internal_node_id":"0.0-120.0","subject":"S1C1619","sona":"41599","block":2,"time":"2021-09-16T18:27:57.942Z","response":"2nd","certainty":"high","char":"L","transposition":-2,"order":["shifted","swapped"],"probe_pitches":[5,0,7,5,12,10,0,10,5,7,3,5,7,3,12,3],"shifted_pitches":[5,0,7,5,12,10,0,11,5,7,3,5,7,3,12,3],"swapped_pitches":[5,0,7,5,12,10,0,5,10,7,3,5,7,3,12,3],"shift_direction":1,"question_num":101,"has_decoy":false},{"rt":2716.2000000178814,"stimulus":"[A] option 1, [L] option 2, [G] neither","key_press":76,"name":"choice","trial_type":"html-keyboard-response","trial_index":131,"time_elapsed":419872,"internal_node_id":"0.0-131.0","subject":"S1C1619","sona":"41599","block":2,"time":"2021-09-16T18:27:57.942Z","response":"2nd","certainty":"high","char":"L","transposition":-3,"order":["shifted","swapped"],"probe_pitches":[8,14,11,3,12,2,5,3,8,2,3,10,7,11,12,13],"shifted_pitches":[8,14,11,3,12,2,5,3,9,2,3,10,7,11,12,13],"swapped_pitches":[8,14,11,3,12,2,5,8,3,2,3,10,7,11,12,13],"shift_direction":1,"question_num":111,"has_decoy":false},{"rt":5037.699999988079,"stimulus":"[A] option 1, [L] option 2, [G] neither","key_press":76,"name":"choice","trial_type":"html-keyboard-response","trial_index":142,"time_elapsed":455052,"internal_node_id":"0.0-142.0","subject":"S1C1619","sona":"41599","block":2,"time":"2021-09-16T18:27:57.942Z","response":"2nd","certainty":"high","char":"L","transposition":2,"order":["shifted","swapped"],"probe_pitches":[2,7,4,2,9,7,4,2,0,9,2,9,12,2,12,9],"shifted_pitches":[2,7,4,2,9,7,4,2,-1,9,2,9,12,2,12,9],"swapped_pitches":[2,7,4,2,9,7,4,0,2,9,2,9,12,2,12,9],"shift_direction":-1,"question_num":121,"has_decoy":false},{"rt":2639.7999999821186,"stimulus":"[A] option 1, [L] option 2, [G] neither","key_press":65,"name":"choice","trial_type":"html-keyboard-response","trial_index":153,"time_elapsed":484334,"internal_node_id":"0.0-153.0","subject":"S1C1619","sona":"41599","block":2,"time":"2021-09-16T18:27:57.942Z","response":"1st","certainty":"high","char":"A","transposition":-2,"order":["swapped","shifted"],"probe_pitches":[2,7,5,0,5,0,9,0,2,9,2,9,2,5,12,9],"shifted_pitches":[2,7,5,0,5,0,9,-1,2,9,2,9,2,5,12,9],"swapped_pitches":[2,7,5,0,5,0,9,2,0,9,2,9,2,5,12,9],"shift_direction":-1,"question_num":131,"has_decoy":false},{"rt":5061.299999982119,"stimulus":"[A] option 1, [L] option 2, [G] neither","key_press":76,"name":"choice","trial_type":"html-keyboard-response","trial_index":164,"time_elapsed":512648,"internal_node_id":"0.0-164.0","subject":"S1C1619","sona":"41599","block":2,"time":"2021-09-16T18:27:57.942Z","response":"2nd","certainty":"high","char":"L","transposition":-1,"order":["shifted","swapped"],"probe_pitches":[12,7,10,2,5,9,11,14,5,6,11,8,9,5,6,12],"shifted_pitches":[12,7,10,2,5,9,11,13,5,6,11,8,9,5,6,12],"swapped_pitches":[12,7,10,2,5,9,11,5,14,6,11,8,9,5,6,12],"shift_direction":-1,"question_num":141,"has_decoy":false},{"rt":3895.699999988079,"stimulus":"[A] option 1, [L] option 2, [G] neither","key_press":76,"name":"choice","trial_type":"html-keyboard-response","trial_index":175,"time_elapsed":540560,"internal_node_id":"0.0-175.0","subject":"S1C1619","sona":"41599","block":2,"time":"2021-09-16T18:27:57.942Z","response":"2nd","certainty":"high","char":"L","transposition":0,"order":["swapped","shifted"],"probe_pitches":[4,9,4,9,14,12,6,9,4,2,6,2,14,2,3,7],"shifted_pitches":[4,9,4,9,14,12,6,9,5,2,6,2,14,2,3,7],"swapped_pitches":[4,9,4,9,14,12,6,4,9,2,6,2,14,2,3,7],"shift_direction":1,"question_num":151,"has_decoy":false},{"rt":1900.3999999761581,"stimulus":"[A] option 1, [L] option 2, [G] neither","key_press":76,"name":"choice","trial_type":"html-keyboard-response","trial_index":186,"time_elapsed":574655,"internal_node_id":"0.0-186.0","subject":"S1C1619","sona":"41599","block":2,"time":"2021-09-16T18:27:57.942Z","response":"2nd","certainty":"high","char":"L","transposition":3,"order":["shifted","swapped"],"probe_pitches":[5,6,3,7,4,7,4,9,13,3,13,11,14,5,11,7],"shifted_pitches":[5,6,3,7,4,7,4,8,13,3,13,11,14,5,11,7],"swapped_pitches":[5,6,3,7,4,7,4,13,9,3,13,11,14,5,11,7],"shift_direction":-1,"question_num":161,"has_decoy":false},{"rt":2110.2999999821186,"stimulus":"[A] option 1, [L] option 2, [G] neither","key_press":76,"name":"choice","trial_type":"html-keyboard-response","trial_index":197,"time_elapsed":600555,"internal_node_id":"0.0-197.0","subject":"S1C1619","sona":"41599","block":2,"time":"2021-09-16T18:27:57.942Z","response":"2nd","certainty":"high","char":"L","transposition":-2,"order":["swapped","shifted"],"probe_pitches":[3,9,14,6,9,2,3,11,5,8,3,6,14,13,14,11],"shifted_pitches":[3,9,14,6,9,2,3,11,4,8,3,6,14,13,14,11],"swapped_pitches":[3,9,14,6,9,2,3,5,11,8,3,6,14,13,14,11],"shift_direction":-1,"question_num":171,"has_decoy":false},{"rt":2554.0999999940395,"stimulus":"[A] option 1, [L] option 2, [G] neither","key_press":76,"name":"choice","trial_type":"html-keyboard-response","trial_index":208,"time_elapsed":626241,"internal_node_id":"0.0-208.0","subject":"S1C1619","sona":"41599","block":2,"time":"2021-09-16T18:27:57.942Z","response":"2nd","certainty":"high","char":"L","transposition":-3,"order":["swapped","shifted"],"probe_pitches":[12,10,12,7,2,5,7,2,0,7,10,0,12,5,7,5],"shifted_pitches":[12,10,12,7,2,5,7,2,1,7,10,0,12,5,7,5],"swapped_pitches":[12,10,12,7,2,5,7,0,2,7,10,0,12,5,7,5],"shift_direction":1,"question_num":181,"has_decoy":false},{"rt":5175.799999982119,"stimulus":"[A] option 1, [L] option 2, [G] neither","key_press":65,"name":"choice","trial_type":"html-keyboard-response","trial_index":219,"time_elapsed":655902,"internal_node_id":"0.0-219.0","subject":"S1C1619","sona":"41599","block":2,"time":"2021-09-16T18:27:57.942Z","response":"1st","certainty":"high","char":"A","transposition":-1,"order":["shifted","swapped"],"probe_pitches":[0,2,0,7,2,4,9,0,2,9,2,12,2,0,7,4],"shifted_pitches":[0,2,0,7,2,4,9,-1,2,9,2,12,2,0,7,4],"swapped_pitches":[0,2,0,7,2,4,9,2,0,9,2,12,2,0,7,4],"shift_direction":-1,"question_num":191,"has_decoy":false}]