[{"rt":3236.300000011921,"stimulus":"[A] option 1, [L] option 2, [G] neither","key_press":65,"name":"choice","trial_type":"html-keyboard-response","trial_index":10,"time_elapsed":29650,"internal_node_id":"0.0-10.0","subject":"S1C1619","sona":"41599","block":3,"time":"2021-09-16T18:38:27.170Z","response":"1st","certainty":"high","char":"A","transposition":1,"order":["shifted","swapped"],"probe_pitches":[8,10,8,12,10,5,8,12,5,10,3,10,5,10,5,0],"shifted_pitches":[8,10,8,12,10,5,8,12,4,10,3,10,5,10,5,0],"swapped_pitches":[8,10,8,12,10,5,8,5,12,10,3,10,5,10,5,0],"shift_direction":-1,"question_num":1,"has_decoy":false},{"rt":3976.4000000059605,"stimulus":"[A] option 1, [L] option 2, [G] neither","key_press":76,"name":"choice","trial_type":"html-keyboard-response","trial_index":21,"time_elapsed":60725,"internal_node_id":"0.0-21.0","subject":"S1C1619","sona":"41599","block":3,"time":"2021-09-16T18:38:27.170Z","response":"2nd","certainty":"high","char":"L","transposition":0,"order":["shifted","swapped"],"probe_pitches":[7,12,9,12,4,12,7,2,12,0,4,12,4,2,9,4],"shifted_pitches":[7,12,9,12,4,12,7,2,11,0,4,12,4,2,9,4],"swapped_pitches":[7,12,9,12,4,12,7,12,2,0,4,12,4,2,9,4],"shift_direction":-1,"question_num":11,"has_decoy":false},{"rt":4848.5,"stimulus":"[A] option 1, [L] option 2, [G] neither","key_press":76,"name":"choice","trial_type":"html-keyboard-response","trial_index":32,"time_elapsed":89650,"internal_node_id":"0.0-32.0","subject":"S1C1619","sona":"41599","block":3,"time":"2021-09-16T18:38:27.170Z","response":"2nd","certainty":"high","char":"L","transposition":2,"order":["shifted","swapped"],"probe_pitches":[5,0,3,0,3,8,12,0,8,12,5,12,3,5,12,10],"shifted_pitches":[5,0,3,0,3,8,12,-1,8,12,5,12,3,5,12,10],"swapped_pitches":[5,0,3,0,3,8,12,8,0,12,5,12,3,5,12,10],"shift_direction":-1,"question_num":21,"has_decoy":false},{"rt":11927.40000000596,"stimulus":"[A] option 1, [L] option 2, [G] neither","key_press":76,"name":"choice","trial_type":"html-keyboard-response","trial_index":43,"time_elapsed":124627,"internal_node_id":"0.0-43.0","subject":"S1C1619","sona":"41599","block":3,"time":"2021-09-16T18:38:27.170Z","response":"2nd","certainty":"high","char":"L","transposition":-2,"order":["swapped","shifted"],"probe_pitches":[12,7,5,2,7,10,0,5,10,2,10,0,5,12,10,5],"shifted_pitches":[12,7,5,2,7,10,0,5,11,2,10,0,5,12,10,5],"swapped_pitches":[12,7,5,2,7,10,0,10,5,2,10,0,5,12,10,5],"shift_direction":1,"question_num":31,"has_decoy":false},{"rt":2305.199999988079,"stimulus":"[A] option 1, [L] option 2, [G] neither","key_press":76,"name":"choice","trial_type":"html-keyboard-response","trial_index":54,"time_elapsed":207035,"internal_node_id":"0.0-54.0","subject":"S1C1619","sona":"41599","block":3,"time":"2021-09-16T18:38:27.170Z","response":"2nd","certainty":"high","char":"L","transposition":-3,"order":["shifted","swapped"],"probe_pitches":[7,5,9,4,-3,4,9,7,6,3,1,4,-3,2,0,-3],"shifted_pitches":[7,5,9,4,-3,4,9,8,6,3,1,4,-3,2,0,-3],"swapped_pitches":[7,5,9,4,-3,4,9,6,7,3,1,4,-3,2,0,-3],"shift_direction":1,"question_num":41,"has_decoy":false},{"rt":1280.4000000059605,"stimulus":"[A] option 1, [L] option 2, [G] neither","key_press":76,"name":"choice","trial_type":"html-keyboard-response","trial_index":65,"time_elapsed":234015,"internal_node_id":"0.0-65.0","subject":"S1C1619","sona":"41599","block":3,"time":"2021-09-16T18:38:27.170Z","response":"2nd","certainty":"high","char":"L","transposition":-3,"order":["swapped","shifted"],"probe_pitches":[3,7,10,5,10,0,3,12,5,7,12,0,5,10,5,3],"shifted_pitches":[3,7,10,5,10,0,3,13,5,7,12,0,5,10,5,3],"swapped_pitches":[3,7,10,5,10,0,3,5,12,7,12,0,5,10,5,3],"shift_direction":1,"question_num":51,"has_decoy":false},{"rt":5109.0999999940395,"stimulus":"[A] option 1, [L] option 2, [G] neither","key_press":76,"name":"choice","trial_type":"html-keyboard-response","trial_index":76,"time_elapsed":263321,"internal_node_id":"0.0-76.0","subject":"S1C1619","sona":"41599","block":3,"time":"2021-09-16T18:38:27.170Z","response":"2nd","certainty":"high","char":"L","transposition":-3,"order":["shifted","swapped"],"probe_pitches":[12,10,3,0,5,0,3,5,0,10,7,10,0,10,5,7],"shifted_pitches":[12,10,3,0,5,0,3,5,1,10,7,10,0,10,5,7],"swapped_pitches":[12,10,3,0,5,0,3,0,5,10,7,10,0,10,5,7],"shift_direction":1,"question_num":61,"has_decoy":false},{"rt":830.3000000119209,"stimulus":"[A] option 1, [L] option 2, [G] neither","key_press":76,"name":"choice","trial_type":"html-keyboard-response","trial_index":87,"time_elapsed":289190,"internal_node_id":"0.0-87.0","subject":"S1C1619","sona":"41599","block":3,"time":"2021-09-16T18:38:27.170Z","response":"2nd","certainty":"high","char":"L","transposition":-2,"order":["shifted","swapped"],"probe_pitches":[1,5,1,3,-2,-3,-1,1,4,9,6,5,-3,6,0,8],"shifted_pitches":[1,5,1,3,-2,-3,-1,2,4,9,6,5,-3,6,0,8],"swapped_pitches":[1,5,1,3,-2,-3,-1,4,1,9,6,5,-3,6,0,8],"shift_direction":1,"question_num":71,"has_decoy":false},{"rt":2032.9000000059605,"stimulus":"[A] option 1, [L] option 2, [G] neither","key_press":76,"name":"choice","trial_type":"html-keyboard-response","trial_index":98,"time_elapsed":316179,"internal_node_id":"0.0-98.0","subject":"S1C1619","sona":"41599","block":3,"time":"2021-09-16T18:38:27.170Z","response":"2nd","certainty":"high","char":"L","transposition":-2,"order":["shifted","swapped"],"probe_pitches":[-3,-2,5,0,3,5,-1,2,0,5,0,7,6,8,2,0],"shifted_pitches":[-3,-2,5,0,3,5,-1,2,1,5,0,7,6,8,2,0],"swapped_pitches":[-3,-2,5,0,3,5,-1,0,2,5,0,7,6,8,2,0],"shift_direction":1,"question_num":81,"has_decoy":false},{"rt":2226.5,"stimulus":"[A] option 1, [L] option 2, [G] neither","key_press":76,"name":"choice","trial_type":"html-keyboard-response","trial_index":109,"time_elapsed":341290,"internal_node_id":"0.0-109.0","subject":"S1C1619","sona":"41599","block":3,"time":"2021-09-16T18:38:27.170Z","response":"2nd","certainty":"high","char":"L","transposition":-3,"order":["swapped","shifted"],"probe_pitches":[7,1,7,2,1,-3,-1,6,-2,2,7,9,-3,9,0,7],"shifted_pitches":[7,1,7,2,1,-3,-1,5,-2,2,7,9,-3,9,0,7],"swapped_pitches":[7,1,7,2,1,-3,-1,-2,6,2,7,9,-3,9,0,7],"shift_direction":-1,"question_num":91,"has_decoy":false},{"rt":435.90000000596046,"stimulus":"[A] option 1, [L] option 2, [G] neither","key_press":65,"name":"choice","trial_type":"html-keyboard-response","trial_index":120,"time_elapsed":363864,"internal_node_id":"0.0-120.0","subject":"S1C1619","sona":"41599","block":3,"time":"2021-09-16T18:38:27.170Z","response":"1st","certainty":"high","char":"A","transposition":-1,"order":["swapped","shifted"],"probe_pitches":[9,7,9,3,7,3,7,0,-2,-3,2,5,6,2,9,-3],"shifted_pitches":[9,7,9,3,7,3,7,0,-1,-3,2,5,6,2,9,-3],"swapped_pitches":[9,7,9,3,7,3,7,-2,0,-3,2,5,6,2,9,-3],"shift_direction":1,"question_num":101,"has_decoy":false},{"rt":499.90000000596046,"stimulus":"[A] option 1, [L] option 2, [G] neither","key_press":76,"name":"choice","trial_type":"html-keyboard-response","trial_index":131,"time_elapsed":386565,"internal_node_id":"0.0-131.0","subject":"S1C1619","sona":"41599","block":3,"time":"2021-09-16T18:38:27.170Z","response":"2nd","certainty":"high","char":"L","transposition":-1,"order":["swapped","shifted"],"probe_pitches":[9,7,5,2,7,2,12,0,7,5,12,5,12,9,0,12],"shifted_pitches":[9,7,5,2,7,2,12,1,7,5,12,5,12,9,0,12],"swapped_pitches":[9,7,5,2,7,2,12,7,0,5,12,5,12,9,0,12],"shift_direction":1,"question_num":111,"has_decoy":false},{"rt":1627.699999988079,"stimulus":"[A] option 1, [L] option 2, [G] neither","key_press":76,"name":"choice","trial_type":"html-keyboard-response","trial_index":142,"time_elapsed":415047,"internal_node_id":"0.0-142.0","subject":"S1C1619","sona":"41599","block":3,"time":"2021-09-16T18:38:27.170Z","response":"2nd","certainty":"high","char":"L","transposition":3,"order":["swapped","shifted"],"probe_pitches":[5,2,0,2,5,0,10,2,12,0,12,10,2,0,7,10],"shifted_pitches":[5,2,0,2,5,0,10,2,11,0,12,10,2,0,7,10],"swapped_pitches":[5,2,0,2,5,0,10,12,2,0,12,10,2,0,7,10],"shift_direction":-1,"question_num":121,"has_decoy":false},{"rt":5259.4000000059605,"stimulus":"[A] option 1, [L] option 2, [G] neither","key_press":76,"name":"choice","trial_type":"html-keyboard-response","trial_index":153,"time_elapsed":446699,"internal_node_id":"0.0-153.0","subject":"S1C1619","sona":"41599","block":3,"time":"2021-09-16T18:38:27.170Z","response":"2nd","certainty":"high","char":"L","transposition":-1,"order":["swapped","shifted"],"probe_pitches":[1,4,-1,4,-3,5,8,6,1,9,3,5,-1,4,7,8],"shifted_pitches":[1,4,-1,4,-3,5,8,6,0,9,3,5,-1,4,7,8],"swapped_pitches":[1,4,-1,4,-3,5,8,1,6,9,3,5,-1,4,7,8],"shift_direction":-1,"question_num":131,"has_decoy":false},{"rt":2113.800000011921,"stimulus":"[A] option 1, [L] option 2, [G] neither","key_press":65,"name":"choice","trial_type":"html-keyboard-response","trial_index":164,"time_elapsed":475815,"internal_node_id":"0.0-164.0","subject":"S1C1619","sona":"41599","block":3,"time":"2021-09-16T18:38:27.170Z","response":"1st","certainty":"high","char":"A","transposition":0,"order":["swapped","shifted"],"probe_pitches":[8,6,3,9,6,-3,1,8,9,-2,-1,-2,4,-1,1,-1],"shifted_pitches":[8,6,3,9,6,-3,1,7,9,-2,-1,-2,4,-1,1,-1],"swapped_pitches":[8,6,3,9,6,-3,1,9,8,-2,-1,-2,4,-1,1,-1],"shift_direction":-1,"question_num":141,"has_decoy":false},{"rt":8949.700000017881,"stimulus":"[A] option 1, [L] option 2, [G] neither","key_press":76,"name":"choice","trial_type":"html-keyboard-response","trial_index":175,"time_elapsed":512628,"internal_node_id":"0.0-175.0","subject":"S1C1619","sona":"41599","block":3,"time":"2021-09-16T18:38:27.170Z","response":"2nd","certainty":"high","char":"L","transposition":-1,"order":["shifted","swapped"],"probe_pitches":[2,0,2,9,4,12,4,2,7,12,7,12,4,7,12,0],"shifted_pitches":[2,0,2,9,4,12,4,3,7,12,7,12,4,7,12,0],"swapped_pitches":[2,0,2,9,4,12,4,7,2,12,7,12,4,7,12,0],"shift_direction":1,"question_num":151,"has_decoy":false},{"rt":1814.5999999940395,"stimulus":"[A] option 1, [L] option 2, [G] neither","key_press":65,"name":"choice","trial_type":"html-keyboard-response","trial_index":186,"time_elapsed":541701,"internal_node_id":"0.0-186.0","subject":"S1C1619","sona":"41599","block":3,"time":"2021-09-16T18:38:27.170Z","response":"1st","certainty":"high","char":"A","transposition":-2,"order":["swapped","shifted"],"probe_pitches":[9,12,7,0,7,12,2,0,7,9,12,0,5,7,2,12],"shifted_pitches":[9,12,7,0,7,12,2,-1,7,9,12,0,5,7,2,12],"swapped_pitches":[9,12,7,0,7,12,2,7,0,9,12,0,5,7,2,12],"shift_direction":-1,"question_num":161,"has_decoy":false},{"rt":4260,"stimulus":"[A] option 1, [L] option 2, [G] neither","key_press":76,"name":"choice","trial_type":"html-keyboard-response","trial_index":197,"time_elapsed":568669,"internal_node_id":"0.0-197.0","subject":"S1C1619","sona":"41599","block":3,"time":"2021-09-16T18:38:27.170Z","response":"2nd","certainty":"high","char":"L","transposition":1,"order":["shifted","swapped"],"probe_pitches":[7,1,0,-3,-2,1,3,7,0,2,9,8,3,0,-2,2],"shifted_pitches":[7,1,0,-3,-2,1,3,6,0,2,9,8,3,0,-2,2],"swapped_pitches":[7,1,0,-3,-2,1,3,0,7,2,9,8,3,0,-2,2],"shift_direction":-1,"question_num":171,"has_decoy":false},{"rt":2070,"stimulus":"[A] option 1, [L] option 2, [G] neither","key_press":76,"name":"choice","trial_type":"html-keyboard-response","trial_index":208,"time_elapsed":594057,"internal_node_id":"0.0-208.0","subject":"S1C1619","sona":"41599","block":3,"time":"2021-09-16T18:38:27.170Z","response":"2nd","certainty":"high","char":"L","transposition":2,"order":["shifted","swapped"],"probe_pitches":[9,7,0,8,9,7,1,0,3,9,0,9,-1,7,8,3],"shifted_pitches":[9,7,0,8,9,7,1,0,4,9,0,9,-1,7,8,3],"swapped_pitches":[9,7,0,8,9,7,1,3,0,9,0,9,-1,7,8,3],"shift_direction":1,"question_num":181,"has_decoy":false},{"rt":3087,"stimulus":"[A] option 1, [L] option 2, [G] neither","key_press":76,"name":"choice","trial_type":"html-keyboard-response","trial_index":219,"time_elapsed":621623,"internal_node_id":"0.0-219.0","subject":"S1C1619","sona":"41599","block":3,"time":"2021-09-16T18:38:27.170Z","response":"2nd","certainty":"high","char":"L","transposition":3,"order":["swapped","shifted"],"probe_pitches":[4,1,-2,-1,8,6,-2,9,4,7,-1,-3,1,-1,4,-2],"shifted_pitches":[4,1,-2,-1,8,6,-2,9,3,7,-1,-3,1,-1,4,-2],"swapped_pitches":[4,1,-2,-1,8,6,-2,4,9,7,-1,-3,1,-1,4,-2],"shift_direction":-1,"question_num":191,"has_decoy":false}]