[{"rt":166080.40000000596,"stimulus":"[A] option 1, [L] option 2, [G] neither","key_press":65,"name":"choice","trial_type":"html-keyboard-response","trial_index":10,"time_elapsed":203466,"internal_node_id":"0.0-10.0","subject":"S1C1619","sona":"41599","block":5,"time":"2021-09-16T19:04:07.861Z","response":"1st","certainty":"high","char":"A","transposition":-2,"order":["shifted","swapped"],"probe_pitches":[3,2,-1,5,11,4,11,10,6,3,9,10,11,9,5,1],"shifted_pitches":[3,2,-1,5,11,4,11,10,7,3,9,10,11,9,5,1],"swapped_pitches":[3,2,-1,5,11,4,11,6,10,3,9,10,11,9,5,1],"shift_direction":1,"question_num":1,"has_decoy":false},{"rt":2189.9000000059605,"stimulus":"[A] option 1, [L] option 2, [G] neither","key_press":76,"name":"choice","trial_type":"html-keyboard-response","trial_index":21,"time_elapsed":228921,"internal_node_id":"0.0-21.0","subject":"S1C1619","sona":"41599","block":5,"time":"2021-09-16T19:04:07.861Z","response":"2nd","certainty":"high","char":"L","transposition":-3,"order":["swapped","shifted"],"probe_pitches":[10,9,11,9,3,2,-1,8,4,9,0,4,0,6,8,9],"shifted_pitches":[10,9,11,9,3,2,-1,8,5,9,0,4,0,6,8,9],"swapped_pitches":[10,9,11,9,3,2,-1,4,8,9,0,4,0,6,8,9],"shift_direction":1,"question_num":11,"has_decoy":false},{"rt":2524.5,"stimulus":"[A] option 1, [L] option 2, [G] neither","key_press":76,"name":"choice","trial_type":"html-keyboard-response","trial_index":32,"time_elapsed":254557,"internal_node_id":"0.0-32.0","subject":"S1C1619","sona":"41599","block":5,"time":"2021-09-16T19:04:07.861Z","response":"2nd","certainty":"high","char":"L","transposition":-1,"order":["swapped","shifted"],"probe_pitches":[11,6,-1,1,6,3,-1,6,8,-1,11,6,1,-1,6,3],"shifted_pitches":[11,6,-1,1,6,3,-1,6,7,-1,11,6,1,-1,6,3],"swapped_pitches":[11,6,-1,1,6,3,-1,8,6,-1,11,6,1,-1,6,3],"shift_direction":-1,"question_num":21,"has_decoy":false},{"rt":5188.4000000059605,"stimulus":"[A] option 1, [L] option 2, [G] neither","key_press":76,"name":"choice","trial_type":"html-keyboard-response","trial_index":43,"time_elapsed":288473,"internal_node_id":"0.0-43.0","subject":"S1C1619","sona":"41599","block":5,"time":"2021-09-16T19:04:07.861Z","response":"2nd","certainty":"high","char":"L","transposition":3,"order":["swapped","shifted"],"probe_pitches":[11,6,4,2,-1,6,9,2,-1,9,2,-1,4,9,4,11],"shifted_pitches":[11,6,4,2,-1,6,9,3,-1,9,2,-1,4,9,4,11],"swapped_pitches":[11,6,4,2,-1,6,9,-1,2,9,2,-1,4,9,4,11],"shift_direction":1,"question_num":31,"has_decoy":false},{"rt":10245.90000000596,"stimulus":"[A] option 1, [L] option 2, [G] neither","key_press":76,"name":"choice","trial_type":"html-keyboard-response","trial_index":54,"time_elapsed":322101,"internal_node_id":"0.0-54.0","subject":"S1C1619","sona":"41599","block":5,"time":"2021-09-16T19:04:07.861Z","response":"2nd","certainty":"high","char":"L","transposition":-3,"order":["swapped","shifted"],"probe_pitches":[1,6,3,8,6,11,3,11,6,8,-1,1,8,1,3,-1],"shifted_pitches":[1,6,3,8,6,11,3,11,7,8,-1,1,8,1,3,-1],"swapped_pitches":[1,6,3,8,6,11,3,6,11,8,-1,1,8,1,3,-1],"shift_direction":1,"question_num":41,"has_decoy":false},{"rt":994.8000000119209,"stimulus":"[A] option 1, [L] option 2, [G] neither","key_press":76,"name":"choice","trial_type":"html-keyboard-response","trial_index":65,"time_elapsed":345452,"internal_node_id":"0.0-65.0","subject":"S1C1619","sona":"41599","block":5,"time":"2021-09-16T19:04:07.861Z","response":"2nd","certainty":"high","char":"L","transposition":2,"order":["swapped","shifted"],"probe_pitches":[-1,4,9,6,2,7,8,4,-1,8,7,11,-1,9,10,9],"shifted_pitches":[-1,4,9,6,2,7,8,3,-1,8,7,11,-1,9,10,9],"swapped_pitches":[-1,4,9,6,2,7,8,-1,4,8,7,11,-1,9,10,9],"shift_direction":-1,"question_num":51,"has_decoy":false},{"rt":9226.100000023842,"stimulus":"[A] option 1, [L] option 2, [G] neither","key_press":76,"name":"choice","trial_type":"html-keyboard-response","trial_index":76,"time_elapsed":377662,"internal_node_id":"0.0-76.0","subject":"S1C1619","sona":"41599","block":5,"time":"2021-09-16T19:04:07.861Z","response":"2nd","certainty":"high","char":"L","transposition":-1,"order":["shifted","swapped"],"probe_pitches":[6,9,4,11,6,11,4,6,-1,4,9,1,9,1,9,6],"shifted_pitches":[6,9,4,11,6,11,4,5,-1,4,9,1,9,1,9,6],"swapped_pitches":[6,9,4,11,6,11,4,-1,6,4,9,1,9,1,9,6],"shift_direction":-1,"question_num":61,"has_decoy":false},{"rt":3662.4000000059605,"stimulus":"[A] option 1, [L] option 2, [G] neither","key_press":65,"name":"choice","trial_type":"html-keyboard-response","trial_index":87,"time_elapsed":407372,"internal_node_id":"0.0-87.0","subject":"S1C1619","sona":"41599","block":5,"time":"2021-09-16T19:04:07.861Z","response":"1st","certainty":"high","char":"A","transposition":-2,"order":["shifted","swapped"],"probe_pitches":[6,2,1,7,6,3,10,8,5,3,4,8,4,1,8,1],"shifted_pitches":[6,2,1,7,6,3,10,9,5,3,4,8,4,1,8,1],"swapped_pitches":[6,2,1,7,6,3,10,5,8,3,4,8,4,1,8,1],"shift_direction":1,"question_num":71,"has_decoy":false},{"rt":1790.0999999940395,"stimulus":"[A] option 1, [L] option 2, [G] neither","key_press":65,"name":"choice","trial_type":"html-keyboard-response","trial_index":98,"time_elapsed":433243,"internal_node_id":"0.0-98.0","subject":"S1C1619","sona":"41599","block":5,"time":"2021-09-16T19:04:07.861Z","response":"1st","certainty":"high","char":"A","transposition":0,"order":["shifted","swapped"],"probe_pitches":[11,7,11,9,11,9,4,9,7,2,7,9,4,11,4,7],"shifted_pitches":[11,7,11,9,11,9,4,9,6,2,7,9,4,11,4,7],"swapped_pitches":[11,7,11,9,11,9,4,7,9,2,7,9,4,11,4,7],"shift_direction":-1,"question_num":81,"has_decoy":false},{"rt":38593.69999998808,"stimulus":"[A] option 1, [L] option 2, [G] neither","key_press":65,"name":"choice","trial_type":"html-keyboard-response","trial_index":109,"time_elapsed":511054,"internal_node_id":"0.0-109.0","subject":"S1C1619","sona":"41599","block":5,"time":"2021-09-16T19:04:07.861Z","response":"1st","certainty":"high","char":"A","transposition":1,"order":["swapped","shifted"],"probe_pitches":[4,6,7,0,4,-1,1,9,3,4,10,9,-1,7,1,7],"shifted_pitches":[4,6,7,0,4,-1,1,9,2,4,10,9,-1,7,1,7],"swapped_pitches":[4,6,7,0,4,-1,1,3,9,4,10,9,-1,7,1,7],"shift_direction":-1,"question_num":91,"has_decoy":false},{"rt":503.5,"stimulus":"[A] option 1, [L] option 2, [G] neither","key_press":76,"name":"choice","trial_type":"html-keyboard-response","trial_index":120,"time_elapsed":534642,"internal_node_id":"0.0-120.0","subject":"S1C1619","sona":"41599","block":5,"time":"2021-09-16T19:04:07.861Z","response":"2nd","certainty":"high","char":"L","transposition":-1,"order":["shifted","swapped"],"probe_pitches":[4,3,4,9,10,9,10,0,2,7,2,8,7,11,0,7],"shifted_pitches":[4,3,4,9,10,9,10,0,1,7,2,8,7,11,0,7],"swapped_pitches":[4,3,4,9,10,9,10,2,0,7,2,8,7,11,0,7],"shift_direction":-1,"question_num":101,"has_decoy":false},{"rt":5215.5999999940395,"stimulus":"[A] option 1, [L] option 2, [G] neither","key_press":76,"name":"choice","trial_type":"html-keyboard-response","trial_index":131,"time_elapsed":566191,"internal_node_id":"0.0-131.0","subject":"S1C1619","sona":"41599","block":5,"time":"2021-09-16T19:04:07.861Z","response":"2nd","certainty":"high","char":"L","transposition":2,"order":["swapped","shifted"],"probe_pitches":[-1,2,-1,2,7,9,11,-1,9,2,9,4,11,7,4,-1],"shifted_pitches":[-1,2,-1,2,7,9,11,0,9,2,9,4,11,7,4,-1],"swapped_pitches":[-1,2,-1,2,7,9,11,9,-1,2,9,4,11,7,4,-1],"shift_direction":1,"question_num":111,"has_decoy":false},{"rt":16931.19999998808,"stimulus":"[A] option 1, [L] option 2, [G] neither","key_press":76,"name":"choice","trial_type":"html-keyboard-response","trial_index":142,"time_elapsed":690768,"internal_node_id":"0.0-142.0","subject":"S1C1619","sona":"41599","block":5,"time":"2021-09-16T19:04:07.861Z","response":"2nd","certainty":"high","char":"L","transposition":1,"order":["shifted","swapped"],"probe_pitches":[4,-1,1,6,-1,1,-1,8,1,11,1,11,6,11,8,4],"shifted_pitches":[4,-1,1,6,-1,1,-1,9,1,11,1,11,6,11,8,4],"swapped_pitches":[4,-1,1,6,-1,1,-1,1,8,11,1,11,6,11,8,4],"shift_direction":1,"question_num":121,"has_decoy":false},{"rt":92457,"stimulus":"[A] option 1, [L] option 2, [G] neither","key_press":76,"name":"choice","trial_type":"html-keyboard-response","trial_index":153,"time_elapsed":806774,"internal_node_id":"0.0-153.0","subject":"S1C1619","sona":"41599","block":5,"time":"2021-09-16T19:04:07.861Z","response":"2nd","certainty":"high","char":"L","transposition":-1,"order":["shifted","swapped"],"probe_pitches":[7,4,1,3,6,3,11,9,7,10,-1,0,11,9,7,4],"shifted_pitches":[7,4,1,3,6,3,11,9,8,10,-1,0,11,9,7,4],"swapped_pitches":[7,4,1,3,6,3,11,7,9,10,-1,0,11,9,7,4],"shift_direction":1,"question_num":131,"has_decoy":false},{"rt":414.5,"stimulus":"[A] option 1, [L] option 2, [G] neither","key_press":65,"name":"choice","trial_type":"html-keyboard-response","trial_index":164,"time_elapsed":831079,"internal_node_id":"0.0-164.0","subject":"S1C1619","sona":"41599","block":5,"time":"2021-09-16T19:04:07.861Z","response":"1st","certainty":"high","char":"A","transposition":0,"order":["swapped","shifted"],"probe_pitches":[11,8,9,11,2,1,2,3,8,6,9,10,2,6,0,11],"shifted_pitches":[11,8,9,11,2,1,2,4,8,6,9,10,2,6,0,11],"swapped_pitches":[11,8,9,11,2,1,2,8,3,6,9,10,2,6,0,11],"shift_direction":1,"question_num":141,"has_decoy":false},{"rt":451.09999999403954,"stimulus":"[A] option 1, [L] option 2, [G] neither","key_press":65,"name":"choice","trial_type":"html-keyboard-response","trial_index":175,"time_elapsed":854459,"internal_node_id":"0.0-175.0","subject":"S1C1619","sona":"41599","block":5,"time":"2021-09-16T19:04:07.861Z","response":"1st","certainty":"high","char":"A","transposition":-2,"order":["swapped","shifted"],"probe_pitches":[-1,4,6,4,1,-1,4,9,11,4,6,4,6,11,-1,6],"shifted_pitches":[-1,4,6,4,1,-1,4,9,10,4,6,4,6,11,-1,6],"swapped_pitches":[-1,4,6,4,1,-1,4,11,9,4,6,4,6,11,-1,6],"shift_direction":-1,"question_num":151,"has_decoy":false},{"rt":401.5,"stimulus":"[A] option 1, [L] option 2, [G] neither","key_press":65,"name":"choice","trial_type":"html-keyboard-response","trial_index":186,"time_elapsed":877977,"internal_node_id":"0.0-186.0","subject":"S1C1619","sona":"41599","block":5,"time":"2021-09-16T19:04:07.861Z","response":"1st","certainty":"high","char":"A","transposition":-3,"order":["shifted","swapped"],"probe_pitches":[-1,4,11,9,2,-1,4,9,11,2,9,6,11,4,9,-1],"shifted_pitches":[-1,4,11,9,2,-1,4,8,11,2,9,6,11,4,9,-1],"swapped_pitches":[-1,4,11,9,2,-1,4,11,9,2,9,6,11,4,9,-1],"shift_direction":-1,"question_num":161,"has_decoy":false},{"rt":289.59999999403954,"stimulus":"[A] option 1, [L] option 2, [G] neither","key_press":76,"name":"choice","trial_type":"html-keyboard-response","trial_index":197,"time_elapsed":900820,"internal_node_id":"0.0-197.0","subject":"S1C1619","sona":"41599","block":5,"time":"2021-09-16T19:04:07.861Z","response":"2nd","certainty":"high","char":"L","transposition":-3,"order":["shifted","swapped"],"probe_pitches":[10,7,0,8,4,-1,9,7,5,4,11,8,9,3,1,11],"shifted_pitches":[10,7,0,8,4,-1,9,6,5,4,11,8,9,3,1,11],"swapped_pitches":[10,7,0,8,4,-1,9,5,7,4,11,8,9,3,1,11],"shift_direction":-1,"question_num":171,"has_decoy":false},{"rt":5600.5,"stimulus":"[A] option 1, [L] option 2, [G] neither","key_press":76,"name":"choice","trial_type":"html-keyboard-response","trial_index":208,"time_elapsed":929282,"internal_node_id":"0.0-208.0","subject":"S1C1619","sona":"41599","block":5,"time":"2021-09-16T19:04:07.861Z","response":"2nd","certainty":"high","char":"L","transposition":-2,"order":["shifted","swapped"],"probe_pitches":[1,4,11,4,11,4,1,-1,4,1,8,6,1,11,1,6],"shifted_pitches":[1,4,11,4,11,4,1,-1,5,1,8,6,1,11,1,6],"swapped_pitches":[1,4,11,4,11,4,1,4,-1,1,8,6,1,11,1,6],"shift_direction":1,"question_num":181,"has_decoy":false},{"rt":380.2000000178814,"stimulus":"[A] option 1, [L] option 2, [G] neither","key_press":65,"name":"choice","trial_type":"html-keyboard-response","trial_index":219,"time_elapsed":953294,"internal_node_id":"0.0-219.0","subject":"S1C1619","sona":"41599","block":5,"time":"2021-09-16T19:04:07.861Z","response":"1st","certainty":"high","char":"A","transposition":3,"order":["swapped","shifted"],"probe_pitches":[11,6,1,2,4,11,8,-1,4,2,6,7,5,7,0,8],"shifted_pitches":[11,6,1,2,4,11,8,-2,4,2,6,7,5,7,0,8],"swapped_pitches":[11,6,1,2,4,11,8,4,-1,2,6,7,5,7,0,8],"shift_direction":-1,"question_num":191,"has_decoy":false}]