[{"rt":1908.3999999985099,"stimulus":"[A] option 1, [L] option 2, [G] neither","key_press":65,"name":"choice","trial_type":"html-keyboard-response","trial_index":10,"time_elapsed":27337,"internal_node_id":"0.0-10.0","subject":"S1C1234","sona":"41485","block":2,"time":"2021-09-18T01:40:03.438Z","response":"1st","certainty":"high","char":"A","transposition":1,"order":["swapped","shifted"],"probe_pitches":[5,3,8,5,8,13,10,3,1,10,13,8],"shifted_pitches":[5,3,8,5,8,13,11,3,1,10,13,8],"swapped_pitches":[5,3,8,5,8,10,13,3,1,10,13,8],"shift_direction":1,"question_num":1,"has_decoy":false},{"rt":2762.2000000029802,"stimulus":"[A] option 1, [L] option 2, [G] neither","key_press":65,"name":"choice","trial_type":"html-keyboard-response","trial_index":21,"time_elapsed":50339,"internal_node_id":"0.0-21.0","subject":"S1C1234","sona":"41485","block":2,"time":"2021-09-18T01:40:03.438Z","response":"1st","certainty":"high","char":"A","transposition":-2,"order":["swapped","shifted"],"probe_pitches":[3,5,11,8,5,10,13,7,5,14,13,10],"shifted_pitches":[3,5,11,8,5,9,13,7,5,14,13,10],"swapped_pitches":[3,5,11,8,5,13,10,7,5,14,13,10],"shift_direction":-1,"question_num":11,"has_decoy":false},{"rt":1620.5,"stimulus":"[A] option 1, [L] option 2, [G] neither","key_press":65,"name":"choice","trial_type":"html-keyboard-response","trial_index":32,"time_elapsed":73308,"internal_node_id":"0.0-32.0","subject":"S1C1234","sona":"41485","block":2,"time":"2021-09-18T01:40:03.438Z","response":"1st","certainty":"high","char":"A","transposition":3,"order":["swapped","shifted"],"probe_pitches":[10,7,10,7,8,14,5,7,4,3,5,11],"shifted_pitches":[10,7,10,7,8,14,6,7,4,3,5,11],"swapped_pitches":[10,7,10,7,8,5,14,7,4,3,5,11],"shift_direction":1,"question_num":21,"has_decoy":false},{"rt":843.2000000029802,"stimulus":"[A] option 1, [L] option 2, [G] neither","key_press":76,"name":"choice","trial_type":"html-keyboard-response","trial_index":43,"time_elapsed":94807,"internal_node_id":"0.0-43.0","subject":"S1C1234","sona":"41485","block":2,"time":"2021-09-18T01:40:03.438Z","response":"2nd","certainty":"high","char":"L","transposition":-1,"order":["shifted","swapped"],"probe_pitches":[1,6,4,9,6,13,11,6,9,1,4,6],"shifted_pitches":[1,6,4,9,6,14,11,6,9,1,4,6],"swapped_pitches":[1,6,4,9,6,11,13,6,9,1,4,6],"shift_direction":1,"question_num":31,"has_decoy":false},{"rt":1258.3999999985099,"stimulus":"[A] option 1, [L] option 2, [G] neither","key_press":76,"name":"choice","trial_type":"html-keyboard-response","trial_index":54,"time_elapsed":115167,"internal_node_id":"0.0-54.0","subject":"S1C1234","sona":"41485","block":2,"time":"2021-09-18T01:40:03.438Z","response":"2nd","certainty":"high","char":"L","transposition":2,"order":["shifted","swapped"],"probe_pitches":[7,5,3,2,11,12,9,2,13,12,11,3],"shifted_pitches":[7,5,3,2,11,12,10,2,13,12,11,3],"swapped_pitches":[7,5,3,2,11,9,12,2,13,12,11,3],"shift_direction":1,"question_num":41,"has_decoy":false},{"rt":1023.3999999985099,"stimulus":"[A] option 1, [L] option 2, [G] neither","key_press":76,"name":"choice","trial_type":"html-keyboard-response","trial_index":65,"time_elapsed":135883,"internal_node_id":"0.0-65.0","subject":"S1C1234","sona":"41485","block":2,"time":"2021-09-18T01:40:03.438Z","response":"2nd","certainty":"high","char":"L","transposition":3,"order":["swapped","shifted"],"probe_pitches":[8,6,1,3,1,3,10,13,3,6,3,6],"shifted_pitches":[8,6,1,3,1,3,9,13,3,6,3,6],"swapped_pitches":[8,6,1,3,1,10,3,13,3,6,3,6],"shift_direction":-1,"question_num":51,"has_decoy":false},{"rt":1058.6000000014901,"stimulus":"[A] option 1, [L] option 2, [G] neither","key_press":76,"name":"choice","trial_type":"html-keyboard-response","trial_index":76,"time_elapsed":158592,"internal_node_id":"0.0-76.0","subject":"S1C1234","sona":"41485","block":2,"time":"2021-09-18T01:40:03.438Z","response":"2nd","certainty":"high","char":"L","transposition":0,"order":["shifted","swapped"],"probe_pitches":[11,12,9,13,7,12,5,9,7,10,11,5],"shifted_pitches":[11,12,9,13,7,12,4,9,7,10,11,5],"swapped_pitches":[11,12,9,13,7,5,12,9,7,10,11,5],"shift_direction":-1,"question_num":61,"has_decoy":false},{"rt":534,"stimulus":"[A] option 1, [L] option 2, [G] neither","key_press":65,"name":"choice","trial_type":"html-keyboard-response","trial_index":87,"time_elapsed":179202,"internal_node_id":"0.0-87.0","subject":"S1C1234","sona":"41485","block":2,"time":"2021-09-18T01:40:03.438Z","response":"1st","certainty":"high","char":"A","transposition":-3,"order":["shifted","swapped"],"probe_pitches":[6,10,8,2,5,13,11,6,13,10,3,6],"shifted_pitches":[6,10,8,2,5,12,11,6,13,10,3,6],"swapped_pitches":[6,10,8,2,5,11,13,6,13,10,3,6],"shift_direction":-1,"question_num":71,"has_decoy":false},{"rt":1178.8999999985099,"stimulus":"[A] option 1, [L] option 2, [G] neither","key_press":65,"name":"choice","trial_type":"html-keyboard-response","trial_index":98,"time_elapsed":201504,"internal_node_id":"0.0-98.0","subject":"S1C1234","sona":"41485","block":2,"time":"2021-09-18T01:40:03.438Z","response":"1st","certainty":"high","char":"A","transposition":-1,"order":["swapped","shifted"],"probe_pitches":[3,8,9,3,2,10,4,9,6,9,12,10],"shifted_pitches":[3,8,9,3,2,11,4,9,6,9,12,10],"swapped_pitches":[3,8,9,3,2,4,10,9,6,9,12,10],"shift_direction":1,"question_num":81,"has_decoy":false},{"rt":1204.7000000029802,"stimulus":"[A] option 1, [L] option 2, [G] neither","key_press":65,"name":"choice","trial_type":"html-keyboard-response","trial_index":109,"time_elapsed":222089,"internal_node_id":"0.0-109.0","subject":"S1C1234","sona":"41485","block":2,"time":"2021-09-18T01:40:03.438Z","response":"1st","certainty":"high","char":"A","transposition":-3,"order":["shifted","swapped"],"probe_pitches":[10,8,3,1,5,3,8,10,1,5,3,8],"shifted_pitches":[10,8,3,1,5,4,8,10,1,5,3,8],"swapped_pitches":[10,8,3,1,5,8,3,10,1,5,3,8],"shift_direction":1,"question_num":91,"has_decoy":false},{"rt":759.2999999970198,"stimulus":"[A] option 1, [L] option 2, [G] neither","key_press":76,"name":"choice","trial_type":"html-keyboard-response","trial_index":120,"time_elapsed":243146,"internal_node_id":"0.0-120.0","subject":"S1C1234","sona":"41485","block":2,"time":"2021-09-18T01:40:03.438Z","response":"2nd","certainty":"high","char":"L","transposition":-2,"order":["shifted","swapped"],"probe_pitches":[9,12,9,5,3,5,7,4,13,12,9,4],"shifted_pitches":[9,12,9,5,3,5,8,4,13,12,9,4],"swapped_pitches":[9,12,9,5,3,7,5,4,13,12,9,4],"shift_direction":1,"question_num":101,"has_decoy":false},{"rt":3650.60000000149,"stimulus":"[A] option 1, [L] option 2, [G] neither","key_press":76,"name":"choice","trial_type":"html-keyboard-response","trial_index":131,"time_elapsed":266804,"internal_node_id":"0.0-131.0","subject":"S1C1234","sona":"41485","block":2,"time":"2021-09-18T01:40:03.438Z","response":"2nd","certainty":"high","char":"L","transposition":1,"order":["shifted","swapped"],"probe_pitches":[13,11,10,8,14,9,8,3,5,12,6,8],"shifted_pitches":[13,11,10,8,14,9,7,3,5,12,6,8],"swapped_pitches":[13,11,10,8,14,8,9,3,5,12,6,8],"shift_direction":-1,"question_num":111,"has_decoy":false},{"rt":2797.10000000149,"stimulus":"[A] option 1, [L] option 2, [G] neither","key_press":65,"name":"choice","trial_type":"html-keyboard-response","trial_index":142,"time_elapsed":288819,"internal_node_id":"0.0-142.0","subject":"S1C1234","sona":"41485","block":2,"time":"2021-09-18T01:40:03.438Z","response":"1st","certainty":"high","char":"A","transposition":-2,"order":["swapped","shifted"],"probe_pitches":[6,4,8,11,6,8,4,11,8,11,13,6],"shifted_pitches":[6,4,8,11,6,9,4,11,8,11,13,6],"swapped_pitches":[6,4,8,11,6,4,8,11,8,11,13,6],"shift_direction":1,"question_num":121,"has_decoy":false},{"rt":581.8999999985099,"stimulus":"[A] option 1, [L] option 2, [G] neither","key_press":76,"name":"choice","trial_type":"html-keyboard-response","trial_index":153,"time_elapsed":308469,"internal_node_id":"0.0-153.0","subject":"S1C1234","sona":"41485","block":2,"time":"2021-09-18T01:40:03.438Z","response":"2nd","certainty":"high","char":"L","transposition":-1,"order":["swapped","shifted"],"probe_pitches":[1,6,11,13,8,6,13,4,6,8,4,1],"shifted_pitches":[1,6,11,13,8,5,13,4,6,8,4,1],"swapped_pitches":[1,6,11,13,8,13,6,4,6,8,4,1],"shift_direction":-1,"question_num":131,"has_decoy":false},{"rt":3649.39999999851,"stimulus":"[A] option 1, [L] option 2, [G] neither","key_press":76,"name":"choice","trial_type":"html-keyboard-response","trial_index":164,"time_elapsed":331610,"internal_node_id":"0.0-164.0","subject":"S1C1234","sona":"41485","block":2,"time":"2021-09-18T01:40:03.438Z","response":"2nd","certainty":"high","char":"L","transposition":-3,"order":["shifted","swapped"],"probe_pitches":[13,8,11,3,1,11,6,13,11,3,11,1],"shifted_pitches":[13,8,11,3,1,11,5,13,11,3,11,1],"swapped_pitches":[13,8,11,3,1,6,11,13,11,3,11,1],"shift_direction":-1,"question_num":141,"has_decoy":false},{"rt":1145.8999999985099,"stimulus":"[A] option 1, [L] option 2, [G] neither","key_press":76,"name":"choice","trial_type":"html-keyboard-response","trial_index":175,"time_elapsed":352017,"internal_node_id":"0.0-175.0","subject":"S1C1234","sona":"41485","block":2,"time":"2021-09-18T01:40:03.438Z","response":"2nd","certainty":"high","char":"L","transposition":-3,"order":["swapped","shifted"],"probe_pitches":[4,2,3,10,4,6,7,10,13,6,2,6],"shifted_pitches":[4,2,3,10,4,5,7,10,13,6,2,6],"swapped_pitches":[4,2,3,10,4,7,6,10,13,6,2,6],"shift_direction":-1,"question_num":151,"has_decoy":false},{"rt":1576.3000000044703,"stimulus":"[A] option 1, [L] option 2, [G] neither","key_press":65,"name":"choice","trial_type":"html-keyboard-response","trial_index":186,"time_elapsed":372527,"internal_node_id":"0.0-186.0","subject":"S1C1234","sona":"41485","block":2,"time":"2021-09-18T01:40:03.438Z","response":"1st","certainty":"high","char":"A","transposition":0,"order":["swapped","shifted"],"probe_pitches":[9,4,6,4,13,9,6,13,11,6,11,13],"shifted_pitches":[9,4,6,4,13,8,6,13,11,6,11,13],"swapped_pitches":[9,4,6,4,13,6,9,13,11,6,11,13],"shift_direction":-1,"question_num":161,"has_decoy":false},{"rt":614.8999999985099,"stimulus":"[A] option 1, [L] option 2, [G] neither","key_press":65,"name":"choice","trial_type":"html-keyboard-response","trial_index":197,"time_elapsed":392423,"internal_node_id":"0.0-197.0","subject":"S1C1234","sona":"41485","block":2,"time":"2021-09-18T01:40:03.438Z","response":"1st","certainty":"high","char":"A","transposition":2,"order":["shifted","swapped"],"probe_pitches":[13,8,3,8,11,6,1,8,13,11,8,11],"shifted_pitches":[13,8,3,8,11,6,2,8,13,11,8,11],"swapped_pitches":[13,8,3,8,11,1,6,8,13,11,8,11],"shift_direction":1,"question_num":171,"has_decoy":false},{"rt":681.1000000014901,"stimulus":"[A] option 1, [L] option 2, [G] neither","key_press":65,"name":"choice","trial_type":"html-keyboard-response","trial_index":208,"time_elapsed":412349,"internal_node_id":"0.0-208.0","subject":"S1C1234","sona":"41485","block":2,"time":"2021-09-18T01:40:03.438Z","response":"1st","certainty":"high","char":"A","transposition":-1,"order":["swapped","shifted"],"probe_pitches":[5,8,6,4,3,12,11,9,4,8,12,8],"shifted_pitches":[5,8,6,4,3,13,11,9,4,8,12,8],"swapped_pitches":[5,8,6,4,3,11,12,9,4,8,12,8],"shift_direction":1,"question_num":181,"has_decoy":false},{"rt":2824.2000000029802,"stimulus":"[A] option 1, [L] option 2, [G] neither","key_press":65,"name":"choice","trial_type":"html-keyboard-response","trial_index":219,"time_elapsed":434598,"internal_node_id":"0.0-219.0","subject":"S1C1234","sona":"41485","block":2,"time":"2021-09-18T01:40:03.438Z","response":"1st","certainty":"high","char":"A","transposition":-2,"order":["shifted","swapped"],"probe_pitches":[13,8,13,8,3,6,1,3,1,10,3,8],"shifted_pitches":[13,8,13,8,3,6,0,3,1,10,3,8],"swapped_pitches":[13,8,13,8,3,1,6,3,1,10,3,8],"shift_direction":-1,"question_num":191,"has_decoy":false}]