[{"rt":5933.60000000149,"stimulus":"[A] option 1, [L] option 2, [G] neither","key_press":65,"name":"choice","trial_type":"html-keyboard-response","trial_index":10,"time_elapsed":29073,"internal_node_id":"0.0-10.0","subject":"S1C1234","sona":"41485","block":6,"time":"2021-09-18T02:11:50.779Z","response":"1st","certainty":"high","char":"A","transposition":-2,"order":["swapped","shifted"],"probe_pitches":[7,2,7,-1,-3,4,7,2,-3,9,-3,7],"shifted_pitches":[7,2,7,-1,-3,4,6,2,-3,9,-3,7],"swapped_pitches":[7,2,7,-1,-3,7,4,2,-3,9,-3,7],"shift_direction":-1,"question_num":1,"has_decoy":false},{"rt":9630.19999999553,"stimulus":"[A] option 1, [L] option 2, [G] neither","key_press":76,"name":"choice","trial_type":"html-keyboard-response","trial_index":21,"time_elapsed":59734,"internal_node_id":"0.0-21.0","subject":"S1C1234","sona":"41485","block":6,"time":"2021-09-18T02:11:50.779Z","response":"2nd","certainty":"high","char":"L","transposition":-1,"order":["swapped","shifted"],"probe_pitches":[3,-2,-1,7,1,7,-1,10,2,9,1,-2],"shifted_pitches":[3,-2,-1,7,1,7,0,10,2,9,1,-2],"swapped_pitches":[3,-2,-1,7,1,-1,7,10,2,9,1,-2],"shift_direction":1,"question_num":11,"has_decoy":false},{"rt":1349.5,"stimulus":"[A] option 1, [L] option 2, [G] neither","key_press":76,"name":"choice","trial_type":"html-keyboard-response","trial_index":32,"time_elapsed":80076,"internal_node_id":"0.0-32.0","subject":"S1C1234","sona":"41485","block":6,"time":"2021-09-18T02:11:50.779Z","response":"2nd","certainty":"high","char":"L","transposition":3,"order":["shifted","swapped"],"probe_pitches":[-3,-1,1,-1,6,1,-1,4,-1,4,6,-3],"shifted_pitches":[-3,-1,1,-1,6,1,0,4,-1,4,6,-3],"swapped_pitches":[-3,-1,1,-1,6,-1,1,4,-1,4,6,-3],"shift_direction":1,"question_num":21,"has_decoy":false},{"rt":1375.7999999970198,"stimulus":"[A] option 1, [L] option 2, [G] neither","key_press":65,"name":"choice","trial_type":"html-keyboard-response","trial_index":43,"time_elapsed":100347,"internal_node_id":"0.0-43.0","subject":"S1C1234","sona":"41485","block":6,"time":"2021-09-18T02:11:50.779Z","response":"1st","certainty":"high","char":"A","transposition":-2,"order":["swapped","shifted"],"probe_pitches":[5,3,2,0,-2,2,9,1,0,1,5,2],"shifted_pitches":[5,3,2,0,-2,2,8,1,0,1,5,2],"swapped_pitches":[5,3,2,0,-2,9,2,1,0,1,5,2],"shift_direction":-1,"question_num":31,"has_decoy":false},{"rt":3062.2000000029802,"stimulus":"[A] option 1, [L] option 2, [G] neither","key_press":76,"name":"choice","trial_type":"html-keyboard-response","trial_index":54,"time_elapsed":122848,"internal_node_id":"0.0-54.0","subject":"S1C1234","sona":"41485","block":6,"time":"2021-09-18T02:11:50.779Z","response":"2nd","certainty":"high","char":"L","transposition":-1,"order":["swapped","shifted"],"probe_pitches":[8,3,1,0,9,1,-2,6,4,7,1,8],"shifted_pitches":[8,3,1,0,9,2,-2,6,4,7,1,8],"swapped_pitches":[8,3,1,0,9,-2,1,6,4,7,1,8],"shift_direction":1,"question_num":41,"has_decoy":false},{"rt":726.7999999970198,"stimulus":"[A] option 1, [L] option 2, [G] neither","key_press":76,"name":"choice","trial_type":"html-keyboard-response","trial_index":65,"time_elapsed":142874,"internal_node_id":"0.0-65.0","subject":"S1C1234","sona":"41485","block":6,"time":"2021-09-18T02:11:50.779Z","response":"2nd","certainty":"high","char":"L","transposition":3,"order":["swapped","shifted"],"probe_pitches":[3,8,2,5,3,8,-2,3,6,2,-1,10],"shifted_pitches":[3,8,2,5,3,9,-2,3,6,2,-1,10],"swapped_pitches":[3,8,2,5,3,-2,8,3,6,2,-1,10],"shift_direction":1,"question_num":51,"has_decoy":false},{"rt":464.3999999985099,"stimulus":"[A] option 1, [L] option 2, [G] neither","key_press":65,"name":"choice","trial_type":"html-keyboard-response","trial_index":76,"time_elapsed":163021,"internal_node_id":"0.0-76.0","subject":"S1C1234","sona":"41485","block":6,"time":"2021-09-18T02:11:50.779Z","response":"1st","certainty":"high","char":"A","transposition":2,"order":["shifted","swapped"],"probe_pitches":[-3,-1,-3,-1,4,9,6,2,9,-1,9,6],"shifted_pitches":[-3,-1,-3,-1,4,8,6,2,9,-1,9,6],"swapped_pitches":[-3,-1,-3,-1,4,6,9,2,9,-1,9,6],"shift_direction":-1,"question_num":61,"has_decoy":false},{"rt":915.6000000014901,"stimulus":"[A] option 1, [L] option 2, [G] neither","key_press":76,"name":"choice","trial_type":"html-keyboard-response","trial_index":87,"time_elapsed":183071,"internal_node_id":"0.0-87.0","subject":"S1C1234","sona":"41485","block":6,"time":"2021-09-18T02:11:50.779Z","response":"2nd","certainty":"high","char":"L","transposition":0,"order":["shifted","swapped"],"probe_pitches":[10,5,2,5,2,5,-2,8,-2,9,1,3],"shifted_pitches":[10,5,2,5,2,4,-2,8,-2,9,1,3],"swapped_pitches":[10,5,2,5,2,-2,5,8,-2,9,1,3],"shift_direction":-1,"question_num":71,"has_decoy":false},{"rt":2593.3000000044703,"stimulus":"[A] option 1, [L] option 2, [G] neither","key_press":65,"name":"choice","trial_type":"html-keyboard-response","trial_index":98,"time_elapsed":205009,"internal_node_id":"0.0-98.0","subject":"S1C1234","sona":"41485","block":6,"time":"2021-09-18T02:11:50.779Z","response":"1st","certainty":"high","char":"A","transposition":-1,"order":["shifted","swapped"],"probe_pitches":[6,4,6,1,6,-1,-3,6,1,4,-3,-1],"shifted_pitches":[6,4,6,1,6,-1,-4,6,1,4,-3,-1],"swapped_pitches":[6,4,6,1,6,-3,-1,6,1,4,-3,-1],"shift_direction":-1,"question_num":81,"has_decoy":false},{"rt":438.79999999701977,"stimulus":"[A] option 1, [L] option 2, [G] neither","key_press":76,"name":"choice","trial_type":"html-keyboard-response","trial_index":109,"time_elapsed":224518,"internal_node_id":"0.0-109.0","subject":"S1C1234","sona":"41485","block":6,"time":"2021-09-18T02:11:50.779Z","response":"2nd","certainty":"high","char":"L","transposition":0,"order":["swapped","shifted"],"probe_pitches":[2,-3,2,-3,0,9,5,0,2,7,-3,7],"shifted_pitches":[2,-3,2,-3,0,9,6,0,2,7,-3,7],"swapped_pitches":[2,-3,2,-3,0,5,9,0,2,7,-3,7],"shift_direction":1,"question_num":91,"has_decoy":false},{"rt":4542.79999999702,"stimulus":"[A] option 1, [L] option 2, [G] neither","key_press":76,"name":"choice","trial_type":"html-keyboard-response","trial_index":120,"time_elapsed":249357,"internal_node_id":"0.0-120.0","subject":"S1C1234","sona":"41485","block":6,"time":"2021-09-18T02:11:50.779Z","response":"2nd","certainty":"high","char":"L","transposition":-3,"order":["shifted","swapped"],"probe_pitches":[-2,2,5,-2,5,2,4,0,5,-1,7,5],"shifted_pitches":[-2,2,5,-2,5,3,4,0,5,-1,7,5],"swapped_pitches":[-2,2,5,-2,5,4,2,0,5,-1,7,5],"shift_direction":1,"question_num":101,"has_decoy":false},{"rt":1054.6000000014901,"stimulus":"[A] option 1, [L] option 2, [G] neither","key_press":65,"name":"choice","trial_type":"html-keyboard-response","trial_index":131,"time_elapsed":269612,"internal_node_id":"0.0-131.0","subject":"S1C1234","sona":"41485","block":6,"time":"2021-09-18T02:11:50.779Z","response":"1st","certainty":"high","char":"A","transposition":-2,"order":["shifted","swapped"],"probe_pitches":[-2,4,5,10,2,7,-2,5,3,9,1,9],"shifted_pitches":[-2,4,5,10,2,6,-2,5,3,9,1,9],"swapped_pitches":[-2,4,5,10,2,-2,7,5,3,9,1,9],"shift_direction":-1,"question_num":111,"has_decoy":false},{"rt":1242.2000000029802,"stimulus":"[A] option 1, [L] option 2, [G] neither","key_press":76,"name":"choice","trial_type":"html-keyboard-response","trial_index":142,"time_elapsed":290086,"internal_node_id":"0.0-142.0","subject":"S1C1234","sona":"41485","block":6,"time":"2021-09-18T02:11:50.779Z","response":"2nd","certainty":"high","char":"L","transposition":-2,"order":["swapped","shifted"],"probe_pitches":[2,0,-3,0,9,4,2,9,7,2,4,0],"shifted_pitches":[2,0,-3,0,9,5,2,9,7,2,4,0],"swapped_pitches":[2,0,-3,0,9,2,4,9,7,2,4,0],"shift_direction":1,"question_num":121,"has_decoy":false},{"rt":2343.8000000044703,"stimulus":"[A] option 1, [L] option 2, [G] neither","key_press":76,"name":"choice","trial_type":"html-keyboard-response","trial_index":153,"time_elapsed":311368,"internal_node_id":"0.0-153.0","subject":"S1C1234","sona":"41485","block":6,"time":"2021-09-18T02:11:50.779Z","response":"2nd","certainty":"high","char":"L","transposition":-3,"order":["shifted","swapped"],"probe_pitches":[4,9,2,-1,-3,-1,9,7,4,9,-1,7],"shifted_pitches":[4,9,2,-1,-3,-2,9,7,4,9,-1,7],"swapped_pitches":[4,9,2,-1,-3,9,-1,7,4,9,-1,7],"shift_direction":-1,"question_num":131,"has_decoy":false},{"rt":1645.2000000029802,"stimulus":"[A] option 1, [L] option 2, [G] neither","key_press":76,"name":"choice","trial_type":"html-keyboard-response","trial_index":164,"time_elapsed":331511,"internal_node_id":"0.0-164.0","subject":"S1C1234","sona":"41485","block":6,"time":"2021-09-18T02:11:50.779Z","response":"2nd","certainty":"high","char":"L","transposition":1,"order":["shifted","swapped"],"probe_pitches":[4,2,8,7,5,-1,2,7,-1,7,8,7],"shifted_pitches":[4,2,8,7,5,-1,1,7,-1,7,8,7],"swapped_pitches":[4,2,8,7,5,2,-1,7,-1,7,8,7],"shift_direction":-1,"question_num":141,"has_decoy":false},{"rt":3001.0999999940395,"stimulus":"[A] option 1, [L] option 2, [G] neither","key_press":76,"name":"choice","trial_type":"html-keyboard-response","trial_index":175,"time_elapsed":353170,"internal_node_id":"0.0-175.0","subject":"S1C1234","sona":"41485","block":6,"time":"2021-09-18T02:11:50.779Z","response":"2nd","certainty":"high","char":"L","transposition":-3,"order":["shifted","swapped"],"probe_pitches":[9,6,4,2,9,2,6,-1,9,6,-3,-1],"shifted_pitches":[9,6,4,2,9,2,7,-1,9,6,-3,-1],"swapped_pitches":[9,6,4,2,9,6,2,-1,9,6,-3,-1],"shift_direction":1,"question_num":151,"has_decoy":false},{"rt":1382.6000000014901,"stimulus":"[A] option 1, [L] option 2, [G] neither","key_press":76,"name":"choice","trial_type":"html-keyboard-response","trial_index":186,"time_elapsed":373929,"internal_node_id":"0.0-186.0","subject":"S1C1234","sona":"41485","block":6,"time":"2021-09-18T02:11:50.779Z","response":"2nd","certainty":"high","char":"L","transposition":-3,"order":["swapped","shifted"],"probe_pitches":[-2,1,0,8,3,4,6,3,-1,9,10,9],"shifted_pitches":[-2,1,0,8,3,4,7,3,-1,9,10,9],"swapped_pitches":[-2,1,0,8,3,6,4,3,-1,9,10,9],"shift_direction":1,"question_num":161,"has_decoy":false},{"rt":1184.5,"stimulus":"[A] option 1, [L] option 2, [G] neither","key_press":76,"name":"choice","trial_type":"html-keyboard-response","trial_index":197,"time_elapsed":393570,"internal_node_id":"0.0-197.0","subject":"S1C1234","sona":"41485","block":6,"time":"2021-09-18T02:11:50.779Z","response":"2nd","certainty":"high","char":"L","transposition":-1,"order":["swapped","shifted"],"probe_pitches":[9,7,4,2,9,7,4,0,9,-3,2,4],"shifted_pitches":[9,7,4,2,9,6,4,0,9,-3,2,4],"swapped_pitches":[9,7,4,2,9,4,7,0,9,-3,2,4],"shift_direction":-1,"question_num":171,"has_decoy":false},{"rt":2748,"stimulus":"[A] option 1, [L] option 2, [G] neither","key_press":65,"name":"choice","trial_type":"html-keyboard-response","trial_index":208,"time_elapsed":415602,"internal_node_id":"0.0-208.0","subject":"S1C1234","sona":"41485","block":6,"time":"2021-09-18T02:11:50.779Z","response":"1st","certainty":"high","char":"A","transposition":2,"order":["shifted","swapped"],"probe_pitches":[7,9,7,2,4,-2,6,8,-2,0,-2,3],"shifted_pitches":[7,9,7,2,4,-2,5,8,-2,0,-2,3],"swapped_pitches":[7,9,7,2,4,6,-2,8,-2,0,-2,3],"shift_direction":-1,"question_num":181,"has_decoy":false},{"rt":490.5,"stimulus":"[A] option 1, [L] option 2, [G] neither","key_press":76,"name":"choice","trial_type":"html-keyboard-response","trial_index":219,"time_elapsed":435221,"internal_node_id":"0.0-219.0","subject":"S1C1234","sona":"41485","block":6,"time":"2021-09-18T02:11:50.779Z","response":"2nd","certainty":"high","char":"L","transposition":1,"order":["swapped","shifted"],"probe_pitches":[0,-3,2,-3,5,7,-3,9,5,0,2,7],"shifted_pitches":[0,-3,2,-3,5,8,-3,9,5,0,2,7],"swapped_pitches":[0,-3,2,-3,5,-3,7,9,5,0,2,7],"shift_direction":1,"question_num":191,"has_decoy":false}]