[{"rt":15724,"stimulus":"[A] option 1, [L] option 2, [G] neither","key_press":65,"name":"choice","trial_type":"html-keyboard-response","trial_index":15,"time_elapsed":154034,"internal_node_id":"0.0-15.0","response":"1st","certainty":"high","char":"A","transposition":3,"order":["swapped","shifted"],"probe_pitches":[15,10,15,13,8,6,3,10,3,13,6,10],"shifted_pitches":[15,10,15,13,8,5,3,10,3,13,6,10],"swapped_pitches":[15,10,15,13,8,3,6,10,3,13,6,10],"shift_direction":-1,"question_num":1,"has_decoy":false,"subject":"S1C1234","sona":"41485","block":1,"time":"2021-09-18T01:32:44.716Z"},{"rt":6204.5,"stimulus":"[A] option 1, [L] option 2, [G] neither","key_press":76,"name":"choice","trial_type":"html-keyboard-response","trial_index":26,"time_elapsed":182214,"internal_node_id":"0.0-26.0","response":"2nd","certainty":"high","char":"L","transposition":1,"order":["shifted","swapped"],"probe_pitches":[3,1,4,-1,0,7,4,9,5,-1,3,0],"shifted_pitches":[3,1,4,-1,0,6,4,9,5,-1,3,0],"swapped_pitches":[3,1,4,-1,0,4,7,9,5,-1,3,0],"shift_direction":-1,"question_num":11,"has_decoy":false,"subject":"S1C1234","sona":"41485","block":1,"time":"2021-09-18T01:32:44.716Z"},{"rt":4319.60000000149,"stimulus":"[A] option 1, [L] option 2, [G] neither","key_press":65,"name":"choice","trial_type":"html-keyboard-response","trial_index":37,"time_elapsed":206812,"internal_node_id":"0.0-37.0","response":"1st","certainty":"high","char":"A","transposition":-2,"order":["swapped","shifted"],"probe_pitches":[-1,1,-1,2,6,8,4,1,7,-1,11,9],"shifted_pitches":[-1,1,-1,2,6,8,5,1,7,-1,11,9],"swapped_pitches":[-1,1,-1,2,6,4,8,1,7,-1,11,9],"shift_direction":1,"question_num":21,"has_decoy":false,"subject":"S1C1234","sona":"41485","block":1,"time":"2021-09-18T01:32:44.716Z"},{"rt":3351.3000000044703,"stimulus":"[A] option 1, [L] option 2, [G] neither","key_press":65,"name":"choice","trial_type":"html-keyboard-response","trial_index":48,"time_elapsed":231086,"internal_node_id":"0.0-48.0","response":"1st","certainty":"high","char":"A","transposition":-2,"order":["shifted","swapped"],"probe_pitches":[13,8,13,5,10,5,8,10,13,5,3,8],"shifted_pitches":[13,8,13,5,10,4,8,10,13,5,3,8],"swapped_pitches":[13,8,13,5,10,8,5,10,13,5,3,8],"shift_direction":-1,"question_num":31,"has_decoy":false,"subject":"S1C1234","sona":"41485","block":1,"time":"2021-09-18T01:32:44.716Z"},{"rt":1810.7999999970198,"stimulus":"[A] option 1, [L] option 2, [G] neither","key_press":76,"name":"choice","trial_type":"html-keyboard-response","trial_index":59,"time_elapsed":253112,"internal_node_id":"0.0-59.0","response":"2nd","certainty":"high","char":"L","transposition":-2,"order":["shifted","swapped"],"probe_pitches":[1,-1,0,5,6,-1,4,5,8,2,6,2],"shifted_pitches":[1,-1,0,5,6,-1,3,5,8,2,6,2],"swapped_pitches":[1,-1,0,5,6,4,-1,5,8,2,6,2],"shift_direction":-1,"question_num":41,"has_decoy":false,"subject":"S1C1234","sona":"41485","block":1,"time":"2021-09-18T01:32:44.716Z"},{"rt":2081.89999999851,"stimulus":"[A] option 1, [L] option 2, [G] neither","key_press":65,"name":"choice","trial_type":"html-keyboard-response","trial_index":70,"time_elapsed":275799,"internal_node_id":"0.0-70.0","response":"1st","certainty":"high","char":"A","transposition":0,"order":["shifted","swapped"],"probe_pitches":[5,10,12,7,5,15,10,12,5,7,5,10],"shifted_pitches":[5,10,12,7,5,15,11,12,5,7,5,10],"swapped_pitches":[5,10,12,7,5,10,15,12,5,7,5,10],"shift_direction":1,"question_num":51,"has_decoy":false,"subject":"S1C1234","sona":"41485","block":1,"time":"2021-09-18T01:32:44.716Z"},{"rt":3047.2000000029802,"stimulus":"[A] option 1, [L] option 2, [G] neither","key_press":76,"name":"choice","trial_type":"html-keyboard-response","trial_index":81,"time_elapsed":300004,"internal_node_id":"0.0-81.0","response":"2nd","certainty":"high","char":"L","transposition":-2,"order":["swapped","shifted"],"probe_pitches":[8,3,6,8,3,6,15,3,13,3,11,3],"shifted_pitches":[8,3,6,8,3,5,15,3,13,3,11,3],"swapped_pitches":[8,3,6,8,3,15,6,3,13,3,11,3],"shift_direction":-1,"question_num":61,"has_decoy":false,"subject":"S1C1234","sona":"41485","block":1,"time":"2021-09-18T01:32:44.716Z"},{"rt":3238.3000000044703,"stimulus":"[A] option 1, [L] option 2, [G] neither","key_press":76,"name":"choice","trial_type":"html-keyboard-response","trial_index":92,"time_elapsed":324396,"internal_node_id":"0.0-92.0","response":"2nd","certainty":"high","char":"L","transposition":-3,"order":["shifted","swapped"],"probe_pitches":[7,3,7,12,10,15,5,3,10,5,10,15],"shifted_pitches":[7,3,7,12,10,15,6,3,10,5,10,15],"swapped_pitches":[7,3,7,12,10,5,15,3,10,5,10,15],"shift_direction":1,"question_num":71,"has_decoy":false,"subject":"S1C1234","sona":"41485","block":1,"time":"2021-09-18T01:32:44.716Z"},{"rt":3061.9000000059605,"stimulus":"[A] option 1, [L] option 2, [G] neither","key_press":76,"name":"choice","trial_type":"html-keyboard-response","trial_index":103,"time_elapsed":348517,"internal_node_id":"0.0-103.0","response":"2nd","certainty":"high","char":"L","transposition":-1,"order":["shifted","swapped"],"probe_pitches":[8,11,5,7,9,0,7,10,0,4,2,9],"shifted_pitches":[8,11,5,7,9,1,7,10,0,4,2,9],"swapped_pitches":[8,11,5,7,9,7,0,10,0,4,2,9],"shift_direction":1,"question_num":81,"has_decoy":false,"subject":"S1C1234","sona":"41485","block":1,"time":"2021-09-18T01:32:44.716Z"},{"rt":8282.59999999404,"stimulus":"[A] option 1, [L] option 2, [G] neither","key_press":76,"name":"choice","trial_type":"html-keyboard-response","trial_index":114,"time_elapsed":378072,"internal_node_id":"0.0-114.0","response":"2nd","certainty":"high","char":"L","transposition":-1,"order":["swapped","shifted"],"probe_pitches":[8,11,8,13,6,13,15,3,15,11,13,15],"shifted_pitches":[8,11,8,13,6,12,15,3,15,11,13,15],"swapped_pitches":[8,11,8,13,6,15,13,3,15,11,13,15],"shift_direction":-1,"question_num":91,"has_decoy":false,"subject":"S1C1234","sona":"41485","block":1,"time":"2021-09-18T01:32:44.716Z"},{"rt":1951.7000000029802,"stimulus":"[A] option 1, [L] option 2, [G] neither","key_press":76,"name":"choice","trial_type":"html-keyboard-response","trial_index":125,"time_elapsed":402252,"internal_node_id":"0.0-125.0","response":"2nd","certainty":"high","char":"L","transposition":-3,"order":["swapped","shifted"],"probe_pitches":[10,4,10,5,2,11,6,5,3,0,6,9],"shifted_pitches":[10,4,10,5,2,11,7,5,3,0,6,9],"swapped_pitches":[10,4,10,5,2,6,11,5,3,0,6,9],"shift_direction":1,"question_num":101,"has_decoy":false,"subject":"S1C1234","sona":"41485","block":1,"time":"2021-09-18T01:32:44.716Z"},{"rt":1679.2000000029802,"stimulus":"[A] option 1, [L] option 2, [G] neither","key_press":76,"name":"choice","trial_type":"html-keyboard-response","trial_index":136,"time_elapsed":425141,"internal_node_id":"0.0-136.0","response":"2nd","certainty":"high","char":"L","transposition":-1,"order":["swapped","shifted"],"probe_pitches":[13,8,13,10,5,8,13,15,5,8,13,10],"shifted_pitches":[13,8,13,10,5,8,14,15,5,8,13,10],"swapped_pitches":[13,8,13,10,5,13,8,15,5,8,13,10],"shift_direction":1,"question_num":111,"has_decoy":false,"subject":"S1C1234","sona":"41485","block":1,"time":"2021-09-18T01:32:44.716Z"},{"rt":1393.6999999955297,"stimulus":"[A] option 1, [L] option 2, [G] neither","key_press":65,"name":"choice","trial_type":"html-keyboard-response","trial_index":147,"time_elapsed":447622,"internal_node_id":"0.0-147.0","response":"1st","certainty":"high","char":"A","transposition":2,"order":["shifted","swapped"],"probe_pitches":[6,1,6,9,11,9,6,3,8,11,0,5],"shifted_pitches":[6,1,6,9,11,10,6,3,8,11,0,5],"swapped_pitches":[6,1,6,9,11,6,9,3,8,11,0,5],"shift_direction":1,"question_num":121,"has_decoy":false,"subject":"S1C1234","sona":"41485","block":1,"time":"2021-09-18T01:32:44.716Z"},{"rt":2734.39999999851,"stimulus":"[A] option 1, [L] option 2, [G] neither","key_press":65,"name":"choice","trial_type":"html-keyboard-response","trial_index":158,"time_elapsed":470183,"internal_node_id":"0.0-158.0","response":"1st","certainty":"high","char":"A","transposition":-1,"order":["shifted","swapped"],"probe_pitches":[0,5,10,3,11,7,3,2,3,-1,1,9],"shifted_pitches":[0,5,10,3,11,8,3,2,3,-1,1,9],"swapped_pitches":[0,5,10,3,11,3,7,2,3,-1,1,9],"shift_direction":1,"question_num":131,"has_decoy":false,"subject":"S1C1234","sona":"41485","block":1,"time":"2021-09-18T01:32:44.716Z"},{"rt":804.2999999970198,"stimulus":"[A] option 1, [L] option 2, [G] neither","key_press":76,"name":"choice","trial_type":"html-keyboard-response","trial_index":169,"time_elapsed":490662,"internal_node_id":"0.0-169.0","response":"2nd","certainty":"high","char":"L","transposition":-3,"order":["shifted","swapped"],"probe_pitches":[8,3,8,12,3,12,15,5,10,12,15,5],"shifted_pitches":[8,3,8,12,3,12,14,5,10,12,15,5],"swapped_pitches":[8,3,8,12,3,15,12,5,10,12,15,5],"shift_direction":-1,"question_num":141,"has_decoy":false,"subject":"S1C1234","sona":"41485","block":1,"time":"2021-09-18T01:32:44.716Z"},{"rt":1122.1000000014901,"stimulus":"[A] option 1, [L] option 2, [G] neither","key_press":76,"name":"choice","trial_type":"html-keyboard-response","trial_index":180,"time_elapsed":511176,"internal_node_id":"0.0-180.0","response":"2nd","certainty":"high","char":"L","transposition":0,"order":["swapped","shifted"],"probe_pitches":[6,0,4,0,1,10,3,-1,6,7,0,9],"shifted_pitches":[6,0,4,0,1,10,2,-1,6,7,0,9],"swapped_pitches":[6,0,4,0,1,3,10,-1,6,7,0,9],"shift_direction":-1,"question_num":151,"has_decoy":false,"subject":"S1C1234","sona":"41485","block":1,"time":"2021-09-18T01:32:44.716Z"},{"rt":2737.89999999851,"stimulus":"[A] option 1, [L] option 2, [G] neither","key_press":65,"name":"choice","trial_type":"html-keyboard-response","trial_index":191,"time_elapsed":534636,"internal_node_id":"0.0-191.0","response":"1st","certainty":"high","char":"A","transposition":-3,"order":["swapped","shifted"],"probe_pitches":[2,0,7,-1,8,9,5,7,11,6,3,7],"shifted_pitches":[2,0,7,-1,8,9,4,7,11,6,3,7],"swapped_pitches":[2,0,7,-1,8,5,9,7,11,6,3,7],"shift_direction":-1,"question_num":161,"has_decoy":false,"subject":"S1C1234","sona":"41485","block":1,"time":"2021-09-18T01:32:44.716Z"},{"rt":1455.8000000044703,"stimulus":"[A] option 1, [L] option 2, [G] neither","key_press":76,"name":"choice","trial_type":"html-keyboard-response","trial_index":202,"time_elapsed":555193,"internal_node_id":"0.0-202.0","response":"2nd","certainty":"high","char":"L","transposition":3,"order":["swapped","shifted"],"probe_pitches":[5,8,2,-1,3,10,5,1,11,1,-1,8],"shifted_pitches":[5,8,2,-1,3,9,5,1,11,1,-1,8],"swapped_pitches":[5,8,2,-1,3,5,10,1,11,1,-1,8],"shift_direction":-1,"question_num":171,"has_decoy":false,"subject":"S1C1234","sona":"41485","block":1,"time":"2021-09-18T01:32:44.716Z"},{"rt":1445.1000000014901,"stimulus":"[A] option 1, [L] option 2, [G] neither","key_press":76,"name":"choice","trial_type":"html-keyboard-response","trial_index":213,"time_elapsed":576061,"internal_node_id":"0.0-213.0","response":"2nd","certainty":"high","char":"L","transposition":1,"order":["swapped","shifted"],"probe_pitches":[5,3,8,15,12,10,5,15,5,12,8,5],"shifted_pitches":[5,3,8,15,12,11,5,15,5,12,8,5],"swapped_pitches":[5,3,8,15,12,5,10,15,5,12,8,5],"shift_direction":1,"question_num":181,"has_decoy":false,"subject":"S1C1234","sona":"41485","block":1,"time":"2021-09-18T01:32:44.716Z"},{"rt":919.3999999985099,"stimulus":"[A] option 1, [L] option 2, [G] neither","key_press":65,"name":"choice","trial_type":"html-keyboard-response","trial_index":224,"time_elapsed":596211,"internal_node_id":"0.0-224.0","response":"1st","certainty":"high","char":"A","transposition":2,"order":["shifted","swapped"],"probe_pitches":[10,13,10,15,13,6,10,13,8,6,3,8],"shifted_pitches":[10,13,10,15,13,6,11,13,8,6,3,8],"swapped_pitches":[10,13,10,15,13,10,6,13,8,6,3,8],"shift_direction":1,"question_num":191,"has_decoy":false,"subject":"S1C1234","sona":"41485","block":1,"time":"2021-09-18T01:32:44.716Z"}]