[{"rt":882.5999999940395,"stimulus":"[A] option 1, [L] option 2, [G] neither","key_press":76,"name":"choice","trial_type":"html-keyboard-response","trial_index":10,"time_elapsed":21741,"internal_node_id":"0.0-10.0","subject":"S1C1234","sona":"41485","block":4,"time":"2021-09-18T01:55:47.645Z","response":"2nd","certainty":"high","char":"L","transposition":0,"order":["shifted","swapped"],"probe_pitches":[10,6,0,3,4,9,8,3,4,1,8,4],"shifted_pitches":[10,6,0,3,4,9,7,3,4,1,8,4],"swapped_pitches":[10,6,0,3,4,8,9,3,4,1,8,4],"shift_direction":-1,"question_num":1,"has_decoy":false},{"rt":762.7999999970198,"stimulus":"[A] option 1, [L] option 2, [G] neither","key_press":76,"name":"choice","trial_type":"html-keyboard-response","trial_index":21,"time_elapsed":44815,"internal_node_id":"0.0-21.0","subject":"S1C1234","sona":"41485","block":4,"time":"2021-09-18T01:55:47.645Z","response":"2nd","certainty":"high","char":"L","transposition":-1,"order":["shifted","swapped"],"probe_pitches":[10,7,10,7,2,5,7,2,5,10,5,0],"shifted_pitches":[10,7,10,7,2,5,8,2,5,10,5,0],"swapped_pitches":[10,7,10,7,2,7,5,2,5,10,5,0],"shift_direction":1,"question_num":11,"has_decoy":false},{"rt":809.5,"stimulus":"[A] option 1, [L] option 2, [G] neither","key_press":76,"name":"choice","trial_type":"html-keyboard-response","trial_index":32,"time_elapsed":64775,"internal_node_id":"0.0-32.0","subject":"S1C1234","sona":"41485","block":4,"time":"2021-09-18T01:55:47.645Z","response":"2nd","certainty":"high","char":"L","transposition":-3,"order":["swapped","shifted"],"probe_pitches":[5,2,0,7,12,5,10,0,5,2,0,7],"shifted_pitches":[5,2,0,7,12,5,11,0,5,2,0,7],"swapped_pitches":[5,2,0,7,12,10,5,0,5,2,0,7],"shift_direction":1,"question_num":21,"has_decoy":false},{"rt":5179.70000000298,"stimulus":"[A] option 1, [L] option 2, [G] neither","key_press":76,"name":"choice","trial_type":"html-keyboard-response","trial_index":43,"time_elapsed":88824,"internal_node_id":"0.0-43.0","subject":"S1C1234","sona":"41485","block":4,"time":"2021-09-18T01:55:47.645Z","response":"2nd","certainty":"high","char":"L","transposition":-1,"order":["swapped","shifted"],"probe_pitches":[6,7,0,8,1,3,5,-1,5,8,7,-2],"shifted_pitches":[6,7,0,8,1,2,5,-1,5,8,7,-2],"swapped_pitches":[6,7,0,8,1,5,3,-1,5,8,7,-2],"shift_direction":-1,"question_num":31,"has_decoy":false},{"rt":517.7999999970198,"stimulus":"[A] option 1, [L] option 2, [G] neither","key_press":65,"name":"choice","trial_type":"html-keyboard-response","trial_index":54,"time_elapsed":111536,"internal_node_id":"0.0-54.0","subject":"S1C1234","sona":"41485","block":4,"time":"2021-09-18T01:55:47.645Z","response":"1st","certainty":"high","char":"A","transposition":-1,"order":["shifted","swapped"],"probe_pitches":[9,7,2,7,2,12,9,5,2,0,12,2],"shifted_pitches":[9,7,2,7,2,12,8,5,2,0,12,2],"swapped_pitches":[9,7,2,7,2,9,12,5,2,0,12,2],"shift_direction":-1,"question_num":41,"has_decoy":false},{"rt":1992.2000000029802,"stimulus":"[A] option 1, [L] option 2, [G] neither","key_press":65,"name":"choice","trial_type":"html-keyboard-response","trial_index":65,"time_elapsed":132850,"internal_node_id":"0.0-65.0","subject":"S1C1234","sona":"41485","block":4,"time":"2021-09-18T01:55:47.645Z","response":"1st","certainty":"high","char":"A","transposition":-2,"order":["swapped","shifted"],"probe_pitches":[8,9,3,5,8,9,1,5,1,4,2,5],"shifted_pitches":[8,9,3,5,8,9,0,5,1,4,2,5],"swapped_pitches":[8,9,3,5,8,1,9,5,1,4,2,5],"shift_direction":-1,"question_num":51,"has_decoy":false},{"rt":378.79999999701977,"stimulus":"[A] option 1, [L] option 2, [G] neither","key_press":76,"name":"choice","trial_type":"html-keyboard-response","trial_index":76,"time_elapsed":151973,"internal_node_id":"0.0-76.0","subject":"S1C1234","sona":"41485","block":4,"time":"2021-09-18T01:55:47.645Z","response":"2nd","certainty":"high","char":"L","transposition":-1,"order":["shifted","swapped"],"probe_pitches":[4,0,3,2,-2,0,4,6,-1,4,2,9],"shifted_pitches":[4,0,3,2,-2,1,4,6,-1,4,2,9],"swapped_pitches":[4,0,3,2,-2,4,0,6,-1,4,2,9],"shift_direction":1,"question_num":61,"has_decoy":false},{"rt":1112.7999999970198,"stimulus":"[A] option 1, [L] option 2, [G] neither","key_press":76,"name":"choice","trial_type":"html-keyboard-response","trial_index":87,"time_elapsed":172221,"internal_node_id":"0.0-87.0","subject":"S1C1234","sona":"41485","block":4,"time":"2021-09-18T01:55:47.645Z","response":"2nd","certainty":"high","char":"L","transposition":-3,"order":["shifted","swapped"],"probe_pitches":[9,7,1,-2,6,0,3,8,10,-1,8,2],"shifted_pitches":[9,7,1,-2,6,0,4,8,10,-1,8,2],"swapped_pitches":[9,7,1,-2,6,3,0,8,10,-1,8,2],"shift_direction":1,"question_num":71,"has_decoy":false},{"rt":1242,"stimulus":"[A] option 1, [L] option 2, [G] neither","key_press":65,"name":"choice","trial_type":"html-keyboard-response","trial_index":98,"time_elapsed":192007,"internal_node_id":"0.0-98.0","subject":"S1C1234","sona":"41485","block":4,"time":"2021-09-18T01:55:47.645Z","response":"1st","certainty":"high","char":"A","transposition":-2,"order":["shifted","swapped"],"probe_pitches":[12,9,12,7,0,9,7,0,7,0,2,4],"shifted_pitches":[12,9,12,7,0,9,6,0,7,0,2,4],"swapped_pitches":[12,9,12,7,0,7,9,0,7,0,2,4],"shift_direction":-1,"question_num":81,"has_decoy":false},{"rt":6617.60000000149,"stimulus":"[A] option 1, [L] option 2, [G] neither","key_press":76,"name":"choice","trial_type":"html-keyboard-response","trial_index":109,"time_elapsed":289721,"internal_node_id":"0.0-109.0","subject":"S1C1234","sona":"41485","block":4,"time":"2021-09-18T01:55:47.645Z","response":"2nd","certainty":"high","char":"L","transposition":2,"order":["shifted","swapped"],"probe_pitches":[-2,2,7,-1,2,8,10,-1,6,10,7,4],"shifted_pitches":[-2,2,7,-1,2,9,10,-1,6,10,7,4],"swapped_pitches":[-2,2,7,-1,2,10,8,-1,6,10,7,4],"shift_direction":1,"question_num":91,"has_decoy":false},{"rt":2029.2000000029802,"stimulus":"[A] option 1, [L] option 2, [G] neither","key_press":76,"name":"choice","trial_type":"html-keyboard-response","trial_index":120,"time_elapsed":313334,"internal_node_id":"0.0-120.0","subject":"S1C1234","sona":"41485","block":4,"time":"2021-09-18T01:55:47.645Z","response":"2nd","certainty":"high","char":"L","transposition":-3,"order":["swapped","shifted"],"probe_pitches":[5,0,3,10,5,7,8,2,-1,2,9,3],"shifted_pitches":[5,0,3,10,5,6,8,2,-1,2,9,3],"swapped_pitches":[5,0,3,10,5,8,7,2,-1,2,9,3],"shift_direction":-1,"question_num":101,"has_decoy":false},{"rt":839.8000000044703,"stimulus":"[A] option 1, [L] option 2, [G] neither","key_press":76,"name":"choice","trial_type":"html-keyboard-response","trial_index":131,"time_elapsed":333226,"internal_node_id":"0.0-131.0","subject":"S1C1234","sona":"41485","block":4,"time":"2021-09-18T01:55:47.645Z","response":"2nd","certainty":"high","char":"L","transposition":-2,"order":["swapped","shifted"],"probe_pitches":[7,4,9,7,0,2,6,10,1,8,-2,4],"shifted_pitches":[7,4,9,7,0,2,5,10,1,8,-2,4],"swapped_pitches":[7,4,9,7,0,6,2,10,1,8,-2,4],"shift_direction":-1,"question_num":111,"has_decoy":false},{"rt":414.69999999552965,"stimulus":"[A] option 1, [L] option 2, [G] neither","key_press":76,"name":"choice","trial_type":"html-keyboard-response","trial_index":142,"time_elapsed":353989,"internal_node_id":"0.0-142.0","subject":"S1C1234","sona":"41485","block":4,"time":"2021-09-18T01:55:47.645Z","response":"2nd","certainty":"high","char":"L","transposition":0,"order":["swapped","shifted"],"probe_pitches":[12,7,5,7,0,9,2,5,9,0,7,5],"shifted_pitches":[12,7,5,7,0,8,2,5,9,0,7,5],"swapped_pitches":[12,7,5,7,0,2,9,5,9,0,7,5],"shift_direction":-1,"question_num":121,"has_decoy":false},{"rt":1462.0999999940395,"stimulus":"[A] option 1, [L] option 2, [G] neither","key_press":65,"name":"choice","trial_type":"html-keyboard-response","trial_index":153,"time_elapsed":373622,"internal_node_id":"0.0-153.0","subject":"S1C1234","sona":"41485","block":4,"time":"2021-09-18T01:55:47.645Z","response":"1st","certainty":"high","char":"A","transposition":3,"order":["shifted","swapped"],"probe_pitches":[1,7,4,2,5,7,6,0,-1,0,9,7],"shifted_pitches":[1,7,4,2,5,8,6,0,-1,0,9,7],"swapped_pitches":[1,7,4,2,5,6,7,0,-1,0,9,7],"shift_direction":1,"question_num":131,"has_decoy":false},{"rt":1432.3000000044703,"stimulus":"[A] option 1, [L] option 2, [G] neither","key_press":76,"name":"choice","trial_type":"html-keyboard-response","trial_index":164,"time_elapsed":394354,"internal_node_id":"0.0-164.0","subject":"S1C1234","sona":"41485","block":4,"time":"2021-09-18T01:55:47.645Z","response":"2nd","certainty":"high","char":"L","transposition":-3,"order":["swapped","shifted"],"probe_pitches":[5,3,7,3,5,3,10,5,0,7,12,0],"shifted_pitches":[5,3,7,3,5,2,10,5,0,7,12,0],"swapped_pitches":[5,3,7,3,5,10,3,5,0,7,12,0],"shift_direction":-1,"question_num":141,"has_decoy":false},{"rt":4902.5,"stimulus":"[A] option 1, [L] option 2, [G] neither","key_press":76,"name":"choice","trial_type":"html-keyboard-response","trial_index":175,"time_elapsed":419109,"internal_node_id":"0.0-175.0","subject":"S1C1234","sona":"41485","block":4,"time":"2021-09-18T01:55:47.645Z","response":"2nd","certainty":"high","char":"L","transposition":-2,"order":["swapped","shifted"],"probe_pitches":[4,7,4,2,4,2,9,0,4,2,9,2],"shifted_pitches":[4,7,4,2,4,3,9,0,4,2,9,2],"swapped_pitches":[4,7,4,2,4,9,2,0,4,2,9,2],"shift_direction":1,"question_num":151,"has_decoy":false},{"rt":2511.7999999970198,"stimulus":"[A] option 1, [L] option 2, [G] neither","key_press":65,"name":"choice","trial_type":"html-keyboard-response","trial_index":186,"time_elapsed":440392,"internal_node_id":"0.0-186.0","subject":"S1C1234","sona":"41485","block":4,"time":"2021-09-18T01:55:47.645Z","response":"1st","certainty":"high","char":"A","transposition":1,"order":["shifted","swapped"],"probe_pitches":[0,3,5,3,12,8,5,0,5,0,10,12],"shifted_pitches":[0,3,5,3,12,9,5,0,5,0,10,12],"swapped_pitches":[0,3,5,3,12,5,8,0,5,0,10,12],"shift_direction":1,"question_num":161,"has_decoy":false},{"rt":564.5,"stimulus":"[A] option 1, [L] option 2, [G] neither","key_press":65,"name":"choice","trial_type":"html-keyboard-response","trial_index":197,"time_elapsed":460534,"internal_node_id":"0.0-197.0","subject":"S1C1234","sona":"41485","block":4,"time":"2021-09-18T01:55:47.645Z","response":"1st","certainty":"high","char":"A","transposition":1,"order":["swapped","shifted"],"probe_pitches":[4,6,2,10,5,9,2,5,-2,9,2,7],"shifted_pitches":[4,6,2,10,5,9,3,5,-2,9,2,7],"swapped_pitches":[4,6,2,10,5,2,9,5,-2,9,2,7],"shift_direction":1,"question_num":171,"has_decoy":false},{"rt":847.8000000044703,"stimulus":"[A] option 1, [L] option 2, [G] neither","key_press":76,"name":"choice","trial_type":"html-keyboard-response","trial_index":208,"time_elapsed":480981,"internal_node_id":"0.0-208.0","subject":"S1C1234","sona":"41485","block":4,"time":"2021-09-18T01:55:47.645Z","response":"2nd","certainty":"high","char":"L","transposition":2,"order":["shifted","swapped"],"probe_pitches":[12,10,8,0,3,12,5,0,8,5,10,5],"shifted_pitches":[12,10,8,0,3,12,6,0,8,5,10,5],"swapped_pitches":[12,10,8,0,3,5,12,0,8,5,10,5],"shift_direction":1,"question_num":181,"has_decoy":false},{"rt":1518.3999999985099,"stimulus":"[A] option 1, [L] option 2, [G] neither","key_press":65,"name":"choice","trial_type":"html-keyboard-response","trial_index":219,"time_elapsed":501864,"internal_node_id":"0.0-219.0","subject":"S1C1234","sona":"41485","block":4,"time":"2021-09-18T01:55:47.645Z","response":"1st","certainty":"high","char":"A","transposition":3,"order":["swapped","shifted"],"probe_pitches":[0,3,5,3,7,5,10,3,7,5,0,5],"shifted_pitches":[0,3,5,3,7,4,10,3,7,5,0,5],"swapped_pitches":[0,3,5,3,7,10,5,3,7,5,0,5],"shift_direction":-1,"question_num":191,"has_decoy":false}]