[{"rt":2733.2000000029802,"stimulus":"[A] option 1, [L] option 2, [G] neither","key_press":76,"name":"choice","trial_type":"html-keyboard-response","trial_index":10,"time_elapsed":94737,"internal_node_id":"0.0-10.0","subject":"S1C1234","sona":"41485","block":5,"time":"2021-09-18T02:04:31.107Z","response":"2nd","certainty":"high","char":"L","transposition":1,"order":["swapped","shifted"],"probe_pitches":[1,3,-3,-2,0,5,-2,3,2,0,2,9],"shifted_pitches":[1,3,-3,-2,0,6,-2,3,2,0,2,9],"swapped_pitches":[1,3,-3,-2,0,-2,5,3,2,0,2,9],"shift_direction":1,"question_num":1,"has_decoy":false},{"rt":571.7000000029802,"stimulus":"[A] option 1, [L] option 2, [G] neither","key_press":76,"name":"choice","trial_type":"html-keyboard-response","trial_index":21,"time_elapsed":121918,"internal_node_id":"0.0-21.0","subject":"S1C1234","sona":"41485","block":5,"time":"2021-09-18T02:04:31.107Z","response":"2nd","certainty":"high","char":"L","transposition":1,"order":["swapped","shifted"],"probe_pitches":[1,5,1,-2,1,5,8,10,3,10,1,5],"shifted_pitches":[1,5,1,-2,1,5,9,10,3,10,1,5],"swapped_pitches":[1,5,1,-2,1,8,5,10,3,10,1,5],"shift_direction":1,"question_num":11,"has_decoy":false},{"rt":540.5,"stimulus":"[A] option 1, [L] option 2, [G] neither","key_press":65,"name":"choice","trial_type":"html-keyboard-response","trial_index":32,"time_elapsed":142046,"internal_node_id":"0.0-32.0","subject":"S1C1234","sona":"41485","block":5,"time":"2021-09-18T02:04:31.107Z","response":"1st","certainty":"high","char":"A","transposition":-3,"order":["swapped","shifted"],"probe_pitches":[0,1,8,5,1,-2,5,-1,0,6,5,6],"shifted_pitches":[0,1,8,5,1,-2,4,-1,0,6,5,6],"swapped_pitches":[0,1,8,5,1,5,-2,-1,0,6,5,6],"shift_direction":-1,"question_num":21,"has_decoy":false},{"rt":539.6999999955297,"stimulus":"[A] option 1, [L] option 2, [G] neither","key_press":76,"name":"choice","trial_type":"html-keyboard-response","trial_index":43,"time_elapsed":163025,"internal_node_id":"0.0-43.0","subject":"S1C1234","sona":"41485","block":5,"time":"2021-09-18T02:04:31.107Z","response":"2nd","certainty":"high","char":"L","transposition":-3,"order":["swapped","shifted"],"probe_pitches":[2,-2,2,10,5,-2,7,0,2,-2,5,10],"shifted_pitches":[2,-2,2,10,5,-3,7,0,2,-2,5,10],"swapped_pitches":[2,-2,2,10,5,7,-2,0,2,-2,5,10],"shift_direction":-1,"question_num":31,"has_decoy":false},{"rt":10452.20000000298,"stimulus":"[A] option 1, [L] option 2, [G] neither","key_press":76,"name":"choice","trial_type":"html-keyboard-response","trial_index":54,"time_elapsed":192937,"internal_node_id":"0.0-54.0","subject":"S1C1234","sona":"41485","block":5,"time":"2021-09-18T02:04:31.107Z","response":"2nd","certainty":"high","char":"L","transposition":-1,"order":["swapped","shifted"],"probe_pitches":[8,3,5,10,5,1,10,-2,10,3,1,-2],"shifted_pitches":[8,3,5,10,5,1,11,-2,10,3,1,-2],"swapped_pitches":[8,3,5,10,5,10,1,-2,10,3,1,-2],"shift_direction":1,"question_num":41,"has_decoy":false},{"rt":1360.2999999970198,"stimulus":"[A] option 1, [L] option 2, [G] neither","key_press":65,"name":"choice","trial_type":"html-keyboard-response","trial_index":65,"time_elapsed":217203,"internal_node_id":"0.0-65.0","subject":"S1C1234","sona":"41485","block":5,"time":"2021-09-18T02:04:31.107Z","response":"1st","certainty":"high","char":"A","transposition":2,"order":["swapped","shifted"],"probe_pitches":[4,5,3,1,3,1,0,4,0,6,-2,6],"shifted_pitches":[4,5,3,1,3,1,-1,4,0,6,-2,6],"swapped_pitches":[4,5,3,1,3,0,1,4,0,6,-2,6],"shift_direction":-1,"question_num":51,"has_decoy":false},{"rt":861.1000000014901,"stimulus":"[A] option 1, [L] option 2, [G] neither","key_press":76,"name":"choice","trial_type":"html-keyboard-response","trial_index":76,"time_elapsed":237598,"internal_node_id":"0.0-76.0","subject":"S1C1234","sona":"41485","block":5,"time":"2021-09-18T02:04:31.107Z","response":"2nd","certainty":"high","char":"L","transposition":-1,"order":["swapped","shifted"],"probe_pitches":[0,5,8,10,8,5,10,0,3,5,10,5],"shifted_pitches":[0,5,8,10,8,6,10,0,3,5,10,5],"swapped_pitches":[0,5,8,10,8,10,5,0,3,5,10,5],"shift_direction":1,"question_num":61,"has_decoy":false},{"rt":840.8999999985099,"stimulus":"[A] option 1, [L] option 2, [G] neither","key_press":76,"name":"choice","trial_type":"html-keyboard-response","trial_index":87,"time_elapsed":257684,"internal_node_id":"0.0-87.0","subject":"S1C1234","sona":"41485","block":5,"time":"2021-09-18T02:04:31.107Z","response":"2nd","certainty":"high","char":"L","transposition":-2,"order":["shifted","swapped"],"probe_pitches":[8,9,2,-1,0,2,7,8,1,9,1,2],"shifted_pitches":[8,9,2,-1,0,3,7,8,1,9,1,2],"swapped_pitches":[8,9,2,-1,0,7,2,8,1,9,1,2],"shift_direction":1,"question_num":71,"has_decoy":false},{"rt":1690.6000000014901,"stimulus":"[A] option 1, [L] option 2, [G] neither","key_press":65,"name":"choice","trial_type":"html-keyboard-response","trial_index":98,"time_elapsed":278858,"internal_node_id":"0.0-98.0","subject":"S1C1234","sona":"41485","block":5,"time":"2021-09-18T02:04:31.107Z","response":"1st","certainty":"high","char":"A","transposition":-1,"order":["shifted","swapped"],"probe_pitches":[6,9,6,3,-2,7,-1,-2,4,7,-2,6],"shifted_pitches":[6,9,6,3,-2,8,-1,-2,4,7,-2,6],"swapped_pitches":[6,9,6,3,-2,-1,7,-2,4,7,-2,6],"shift_direction":1,"question_num":81,"has_decoy":false},{"rt":1376.6000000014901,"stimulus":"[A] option 1, [L] option 2, [G] neither","key_press":65,"name":"choice","trial_type":"html-keyboard-response","trial_index":109,"time_elapsed":299215,"internal_node_id":"0.0-109.0","subject":"S1C1234","sona":"41485","block":5,"time":"2021-09-18T02:04:31.107Z","response":"1st","certainty":"high","char":"A","transposition":3,"order":["shifted","swapped"],"probe_pitches":[5,2,7,9,6,1,2,-3,9,1,9,8],"shifted_pitches":[5,2,7,9,6,0,2,-3,9,1,9,8],"swapped_pitches":[5,2,7,9,6,2,1,-3,9,1,9,8],"shift_direction":-1,"question_num":91,"has_decoy":false},{"rt":2329.4000000059605,"stimulus":"[A] option 1, [L] option 2, [G] neither","key_press":76,"name":"choice","trial_type":"html-keyboard-response","trial_index":120,"time_elapsed":320833,"internal_node_id":"0.0-120.0","subject":"S1C1234","sona":"41485","block":5,"time":"2021-09-18T02:04:31.107Z","response":"2nd","certainty":"high","char":"L","transposition":-3,"order":["swapped","shifted"],"probe_pitches":[0,3,0,7,5,0,3,5,3,-2,7,0],"shifted_pitches":[0,3,0,7,5,0,2,5,3,-2,7,0],"swapped_pitches":[0,3,0,7,5,3,0,5,3,-2,7,0],"shift_direction":-1,"question_num":101,"has_decoy":false},{"rt":725.6000000014901,"stimulus":"[A] option 1, [L] option 2, [G] neither","key_press":65,"name":"choice","trial_type":"html-keyboard-response","trial_index":131,"time_elapsed":340524,"internal_node_id":"0.0-131.0","subject":"S1C1234","sona":"41485","block":5,"time":"2021-09-18T02:04:31.107Z","response":"1st","certainty":"high","char":"A","transposition":-1,"order":["shifted","swapped"],"probe_pitches":[-1,0,-2,-1,4,1,9,4,1,7,-2,3],"shifted_pitches":[-1,0,-2,-1,4,2,9,4,1,7,-2,3],"swapped_pitches":[-1,0,-2,-1,4,9,1,4,1,7,-2,3],"shift_direction":1,"question_num":111,"has_decoy":false},{"rt":3579.10000000149,"stimulus":"[A] option 1, [L] option 2, [G] neither","key_press":76,"name":"choice","trial_type":"html-keyboard-response","trial_index":142,"time_elapsed":363132,"internal_node_id":"0.0-142.0","subject":"S1C1234","sona":"41485","block":5,"time":"2021-09-18T02:04:31.107Z","response":"2nd","certainty":"high","char":"L","transposition":-2,"order":["shifted","swapped"],"probe_pitches":[0,2,7,0,-2,0,2,7,2,0,2,5],"shifted_pitches":[0,2,7,0,-2,-1,2,7,2,0,2,5],"swapped_pitches":[0,2,7,0,-2,2,0,7,2,0,2,5],"shift_direction":-1,"question_num":121,"has_decoy":false},{"rt":2449.39999999851,"stimulus":"[A] option 1, [L] option 2, [G] neither","key_press":76,"name":"choice","trial_type":"html-keyboard-response","trial_index":153,"time_elapsed":385484,"internal_node_id":"0.0-153.0","subject":"S1C1234","sona":"41485","block":5,"time":"2021-09-18T02:04:31.107Z","response":"2nd","certainty":"high","char":"L","transposition":0,"order":["swapped","shifted"],"probe_pitches":[-1,3,7,9,8,1,6,-2,-1,9,2,4],"shifted_pitches":[-1,3,7,9,8,1,5,-2,-1,9,2,4],"swapped_pitches":[-1,3,7,9,8,6,1,-2,-1,9,2,4],"shift_direction":-1,"question_num":131,"has_decoy":false},{"rt":2404.6999999955297,"stimulus":"[A] option 1, [L] option 2, [G] neither","key_press":76,"name":"choice","trial_type":"html-keyboard-response","trial_index":164,"time_elapsed":407283,"internal_node_id":"0.0-164.0","subject":"S1C1234","sona":"41485","block":5,"time":"2021-09-18T02:04:31.107Z","response":"2nd","certainty":"high","char":"L","transposition":3,"order":["shifted","swapped"],"probe_pitches":[3,5,10,5,10,0,5,3,7,10,-2,7],"shifted_pitches":[3,5,10,5,10,0,4,3,7,10,-2,7],"swapped_pitches":[3,5,10,5,10,5,0,3,7,10,-2,7],"shift_direction":-1,"question_num":141,"has_decoy":false},{"rt":378.8999999985099,"stimulus":"[A] option 1, [L] option 2, [G] neither","key_press":65,"name":"choice","trial_type":"html-keyboard-response","trial_index":175,"time_elapsed":426456,"internal_node_id":"0.0-175.0","subject":"S1C1234","sona":"41485","block":5,"time":"2021-09-18T02:04:31.107Z","response":"1st","certainty":"high","char":"A","transposition":-2,"order":["shifted","swapped"],"probe_pitches":[3,1,8,10,3,10,6,8,6,-2,1,6],"shifted_pitches":[3,1,8,10,3,11,6,8,6,-2,1,6],"swapped_pitches":[3,1,8,10,3,6,10,8,6,-2,1,6],"shift_direction":1,"question_num":151,"has_decoy":false},{"rt":1058,"stimulus":"[A] option 1, [L] option 2, [G] neither","key_press":65,"name":"choice","trial_type":"html-keyboard-response","trial_index":186,"time_elapsed":446585,"internal_node_id":"0.0-186.0","subject":"S1C1234","sona":"41485","block":5,"time":"2021-09-18T02:04:31.107Z","response":"1st","certainty":"high","char":"A","transposition":0,"order":["shifted","swapped"],"probe_pitches":[-2,0,3,5,10,5,8,3,8,-2,10,0],"shifted_pitches":[-2,0,3,5,10,5,9,3,8,-2,10,0],"swapped_pitches":[-2,0,3,5,10,8,5,3,8,-2,10,0],"shift_direction":1,"question_num":161,"has_decoy":false},{"rt":4217,"stimulus":"[A] option 1, [L] option 2, [G] neither","key_press":76,"name":"choice","trial_type":"html-keyboard-response","trial_index":197,"time_elapsed":470426,"internal_node_id":"0.0-197.0","subject":"S1C1234","sona":"41485","block":5,"time":"2021-09-18T02:04:31.107Z","response":"2nd","certainty":"high","char":"L","transposition":-2,"order":["shifted","swapped"],"probe_pitches":[-3,-2,3,-1,3,-2,8,3,-1,1,5,1],"shifted_pitches":[-3,-2,3,-1,3,-2,7,3,-1,1,5,1],"swapped_pitches":[-3,-2,3,-1,3,8,-2,3,-1,1,5,1],"shift_direction":-1,"question_num":171,"has_decoy":false},{"rt":1371.2000000029802,"stimulus":"[A] option 1, [L] option 2, [G] neither","key_press":76,"name":"choice","trial_type":"html-keyboard-response","trial_index":208,"time_elapsed":490843,"internal_node_id":"0.0-208.0","subject":"S1C1234","sona":"41485","block":5,"time":"2021-09-18T02:04:31.107Z","response":"2nd","certainty":"high","char":"L","transposition":-3,"order":["swapped","shifted"],"probe_pitches":[4,6,2,8,6,-2,0,6,-2,3,9,-3],"shifted_pitches":[4,6,2,8,6,-2,1,6,-2,3,9,-3],"swapped_pitches":[4,6,2,8,6,0,-2,6,-2,3,9,-3],"shift_direction":1,"question_num":181,"has_decoy":false},{"rt":5724.10000000149,"stimulus":"[A] option 1, [L] option 2, [G] neither","key_press":76,"name":"choice","trial_type":"html-keyboard-response","trial_index":219,"time_elapsed":519978,"internal_node_id":"0.0-219.0","subject":"S1C1234","sona":"41485","block":5,"time":"2021-09-18T02:04:31.107Z","response":"2nd","certainty":"high","char":"L","transposition":2,"order":["shifted","swapped"],"probe_pitches":[10,8,6,10,6,-2,8,3,1,8,-2,8],"shifted_pitches":[10,8,6,10,6,-3,8,3,1,8,-2,8],"swapped_pitches":[10,8,6,10,6,8,-2,3,1,8,-2,8],"shift_direction":-1,"question_num":191,"has_decoy":false}]