[{"rt":1344.9000000059605,"stimulus":"[A] option 1, [L] option 2, [G] neither","key_press":65,"name":"choice","trial_type":"html-keyboard-response","trial_index":10,"time_elapsed":24543,"internal_node_id":"0.0-10.0","subject":"S1C1234","sona":"41485","block":3,"time":"2021-09-18T01:47:20.848Z","response":"1st","certainty":"high","char":"A","transposition":2,"order":["shifted","swapped"],"probe_pitches":[9,14,9,11,2,4,9,14,4,11,6,9],"shifted_pitches":[9,14,9,11,2,3,9,14,4,11,6,9],"swapped_pitches":[9,14,9,11,2,9,4,14,4,11,6,9],"shift_direction":-1,"question_num":1,"has_decoy":false},{"rt":1358.3999999985099,"stimulus":"[A] option 1, [L] option 2, [G] neither","key_press":65,"name":"choice","trial_type":"html-keyboard-response","trial_index":21,"time_elapsed":44358,"internal_node_id":"0.0-21.0","subject":"S1C1234","sona":"41485","block":3,"time":"2021-09-18T01:47:20.848Z","response":"1st","certainty":"high","char":"A","transposition":-2,"order":["swapped","shifted"],"probe_pitches":[7,5,12,13,4,9,10,5,10,14,3,9],"shifted_pitches":[7,5,12,13,4,9,11,5,10,14,3,9],"swapped_pitches":[7,5,12,13,4,10,9,5,10,14,3,9],"shift_direction":1,"question_num":11,"has_decoy":false},{"rt":2125.3000000044703,"stimulus":"[A] option 1, [L] option 2, [G] neither","key_press":76,"name":"choice","trial_type":"html-keyboard-response","trial_index":32,"time_elapsed":65721,"internal_node_id":"0.0-32.0","subject":"S1C1234","sona":"41485","block":3,"time":"2021-09-18T01:47:20.848Z","response":"2nd","certainty":"high","char":"L","transposition":1,"order":["swapped","shifted"],"probe_pitches":[11,7,14,7,14,4,9,14,7,4,11,4],"shifted_pitches":[11,7,14,7,14,3,9,14,7,4,11,4],"swapped_pitches":[11,7,14,7,14,9,4,14,7,4,11,4],"shift_direction":-1,"question_num":21,"has_decoy":false},{"rt":897.8999999985099,"stimulus":"[A] option 1, [L] option 2, [G] neither","key_press":65,"name":"choice","trial_type":"html-keyboard-response","trial_index":43,"time_elapsed":85564,"internal_node_id":"0.0-43.0","subject":"S1C1234","sona":"41485","block":3,"time":"2021-09-18T01:47:20.848Z","response":"1st","certainty":"high","char":"A","transposition":0,"order":["swapped","shifted"],"probe_pitches":[5,4,2,9,5,9,7,13,3,2,8,9],"shifted_pitches":[5,4,2,9,5,9,6,13,3,2,8,9],"swapped_pitches":[5,4,2,9,5,7,9,13,3,2,8,9],"shift_direction":-1,"question_num":31,"has_decoy":false},{"rt":5259.80000000447,"stimulus":"[A] option 1, [L] option 2, [G] neither","key_press":76,"name":"choice","trial_type":"html-keyboard-response","trial_index":54,"time_elapsed":110858,"internal_node_id":"0.0-54.0","subject":"S1C1234","sona":"41485","block":3,"time":"2021-09-18T01:47:20.848Z","response":"2nd","certainty":"high","char":"L","transposition":-3,"order":["shifted","swapped"],"probe_pitches":[4,2,5,7,12,14,10,2,10,11,12,11],"shifted_pitches":[4,2,5,7,12,13,10,2,10,11,12,11],"swapped_pitches":[4,2,5,7,12,10,14,2,10,11,12,11],"shift_direction":-1,"question_num":41,"has_decoy":false},{"rt":1857.6000000014901,"stimulus":"[A] option 1, [L] option 2, [G] neither","key_press":76,"name":"choice","trial_type":"html-keyboard-response","trial_index":65,"time_elapsed":134105,"internal_node_id":"0.0-65.0","subject":"S1C1234","sona":"41485","block":3,"time":"2021-09-18T01:47:20.848Z","response":"2nd","certainty":"high","char":"L","transposition":3,"order":["shifted","swapped"],"probe_pitches":[9,4,11,9,11,4,7,2,4,9,7,11],"shifted_pitches":[9,4,11,9,11,5,7,2,4,9,7,11],"swapped_pitches":[9,4,11,9,11,7,4,2,4,9,7,11],"shift_direction":1,"question_num":51,"has_decoy":false},{"rt":1918.9000000059605,"stimulus":"[A] option 1, [L] option 2, [G] neither","key_press":76,"name":"choice","trial_type":"html-keyboard-response","trial_index":76,"time_elapsed":155910,"internal_node_id":"0.0-76.0","subject":"S1C1234","sona":"41485","block":3,"time":"2021-09-18T01:47:20.848Z","response":"2nd","certainty":"high","char":"L","transposition":-3,"order":["swapped","shifted"],"probe_pitches":[8,4,2,3,7,8,12,11,6,4,14,2],"shifted_pitches":[8,4,2,3,7,9,12,11,6,4,14,2],"swapped_pitches":[8,4,2,3,7,12,8,11,6,4,14,2],"shift_direction":1,"question_num":61,"has_decoy":false},{"rt":858.2000000029802,"stimulus":"[A] option 1, [L] option 2, [G] neither","key_press":65,"name":"choice","trial_type":"html-keyboard-response","trial_index":87,"time_elapsed":176501,"internal_node_id":"0.0-87.0","subject":"S1C1234","sona":"41485","block":3,"time":"2021-09-18T01:47:20.848Z","response":"1st","certainty":"high","char":"A","transposition":-3,"order":["shifted","swapped"],"probe_pitches":[6,9,4,2,11,2,9,4,6,11,6,9],"shifted_pitches":[6,9,4,2,11,2,8,4,6,11,6,9],"swapped_pitches":[6,9,4,2,11,9,2,4,6,11,6,9],"shift_direction":-1,"question_num":71,"has_decoy":false},{"rt":952,"stimulus":"[A] option 1, [L] option 2, [G] neither","key_press":76,"name":"choice","trial_type":"html-keyboard-response","trial_index":98,"time_elapsed":197740,"internal_node_id":"0.0-98.0","subject":"S1C1234","sona":"41485","block":3,"time":"2021-09-18T01:47:20.848Z","response":"2nd","certainty":"high","char":"L","transposition":-2,"order":["swapped","shifted"],"probe_pitches":[4,2,7,4,7,14,4,9,12,4,9,4],"shifted_pitches":[4,2,7,4,7,14,3,9,12,4,9,4],"swapped_pitches":[4,2,7,4,7,4,14,9,12,4,9,4],"shift_direction":-1,"question_num":81,"has_decoy":false},{"rt":1674.2000000029802,"stimulus":"[A] option 1, [L] option 2, [G] neither","key_press":76,"name":"choice","trial_type":"html-keyboard-response","trial_index":109,"time_elapsed":218898,"internal_node_id":"0.0-109.0","subject":"S1C1234","sona":"41485","block":3,"time":"2021-09-18T01:47:20.848Z","response":"2nd","certainty":"high","char":"L","transposition":-1,"order":["shifted","swapped"],"probe_pitches":[5,6,5,2,7,3,6,12,10,9,13,3],"shifted_pitches":[5,6,5,2,7,4,6,12,10,9,13,3],"swapped_pitches":[5,6,5,2,7,6,3,12,10,9,13,3],"shift_direction":1,"question_num":91,"has_decoy":false},{"rt":2141.89999999851,"stimulus":"[A] option 1, [L] option 2, [G] neither","key_press":65,"name":"choice","trial_type":"html-keyboard-response","trial_index":120,"time_elapsed":240741,"internal_node_id":"0.0-120.0","subject":"S1C1234","sona":"41485","block":3,"time":"2021-09-18T01:47:20.848Z","response":"1st","certainty":"high","char":"A","transposition":3,"order":["shifted","swapped"],"probe_pitches":[12,7,2,9,8,11,4,6,4,14,4,11],"shifted_pitches":[12,7,2,9,8,10,4,6,4,14,4,11],"swapped_pitches":[12,7,2,9,8,4,11,6,4,14,4,11],"shift_direction":-1,"question_num":101,"has_decoy":false},{"rt":3510.7000000029802,"stimulus":"[A] option 1, [L] option 2, [G] neither","key_press":76,"name":"choice","trial_type":"html-keyboard-response","trial_index":131,"time_elapsed":264188,"internal_node_id":"0.0-131.0","subject":"S1C1234","sona":"41485","block":3,"time":"2021-09-18T01:47:20.848Z","response":"2nd","certainty":"high","char":"L","transposition":2,"order":["shifted","swapped"],"probe_pitches":[9,10,13,9,10,7,13,9,4,3,7,10],"shifted_pitches":[9,10,13,9,10,7,12,9,4,3,7,10],"swapped_pitches":[9,10,13,9,10,13,7,9,4,3,7,10],"shift_direction":-1,"question_num":111,"has_decoy":false},{"rt":2137.5,"stimulus":"[A] option 1, [L] option 2, [G] neither","key_press":76,"name":"choice","trial_type":"html-keyboard-response","trial_index":142,"time_elapsed":285961,"internal_node_id":"0.0-142.0","subject":"S1C1234","sona":"41485","block":3,"time":"2021-09-18T01:47:20.848Z","response":"2nd","certainty":"high","char":"L","transposition":-2,"order":["swapped","shifted"],"probe_pitches":[10,12,14,10,5,10,12,2,12,7,10,5],"shifted_pitches":[10,12,14,10,5,11,12,2,12,7,10,5],"swapped_pitches":[10,12,14,10,5,12,10,2,12,7,10,5],"shift_direction":1,"question_num":121,"has_decoy":false},{"rt":972.8999999985099,"stimulus":"[A] option 1, [L] option 2, [G] neither","key_press":65,"name":"choice","trial_type":"html-keyboard-response","trial_index":153,"time_elapsed":307360,"internal_node_id":"0.0-153.0","subject":"S1C1234","sona":"41485","block":3,"time":"2021-09-18T01:47:20.848Z","response":"1st","certainty":"high","char":"A","transposition":-1,"order":["swapped","shifted"],"probe_pitches":[4,9,7,2,9,12,4,14,2,9,2,9],"shifted_pitches":[4,9,7,2,9,12,5,14,2,9,2,9],"swapped_pitches":[4,9,7,2,9,4,12,14,2,9,2,9],"shift_direction":1,"question_num":131,"has_decoy":false},{"rt":894.3999999985099,"stimulus":"[A] option 1, [L] option 2, [G] neither","key_press":76,"name":"choice","trial_type":"html-keyboard-response","trial_index":164,"time_elapsed":328283,"internal_node_id":"0.0-164.0","subject":"S1C1234","sona":"41485","block":3,"time":"2021-09-18T01:47:20.848Z","response":"2nd","certainty":"high","char":"L","transposition":0,"order":["shifted","swapped"],"probe_pitches":[14,12,5,9,5,12,7,2,14,7,2,12],"shifted_pitches":[14,12,5,9,5,12,8,2,14,7,2,12],"swapped_pitches":[14,12,5,9,5,7,12,2,14,7,2,12],"shift_direction":1,"question_num":141,"has_decoy":false},{"rt":1652.6000000014901,"stimulus":"[A] option 1, [L] option 2, [G] neither","key_press":65,"name":"choice","trial_type":"html-keyboard-response","trial_index":175,"time_elapsed":351061,"internal_node_id":"0.0-175.0","subject":"S1C1234","sona":"41485","block":3,"time":"2021-09-18T01:47:20.848Z","response":"1st","certainty":"high","char":"A","transposition":-2,"order":["swapped","shifted"],"probe_pitches":[11,5,4,12,3,6,9,2,6,4,6,12],"shifted_pitches":[11,5,4,12,3,6,8,2,6,4,6,12],"swapped_pitches":[11,5,4,12,3,9,6,2,6,4,6,12],"shift_direction":-1,"question_num":151,"has_decoy":false},{"rt":492.70000000298023,"stimulus":"[A] option 1, [L] option 2, [G] neither","key_press":65,"name":"choice","trial_type":"html-keyboard-response","trial_index":186,"time_elapsed":371223,"internal_node_id":"0.0-186.0","subject":"S1C1234","sona":"41485","block":3,"time":"2021-09-18T01:47:20.848Z","response":"1st","certainty":"high","char":"A","transposition":1,"order":["shifted","swapped"],"probe_pitches":[11,14,12,11,13,4,8,10,8,4,13,12],"shifted_pitches":[11,14,12,11,13,5,8,10,8,4,13,12],"swapped_pitches":[11,14,12,11,13,8,4,10,8,4,13,12],"shift_direction":1,"question_num":161,"has_decoy":false},{"rt":868.7000000029802,"stimulus":"[A] option 1, [L] option 2, [G] neither","key_press":76,"name":"choice","trial_type":"html-keyboard-response","trial_index":197,"time_elapsed":392094,"internal_node_id":"0.0-197.0","subject":"S1C1234","sona":"41485","block":3,"time":"2021-09-18T01:47:20.848Z","response":"2nd","certainty":"high","char":"L","transposition":-1,"order":["swapped","shifted"],"probe_pitches":[9,14,7,5,2,12,5,2,12,2,12,5],"shifted_pitches":[9,14,7,5,2,13,5,2,12,2,12,5],"swapped_pitches":[9,14,7,5,2,5,12,2,12,2,12,5],"shift_direction":1,"question_num":171,"has_decoy":false},{"rt":1408.3000000044703,"stimulus":"[A] option 1, [L] option 2, [G] neither","key_press":65,"name":"choice","trial_type":"html-keyboard-response","trial_index":208,"time_elapsed":412318,"internal_node_id":"0.0-208.0","subject":"S1C1234","sona":"41485","block":3,"time":"2021-09-18T01:47:20.848Z","response":"1st","certainty":"high","char":"A","transposition":-1,"order":["swapped","shifted"],"probe_pitches":[9,11,14,8,5,9,6,12,3,10,5,11],"shifted_pitches":[9,11,14,8,5,9,7,12,3,10,5,11],"swapped_pitches":[9,11,14,8,5,6,9,12,3,10,5,11],"shift_direction":1,"question_num":181,"has_decoy":false},{"rt":1194.7999999970198,"stimulus":"[A] option 1, [L] option 2, [G] neither","key_press":76,"name":"choice","trial_type":"html-keyboard-response","trial_index":219,"time_elapsed":432124,"internal_node_id":"0.0-219.0","subject":"S1C1234","sona":"41485","block":3,"time":"2021-09-18T01:47:20.848Z","response":"2nd","certainty":"high","char":"L","transposition":-3,"order":["shifted","swapped"],"probe_pitches":[2,7,10,14,10,5,7,2,7,12,10,2],"shifted_pitches":[2,7,10,14,10,5,6,2,7,12,10,2],"swapped_pitches":[2,7,10,14,10,7,5,2,7,12,10,2],"shift_direction":-1,"question_num":191,"has_decoy":false}]