[{"rt":1771.2000000029802,"stimulus":"[A] option 1, [L] option 2, [G] neither","key_press":65,"name":"choice","trial_type":"html-keyboard-response","trial_index":10,"time_elapsed":19872,"internal_node_id":"0.0-10.0","subject":"S1C1225","sona":"41540","block":6,"time":"2021-09-17T18:43:38.514Z","response":"1st","certainty":"high","char":"A","transposition":-1,"order":["swapped","shifted"],"probe_pitches":[5,1,3,5,1,-2,8,1,8,3,8,-2],"shifted_pitches":[5,1,3,5,1,-1,8,1,8,3,8,-2],"swapped_pitches":[5,1,3,5,1,8,-2,1,8,3,8,-2],"shift_direction":1,"question_num":1,"has_decoy":false},{"rt":1081.9000000059605,"stimulus":"[A] option 1, [L] option 2, [G] neither","key_press":65,"name":"choice","trial_type":"html-keyboard-response","trial_index":21,"time_elapsed":39486,"internal_node_id":"0.0-21.0","subject":"S1C1225","sona":"41540","block":6,"time":"2021-09-17T18:43:38.514Z","response":"1st","certainty":"high","char":"A","transposition":-1,"order":["shifted","swapped"],"probe_pitches":[0,5,-2,5,2,10,5,0,7,10,7,0],"shifted_pitches":[0,5,-2,5,2,9,5,0,7,10,7,0],"swapped_pitches":[0,5,-2,5,2,5,10,0,7,10,7,0],"shift_direction":-1,"question_num":11,"has_decoy":false},{"rt":924,"stimulus":"[A] option 1, [L] option 2, [G] neither","key_press":65,"name":"choice","trial_type":"html-keyboard-response","trial_index":32,"time_elapsed":58912,"internal_node_id":"0.0-32.0","subject":"S1C1225","sona":"41540","block":6,"time":"2021-09-17T18:43:38.514Z","response":"1st","certainty":"high","char":"A","transposition":1,"order":["swapped","shifted"],"probe_pitches":[6,1,-2,1,3,6,-2,3,-2,6,8,-2],"shifted_pitches":[6,1,-2,1,3,5,-2,3,-2,6,8,-2],"swapped_pitches":[6,1,-2,1,3,-2,6,3,-2,6,8,-2],"shift_direction":-1,"question_num":21,"has_decoy":false},{"rt":912.5999999940395,"stimulus":"[A] option 1, [L] option 2, [G] neither","key_press":76,"name":"choice","trial_type":"html-keyboard-response","trial_index":43,"time_elapsed":78058,"internal_node_id":"0.0-43.0","subject":"S1C1225","sona":"41540","block":6,"time":"2021-09-17T18:43:38.514Z","response":"2nd","certainty":"high","char":"L","transposition":1,"order":["shifted","swapped"],"probe_pitches":[8,11,6,1,5,11,3,6,1,0,1,12],"shifted_pitches":[8,11,6,1,5,10,3,6,1,0,1,12],"swapped_pitches":[8,11,6,1,5,3,11,6,1,0,1,12],"shift_direction":-1,"question_num":31,"has_decoy":false},{"rt":1505,"stimulus":"[A] option 1, [L] option 2, [G] neither","key_press":65,"name":"choice","trial_type":"html-keyboard-response","trial_index":54,"time_elapsed":97961,"internal_node_id":"0.0-54.0","subject":"S1C1225","sona":"41540","block":6,"time":"2021-09-17T18:43:38.514Z","response":"1st","certainty":"high","char":"A","transposition":-2,"order":["swapped","shifted"],"probe_pitches":[11,9,5,2,10,3,2,6,8,11,5,7],"shifted_pitches":[11,9,5,2,10,4,2,6,8,11,5,7],"swapped_pitches":[11,9,5,2,10,2,3,6,8,11,5,7],"shift_direction":1,"question_num":41,"has_decoy":false},{"rt":1264.2000000029802,"stimulus":"[A] option 1, [L] option 2, [G] neither","key_press":65,"name":"choice","trial_type":"html-keyboard-response","trial_index":65,"time_elapsed":119021,"internal_node_id":"0.0-65.0","subject":"S1C1225","sona":"41540","block":6,"time":"2021-09-17T18:43:38.514Z","response":"1st","certainty":"high","char":"A","transposition":-1,"order":["swapped","shifted"],"probe_pitches":[7,9,8,9,8,3,11,9,3,7,9,12],"shifted_pitches":[7,9,8,9,8,2,11,9,3,7,9,12],"swapped_pitches":[7,9,8,9,8,11,3,9,3,7,9,12],"shift_direction":-1,"question_num":51,"has_decoy":false},{"rt":856.8999999910593,"stimulus":"[A] option 1, [L] option 2, [G] neither","key_press":65,"name":"choice","trial_type":"html-keyboard-response","trial_index":76,"time_elapsed":138470,"internal_node_id":"0.0-76.0","subject":"S1C1225","sona":"41540","block":6,"time":"2021-09-17T18:43:38.514Z","response":"1st","certainty":"high","char":"A","transposition":3,"order":["swapped","shifted"],"probe_pitches":[2,8,2,5,12,8,6,12,2,1,5,2],"shifted_pitches":[2,8,2,5,12,8,7,12,2,1,5,2],"swapped_pitches":[2,8,2,5,12,6,8,12,2,1,5,2],"shift_direction":1,"question_num":61,"has_decoy":false},{"rt":1208.5,"stimulus":"[A] option 1, [L] option 2, [G] neither","key_press":65,"name":"choice","trial_type":"html-keyboard-response","trial_index":87,"time_elapsed":158053,"internal_node_id":"0.0-87.0","subject":"S1C1225","sona":"41540","block":6,"time":"2021-09-17T18:43:38.514Z","response":"1st","certainty":"high","char":"A","transposition":2,"order":["shifted","swapped"],"probe_pitches":[5,7,3,0,1,0,9,10,6,4,3,5],"shifted_pitches":[5,7,3,0,1,0,8,10,6,4,3,5],"swapped_pitches":[5,7,3,0,1,9,0,10,6,4,3,5],"shift_direction":-1,"question_num":71,"has_decoy":false},{"rt":2016.699999988079,"stimulus":"[A] option 1, [L] option 2, [G] neither","key_press":65,"name":"choice","trial_type":"html-keyboard-response","trial_index":98,"time_elapsed":178744,"internal_node_id":"0.0-98.0","subject":"S1C1225","sona":"41540","block":6,"time":"2021-09-17T18:43:38.514Z","response":"1st","certainty":"high","char":"A","transposition":-3,"order":["swapped","shifted"],"probe_pitches":[8,10,3,1,3,-2,1,10,3,8,1,6],"shifted_pitches":[8,10,3,1,3,-2,2,10,3,8,1,6],"swapped_pitches":[8,10,3,1,3,1,-2,10,3,8,1,6],"shift_direction":1,"question_num":81,"has_decoy":false},{"rt":341.90000000596046,"stimulus":"[A] option 1, [L] option 2, [G] neither","key_press":76,"name":"choice","trial_type":"html-keyboard-response","trial_index":109,"time_elapsed":197708,"internal_node_id":"0.0-109.0","subject":"S1C1225","sona":"41540","block":6,"time":"2021-09-17T18:43:38.514Z","response":"2nd","certainty":"high","char":"L","transposition":0,"order":["shifted","swapped"],"probe_pitches":[3,8,2,8,3,12,5,11,2,0,8,12],"shifted_pitches":[3,8,2,8,3,12,6,11,2,0,8,12],"swapped_pitches":[3,8,2,8,3,5,12,11,2,0,8,12],"shift_direction":1,"question_num":91,"has_decoy":false},{"rt":1274,"stimulus":"[A] option 1, [L] option 2, [G] neither","key_press":65,"name":"choice","trial_type":"html-keyboard-response","trial_index":120,"time_elapsed":218859,"internal_node_id":"0.0-120.0","subject":"S1C1225","sona":"41540","block":6,"time":"2021-09-17T18:43:38.514Z","response":"1st","certainty":"high","char":"A","transposition":-2,"order":["swapped","shifted"],"probe_pitches":[9,12,9,7,2,6,11,3,8,7,2,0],"shifted_pitches":[9,12,9,7,2,5,11,3,8,7,2,0],"swapped_pitches":[9,12,9,7,2,11,6,3,8,7,2,0],"shift_direction":-1,"question_num":101,"has_decoy":false},{"rt":1307.5,"stimulus":"[A] option 1, [L] option 2, [G] neither","key_press":76,"name":"choice","trial_type":"html-keyboard-response","trial_index":131,"time_elapsed":243633,"internal_node_id":"0.0-131.0","subject":"S1C1225","sona":"41540","block":6,"time":"2021-09-17T18:43:38.514Z","response":"2nd","certainty":"high","char":"L","transposition":3,"order":["swapped","shifted"],"probe_pitches":[5,10,5,8,5,8,3,5,-2,1,10,5],"shifted_pitches":[5,10,5,8,5,7,3,5,-2,1,10,5],"swapped_pitches":[5,10,5,8,5,3,8,5,-2,1,10,5],"shift_direction":-1,"question_num":111,"has_decoy":false},{"rt":2264.5,"stimulus":"[A] option 1, [L] option 2, [G] neither","key_press":65,"name":"choice","trial_type":"html-keyboard-response","trial_index":142,"time_elapsed":263969,"internal_node_id":"0.0-142.0","subject":"S1C1225","sona":"41540","block":6,"time":"2021-09-17T18:43:38.514Z","response":"1st","certainty":"high","char":"A","transposition":-3,"order":["swapped","shifted"],"probe_pitches":[5,2,4,3,2,10,1,8,10,8,3,0],"shifted_pitches":[5,2,4,3,2,11,1,8,10,8,3,0],"swapped_pitches":[5,2,4,3,2,1,10,8,10,8,3,0],"shift_direction":1,"question_num":121,"has_decoy":false},{"rt":647.7999999970198,"stimulus":"[A] option 1, [L] option 2, [G] neither","key_press":65,"name":"choice","trial_type":"html-keyboard-response","trial_index":153,"time_elapsed":284338,"internal_node_id":"0.0-153.0","subject":"S1C1225","sona":"41540","block":6,"time":"2021-09-17T18:43:38.514Z","response":"1st","certainty":"high","char":"A","transposition":-2,"order":["swapped","shifted"],"probe_pitches":[5,7,2,7,-2,5,2,-2,10,2,10,0],"shifted_pitches":[5,7,2,7,-2,5,3,-2,10,2,10,0],"swapped_pitches":[5,7,2,7,-2,2,5,-2,10,2,10,0],"shift_direction":1,"question_num":131,"has_decoy":false},{"rt":857.0999999940395,"stimulus":"[A] option 1, [L] option 2, [G] neither","key_press":65,"name":"choice","trial_type":"html-keyboard-response","trial_index":164,"time_elapsed":304361,"internal_node_id":"0.0-164.0","subject":"S1C1225","sona":"41540","block":6,"time":"2021-09-17T18:43:38.514Z","response":"1st","certainty":"high","char":"A","transposition":-2,"order":["shifted","swapped"],"probe_pitches":[10,5,-2,5,3,8,0,10,8,3,5,0],"shifted_pitches":[10,5,-2,5,3,8,1,10,8,3,5,0],"swapped_pitches":[10,5,-2,5,3,0,8,10,8,3,5,0],"shift_direction":1,"question_num":141,"has_decoy":false},{"rt":1631.7999999970198,"stimulus":"[A] option 1, [L] option 2, [G] neither","key_press":65,"name":"choice","trial_type":"html-keyboard-response","trial_index":175,"time_elapsed":325354,"internal_node_id":"0.0-175.0","subject":"S1C1225","sona":"41540","block":6,"time":"2021-09-17T18:43:38.514Z","response":"1st","certainty":"high","char":"A","transposition":-3,"order":["shifted","swapped"],"probe_pitches":[8,3,2,6,2,0,8,4,2,10,7,1],"shifted_pitches":[8,3,2,6,2,0,9,4,2,10,7,1],"swapped_pitches":[8,3,2,6,2,8,0,4,2,10,7,1],"shift_direction":1,"question_num":151,"has_decoy":false},{"rt":395.79999999701977,"stimulus":"[A] option 1, [L] option 2, [G] neither","key_press":76,"name":"choice","trial_type":"html-keyboard-response","trial_index":186,"time_elapsed":344053,"internal_node_id":"0.0-186.0","subject":"S1C1225","sona":"41540","block":6,"time":"2021-09-17T18:43:38.514Z","response":"2nd","certainty":"high","char":"L","transposition":-1,"order":["shifted","swapped"],"probe_pitches":[7,9,6,12,9,11,4,8,9,7,9,12],"shifted_pitches":[7,9,6,12,9,11,3,8,9,7,9,12],"swapped_pitches":[7,9,6,12,9,4,11,8,9,7,9,12],"shift_direction":-1,"question_num":161,"has_decoy":false},{"rt":4971.70000000298,"stimulus":"[A] option 1, [L] option 2, [G] neither","key_press":65,"name":"choice","trial_type":"html-keyboard-response","trial_index":197,"time_elapsed":368666,"internal_node_id":"0.0-197.0","subject":"S1C1225","sona":"41540","block":6,"time":"2021-09-17T18:43:38.514Z","response":"1st","certainty":"high","char":"A","transposition":-3,"order":["shifted","swapped"],"probe_pitches":[7,5,0,3,10,5,7,10,7,0,5,7],"shifted_pitches":[7,5,0,3,10,4,7,10,7,0,5,7],"swapped_pitches":[7,5,0,3,10,7,5,10,7,0,5,7],"shift_direction":-1,"question_num":171,"has_decoy":false},{"rt":2166.0999999940395,"stimulus":"[A] option 1, [L] option 2, [G] neither","key_press":76,"name":"choice","trial_type":"html-keyboard-response","trial_index":208,"time_elapsed":389620,"internal_node_id":"0.0-208.0","subject":"S1C1225","sona":"41540","block":6,"time":"2021-09-17T18:43:38.514Z","response":"2nd","certainty":"high","char":"L","transposition":0,"order":["shifted","swapped"],"probe_pitches":[7,5,7,0,3,0,5,-2,0,-2,0,5],"shifted_pitches":[7,5,7,0,3,0,4,-2,0,-2,0,5],"swapped_pitches":[7,5,7,0,3,5,0,-2,0,-2,0,5],"shift_direction":-1,"question_num":181,"has_decoy":false},{"rt":970.7999999970198,"stimulus":"[A] option 1, [L] option 2, [G] neither","key_press":65,"name":"choice","trial_type":"html-keyboard-response","trial_index":219,"time_elapsed":412387,"internal_node_id":"0.0-219.0","subject":"S1C1225","sona":"41540","block":6,"time":"2021-09-17T18:43:38.514Z","response":"1st","certainty":"high","char":"A","transposition":2,"order":["shifted","swapped"],"probe_pitches":[10,5,10,8,3,-2,0,3,5,8,3,8],"shifted_pitches":[10,5,10,8,3,-2,1,3,5,8,3,8],"swapped_pitches":[10,5,10,8,3,0,-2,3,5,8,3,8],"shift_direction":1,"question_num":191,"has_decoy":false}]