[{"rt":1447.5,"stimulus":"[A] option 1, [L] option 2, [G] neither","key_press":65,"name":"choice","trial_type":"html-keyboard-response","trial_index":10,"time_elapsed":20140,"internal_node_id":"0.0-10.0","subject":"S1C1225","sona":"41540","block":4,"time":"2021-09-17T18:29:50.495Z","response":"1st","certainty":"high","char":"A","transposition":-3,"order":["shifted","swapped"],"probe_pitches":[2,-3,4,-1,-3,7,4,-1,-3,4,-1,7],"shifted_pitches":[2,-3,4,-1,-3,7,3,-1,-3,4,-1,7],"swapped_pitches":[2,-3,4,-1,-3,4,7,-1,-3,4,-1,7],"shift_direction":-1,"question_num":1,"has_decoy":false},{"rt":1185.699999988079,"stimulus":"[A] option 1, [L] option 2, [G] neither","key_press":76,"name":"choice","trial_type":"html-keyboard-response","trial_index":21,"time_elapsed":39365,"internal_node_id":"0.0-21.0","subject":"S1C1225","sona":"41540","block":4,"time":"2021-09-17T18:29:50.495Z","response":"2nd","certainty":"high","char":"L","transposition":-1,"order":["swapped","shifted"],"probe_pitches":[0,-3,4,2,-3,7,0,2,4,9,4,2],"shifted_pitches":[0,-3,4,2,-3,8,0,2,4,9,4,2],"swapped_pitches":[0,-3,4,2,-3,0,7,2,4,9,4,2],"shift_direction":1,"question_num":11,"has_decoy":false},{"rt":1141.7999999970198,"stimulus":"[A] option 1, [L] option 2, [G] neither","key_press":76,"name":"choice","trial_type":"html-keyboard-response","trial_index":32,"time_elapsed":58905,"internal_node_id":"0.0-32.0","subject":"S1C1225","sona":"41540","block":4,"time":"2021-09-17T18:29:50.495Z","response":"2nd","certainty":"high","char":"L","transposition":-1,"order":["shifted","swapped"],"probe_pitches":[8,10,14,8,14,7,10,15,5,10,3,7],"shifted_pitches":[8,10,14,8,14,6,10,15,5,10,3,7],"swapped_pitches":[8,10,14,8,14,10,7,15,5,10,3,7],"shift_direction":-1,"question_num":21,"has_decoy":false},{"rt":1749.5999999940395,"stimulus":"[A] option 1, [L] option 2, [G] neither","key_press":65,"name":"choice","trial_type":"html-keyboard-response","trial_index":43,"time_elapsed":79459,"internal_node_id":"0.0-43.0","subject":"S1C1225","sona":"41540","block":4,"time":"2021-09-17T18:29:50.495Z","response":"1st","certainty":"high","char":"A","transposition":-2,"order":["shifted","swapped"],"probe_pitches":[-3,2,-3,2,-3,-1,4,9,-3,7,9,-1],"shifted_pitches":[-3,2,-3,2,-3,0,4,9,-3,7,9,-1],"swapped_pitches":[-3,2,-3,2,-3,4,-1,9,-3,7,9,-1],"shift_direction":1,"question_num":31,"has_decoy":false},{"rt":391.29999999701977,"stimulus":"[A] option 1, [L] option 2, [G] neither","key_press":76,"name":"choice","trial_type":"html-keyboard-response","trial_index":54,"time_elapsed":99679,"internal_node_id":"0.0-54.0","subject":"S1C1225","sona":"41540","block":4,"time":"2021-09-17T18:29:50.495Z","response":"2nd","certainty":"high","char":"L","transposition":-2,"order":["swapped","shifted"],"probe_pitches":[-1,1,6,1,-1,1,6,-1,6,1,4,-3],"shifted_pitches":[-1,1,6,1,-1,1,5,-1,6,1,4,-3],"swapped_pitches":[-1,1,6,1,-1,6,1,-1,6,1,4,-3],"shift_direction":-1,"question_num":41,"has_decoy":false},{"rt":2744.4000000059605,"stimulus":"[A] option 1, [L] option 2, [G] neither","key_press":65,"name":"choice","trial_type":"html-keyboard-response","trial_index":65,"time_elapsed":121109,"internal_node_id":"0.0-65.0","subject":"S1C1225","sona":"41540","block":4,"time":"2021-09-17T18:29:50.495Z","response":"1st","certainty":"high","char":"A","transposition":-1,"order":["shifted","swapped"],"probe_pitches":[6,3,4,9,3,9,6,12,15,11,4,11],"shifted_pitches":[6,3,4,9,3,8,6,12,15,11,4,11],"swapped_pitches":[6,3,4,9,3,6,9,12,15,11,4,11],"shift_direction":-1,"question_num":51,"has_decoy":false},{"rt":1630.7999999970198,"stimulus":"[A] option 1, [L] option 2, [G] neither","key_press":76,"name":"choice","trial_type":"html-keyboard-response","trial_index":76,"time_elapsed":141559,"internal_node_id":"0.0-76.0","subject":"S1C1225","sona":"41540","block":4,"time":"2021-09-17T18:29:50.495Z","response":"2nd","certainty":"high","char":"L","transposition":2,"order":["swapped","shifted"],"probe_pitches":[6,4,9,3,11,12,13,10,15,13,5,7],"shifted_pitches":[6,4,9,3,11,12,14,10,15,13,5,7],"swapped_pitches":[6,4,9,3,11,13,12,10,15,13,5,7],"shift_direction":1,"question_num":61,"has_decoy":false},{"rt":2084,"stimulus":"[A] option 1, [L] option 2, [G] neither","key_press":65,"name":"choice","trial_type":"html-keyboard-response","trial_index":87,"time_elapsed":164069,"internal_node_id":"0.0-87.0","subject":"S1C1225","sona":"41540","block":4,"time":"2021-09-17T18:29:50.495Z","response":"1st","certainty":"high","char":"A","transposition":1,"order":["shifted","swapped"],"probe_pitches":[4,2,-1,2,6,2,9,6,-3,4,6,-1],"shifted_pitches":[4,2,-1,2,6,2,8,6,-3,4,6,-1],"swapped_pitches":[4,2,-1,2,6,9,2,6,-3,4,6,-1],"shift_direction":-1,"question_num":71,"has_decoy":false},{"rt":1798.2999999970198,"stimulus":"[A] option 1, [L] option 2, [G] neither","key_press":76,"name":"choice","trial_type":"html-keyboard-response","trial_index":98,"time_elapsed":188653,"internal_node_id":"0.0-98.0","subject":"S1C1225","sona":"41540","block":4,"time":"2021-09-17T18:29:50.495Z","response":"2nd","certainty":"high","char":"L","transposition":-3,"order":["shifted","swapped"],"probe_pitches":[8,12,14,11,6,10,8,12,10,3,9,10],"shifted_pitches":[8,12,14,11,6,10,7,12,10,3,9,10],"swapped_pitches":[8,12,14,11,6,8,10,12,10,3,9,10],"shift_direction":-1,"question_num":81,"has_decoy":false},{"rt":505.20000000298023,"stimulus":"[A] option 1, [L] option 2, [G] neither","key_press":76,"name":"choice","trial_type":"html-keyboard-response","trial_index":109,"time_elapsed":208495,"internal_node_id":"0.0-109.0","subject":"S1C1225","sona":"41540","block":4,"time":"2021-09-17T18:29:50.495Z","response":"2nd","certainty":"high","char":"L","transposition":0,"order":["shifted","swapped"],"probe_pitches":[9,4,-1,2,6,4,2,9,4,9,6,-1],"shifted_pitches":[9,4,-1,2,6,5,2,9,4,9,6,-1],"swapped_pitches":[9,4,-1,2,6,2,4,9,4,9,6,-1],"shift_direction":1,"question_num":91,"has_decoy":false},{"rt":795.7000000029802,"stimulus":"[A] option 1, [L] option 2, [G] neither","key_press":65,"name":"choice","trial_type":"html-keyboard-response","trial_index":120,"time_elapsed":228214,"internal_node_id":"0.0-120.0","subject":"S1C1225","sona":"41540","block":4,"time":"2021-09-17T18:29:50.495Z","response":"1st","certainty":"high","char":"A","transposition":0,"order":["swapped","shifted"],"probe_pitches":[14,15,8,11,4,12,11,13,6,14,6,15],"shifted_pitches":[14,15,8,11,4,12,10,13,6,14,6,15],"swapped_pitches":[14,15,8,11,4,11,12,13,6,14,6,15],"shift_direction":-1,"question_num":101,"has_decoy":false},{"rt":1203.5999999940395,"stimulus":"[A] option 1, [L] option 2, [G] neither","key_press":65,"name":"choice","trial_type":"html-keyboard-response","trial_index":131,"time_elapsed":248260,"internal_node_id":"0.0-131.0","subject":"S1C1225","sona":"41540","block":4,"time":"2021-09-17T18:29:50.495Z","response":"1st","certainty":"high","char":"A","transposition":-2,"order":["shifted","swapped"],"probe_pitches":[10,7,8,7,11,3,10,12,5,7,8,10],"shifted_pitches":[10,7,8,7,11,3,9,12,5,7,8,10],"swapped_pitches":[10,7,8,7,11,10,3,12,5,7,8,10],"shift_direction":-1,"question_num":111,"has_decoy":false},{"rt":1069.800000011921,"stimulus":"[A] option 1, [L] option 2, [G] neither","key_press":76,"name":"choice","trial_type":"html-keyboard-response","trial_index":142,"time_elapsed":269827,"internal_node_id":"0.0-142.0","subject":"S1C1225","sona":"41540","block":4,"time":"2021-09-17T18:29:50.495Z","response":"2nd","certainty":"high","char":"L","transposition":1,"order":["swapped","shifted"],"probe_pitches":[9,14,8,3,5,10,6,13,6,7,4,6],"shifted_pitches":[9,14,8,3,5,11,6,13,6,7,4,6],"swapped_pitches":[9,14,8,3,5,6,10,13,6,7,4,6],"shift_direction":1,"question_num":121,"has_decoy":false},{"rt":2090.2999999970198,"stimulus":"[A] option 1, [L] option 2, [G] neither","key_press":65,"name":"choice","trial_type":"html-keyboard-response","trial_index":153,"time_elapsed":291263,"internal_node_id":"0.0-153.0","subject":"S1C1225","sona":"41540","block":4,"time":"2021-09-17T18:29:50.495Z","response":"1st","certainty":"high","char":"A","transposition":-3,"order":["shifted","swapped"],"probe_pitches":[9,3,5,10,3,12,15,4,9,10,6,5],"shifted_pitches":[9,3,5,10,3,13,15,4,9,10,6,5],"swapped_pitches":[9,3,5,10,3,15,12,4,9,10,6,5],"shift_direction":1,"question_num":131,"has_decoy":false},{"rt":576.6000000089407,"stimulus":"[A] option 1, [L] option 2, [G] neither","key_press":76,"name":"choice","trial_type":"html-keyboard-response","trial_index":164,"time_elapsed":311354,"internal_node_id":"0.0-164.0","subject":"S1C1225","sona":"41540","block":4,"time":"2021-09-17T18:29:50.495Z","response":"2nd","certainty":"high","char":"L","transposition":-3,"order":["swapped","shifted"],"probe_pitches":[-3,2,5,-3,2,0,7,9,5,0,7,-3],"shifted_pitches":[-3,2,5,-3,2,0,6,9,5,0,7,-3],"swapped_pitches":[-3,2,5,-3,2,7,0,9,5,0,7,-3],"shift_direction":-1,"question_num":141,"has_decoy":false},{"rt":1815.5999999940395,"stimulus":"[A] option 1, [L] option 2, [G] neither","key_press":65,"name":"choice","trial_type":"html-keyboard-response","trial_index":175,"time_elapsed":331798,"internal_node_id":"0.0-175.0","subject":"S1C1225","sona":"41540","block":4,"time":"2021-09-17T18:29:50.495Z","response":"1st","certainty":"high","char":"A","transposition":3,"order":["swapped","shifted"],"probe_pitches":[9,8,13,12,13,11,4,12,6,9,7,14],"shifted_pitches":[9,8,13,12,13,11,5,12,6,9,7,14],"swapped_pitches":[9,8,13,12,13,4,11,12,6,9,7,14],"shift_direction":1,"question_num":151,"has_decoy":false},{"rt":1789.2000000029802,"stimulus":"[A] option 1, [L] option 2, [G] neither","key_press":76,"name":"choice","trial_type":"html-keyboard-response","trial_index":186,"time_elapsed":354134,"internal_node_id":"0.0-186.0","subject":"S1C1225","sona":"41540","block":4,"time":"2021-09-17T18:29:50.495Z","response":"2nd","certainty":"high","char":"L","transposition":2,"order":["swapped","shifted"],"probe_pitches":[2,4,7,4,-3,0,4,-3,2,0,9,0],"shifted_pitches":[2,4,7,4,-3,1,4,-3,2,0,9,0],"swapped_pitches":[2,4,7,4,-3,4,0,-3,2,0,9,0],"shift_direction":1,"question_num":161,"has_decoy":false},{"rt":848.2999999970198,"stimulus":"[A] option 1, [L] option 2, [G] neither","key_press":65,"name":"choice","trial_type":"html-keyboard-response","trial_index":197,"time_elapsed":374153,"internal_node_id":"0.0-197.0","subject":"S1C1225","sona":"41540","block":4,"time":"2021-09-17T18:29:50.495Z","response":"1st","certainty":"high","char":"A","transposition":3,"order":["shifted","swapped"],"probe_pitches":[4,9,4,9,6,4,-1,6,-3,1,-1,6],"shifted_pitches":[4,9,4,9,6,5,-1,6,-3,1,-1,6],"swapped_pitches":[4,9,4,9,6,-1,4,6,-3,1,-1,6],"shift_direction":1,"question_num":171,"has_decoy":false},{"rt":1847.4000000059605,"stimulus":"[A] option 1, [L] option 2, [G] neither","key_press":76,"name":"choice","trial_type":"html-keyboard-response","trial_index":208,"time_elapsed":395360,"internal_node_id":"0.0-208.0","subject":"S1C1225","sona":"41540","block":4,"time":"2021-09-17T18:29:50.495Z","response":"2nd","certainty":"high","char":"L","transposition":-1,"order":["swapped","shifted"],"probe_pitches":[0,5,7,5,2,7,5,9,5,7,0,9],"shifted_pitches":[0,5,7,5,2,7,4,9,5,7,0,9],"swapped_pitches":[0,5,7,5,2,5,7,9,5,7,0,9],"shift_direction":-1,"question_num":181,"has_decoy":false},{"rt":2512.8999999910593,"stimulus":"[A] option 1, [L] option 2, [G] neither","key_press":65,"name":"choice","trial_type":"html-keyboard-response","trial_index":219,"time_elapsed":418137,"internal_node_id":"0.0-219.0","subject":"S1C1225","sona":"41540","block":4,"time":"2021-09-17T18:29:50.495Z","response":"1st","certainty":"high","char":"A","transposition":-2,"order":["swapped","shifted"],"probe_pitches":[13,15,8,9,8,11,15,8,4,3,10,6],"shifted_pitches":[13,15,8,9,8,12,15,8,4,3,10,6],"swapped_pitches":[13,15,8,9,8,15,11,8,4,3,10,6],"shift_direction":1,"question_num":191,"has_decoy":false}]