[{"rt":5537.29999999702,"stimulus":"[A] option 1, [L] option 2, [G] neither","key_press":65,"name":"choice","trial_type":"html-keyboard-response","trial_index":10,"time_elapsed":25770,"internal_node_id":"0.0-10.0","subject":"S1C1225","sona":"41540","block":3,"time":"2021-09-17T18:22:49.996Z","response":"1st","certainty":"high","char":"A","transposition":-3,"order":["shifted","swapped"],"probe_pitches":[3,0,3,8,12,10,3,5,12,0,8,12],"shifted_pitches":[3,0,3,8,12,10,4,5,12,0,8,12],"swapped_pitches":[3,0,3,8,12,3,10,5,12,0,8,12],"shift_direction":1,"question_num":1,"has_decoy":false},{"rt":2386.2000000029802,"stimulus":"[A] option 1, [L] option 2, [G] neither","key_press":76,"name":"choice","trial_type":"html-keyboard-response","trial_index":21,"time_elapsed":48751,"internal_node_id":"0.0-21.0","subject":"S1C1225","sona":"41540","block":3,"time":"2021-09-17T18:22:49.996Z","response":"2nd","certainty":"high","char":"L","transposition":-2,"order":["swapped","shifted"],"probe_pitches":[7,2,0,7,5,0,2,5,0,12,0,10],"shifted_pitches":[7,2,0,7,5,0,3,5,0,12,0,10],"swapped_pitches":[7,2,0,7,5,2,0,5,0,12,0,10],"shift_direction":1,"question_num":11,"has_decoy":false},{"rt":3616.800000011921,"stimulus":"[A] option 1, [L] option 2, [G] neither","key_press":65,"name":"choice","trial_type":"html-keyboard-response","trial_index":32,"time_elapsed":73053,"internal_node_id":"0.0-32.0","subject":"S1C1225","sona":"41540","block":3,"time":"2021-09-17T18:22:49.996Z","response":"1st","certainty":"high","char":"A","transposition":-1,"order":["swapped","shifted"],"probe_pitches":[4,0,2,7,9,0,4,7,9,2,12,2],"shifted_pitches":[4,0,2,7,9,-1,4,7,9,2,12,2],"swapped_pitches":[4,0,2,7,9,4,0,7,9,2,12,2],"shift_direction":-1,"question_num":21,"has_decoy":false},{"rt":1018.6000000089407,"stimulus":"[A] option 1, [L] option 2, [G] neither","key_press":76,"name":"choice","trial_type":"html-keyboard-response","trial_index":43,"time_elapsed":96119,"internal_node_id":"0.0-43.0","subject":"S1C1225","sona":"41540","block":3,"time":"2021-09-17T18:22:49.996Z","response":"2nd","certainty":"high","char":"L","transposition":-3,"order":["shifted","swapped"],"probe_pitches":[12,10,7,3,0,7,3,12,10,5,10,3],"shifted_pitches":[12,10,7,3,0,7,2,12,10,5,10,3],"swapped_pitches":[12,10,7,3,0,3,7,12,10,5,10,3],"shift_direction":-1,"question_num":31,"has_decoy":false},{"rt":3480,"stimulus":"[A] option 1, [L] option 2, [G] neither","key_press":76,"name":"choice","trial_type":"html-keyboard-response","trial_index":54,"time_elapsed":120303,"internal_node_id":"0.0-54.0","subject":"S1C1225","sona":"41540","block":3,"time":"2021-09-17T18:22:49.996Z","response":"2nd","certainty":"high","char":"L","transposition":-1,"order":["swapped","shifted"],"probe_pitches":[2,5,9,5,0,2,5,12,5,0,7,0],"shifted_pitches":[2,5,9,5,0,3,5,12,5,0,7,0],"swapped_pitches":[2,5,9,5,0,5,2,12,5,0,7,0],"shift_direction":1,"question_num":41,"has_decoy":false},{"rt":1662.7999999970198,"stimulus":"[A] option 1, [L] option 2, [G] neither","key_press":65,"name":"choice","trial_type":"html-keyboard-response","trial_index":65,"time_elapsed":141141,"internal_node_id":"0.0-65.0","subject":"S1C1225","sona":"41540","block":3,"time":"2021-09-17T18:22:49.996Z","response":"1st","certainty":"high","char":"A","transposition":3,"order":["shifted","swapped"],"probe_pitches":[5,7,2,0,7,5,0,9,7,12,9,2],"shifted_pitches":[5,7,2,0,7,6,0,9,7,12,9,2],"swapped_pitches":[5,7,2,0,7,0,5,9,7,12,9,2],"shift_direction":1,"question_num":51,"has_decoy":false},{"rt":1001.2999999970198,"stimulus":"[A] option 1, [L] option 2, [G] neither","key_press":76,"name":"choice","trial_type":"html-keyboard-response","trial_index":76,"time_elapsed":160735,"internal_node_id":"0.0-76.0","subject":"S1C1225","sona":"41540","block":3,"time":"2021-09-17T18:22:49.996Z","response":"2nd","certainty":"high","char":"L","transposition":2,"order":["shifted","swapped"],"probe_pitches":[12,10,5,8,10,0,3,12,3,12,0,8],"shifted_pitches":[12,10,5,8,10,-1,3,12,3,12,0,8],"swapped_pitches":[12,10,5,8,10,3,0,12,3,12,0,8],"shift_direction":-1,"question_num":61,"has_decoy":false},{"rt":1460.9000000059605,"stimulus":"[A] option 1, [L] option 2, [G] neither","key_press":65,"name":"choice","trial_type":"html-keyboard-response","trial_index":87,"time_elapsed":182074,"internal_node_id":"0.0-87.0","subject":"S1C1225","sona":"41540","block":3,"time":"2021-09-17T18:22:49.996Z","response":"1st","certainty":"high","char":"A","transposition":-2,"order":["shifted","swapped"],"probe_pitches":[-1,0,5,0,5,3,2,5,9,6,0,8],"shifted_pitches":[-1,0,5,0,5,3,1,5,9,6,0,8],"swapped_pitches":[-1,0,5,0,5,2,3,5,9,6,0,8],"shift_direction":-1,"question_num":71,"has_decoy":false},{"rt":721,"stimulus":"[A] option 1, [L] option 2, [G] neither","key_press":76,"name":"choice","trial_type":"html-keyboard-response","trial_index":98,"time_elapsed":202156,"internal_node_id":"0.0-98.0","subject":"S1C1225","sona":"41540","block":3,"time":"2021-09-17T18:22:49.996Z","response":"2nd","certainty":"high","char":"L","transposition":1,"order":["swapped","shifted"],"probe_pitches":[5,0,7,10,7,10,3,12,7,5,12,0],"shifted_pitches":[5,0,7,10,7,10,2,12,7,5,12,0],"swapped_pitches":[5,0,7,10,7,3,10,12,7,5,12,0],"shift_direction":-1,"question_num":81,"has_decoy":false},{"rt":2413.1000000089407,"stimulus":"[A] option 1, [L] option 2, [G] neither","key_press":65,"name":"choice","trial_type":"html-keyboard-response","trial_index":109,"time_elapsed":224423,"internal_node_id":"0.0-109.0","subject":"S1C1225","sona":"41540","block":3,"time":"2021-09-17T18:22:49.996Z","response":"1st","certainty":"high","char":"A","transposition":0,"order":["shifted","swapped"],"probe_pitches":[4,5,-1,0,5,8,6,5,7,3,10,7],"shifted_pitches":[4,5,-1,0,5,9,6,5,7,3,10,7],"swapped_pitches":[4,5,-1,0,5,6,8,5,7,3,10,7],"shift_direction":1,"question_num":91,"has_decoy":false},{"rt":3767.6000000089407,"stimulus":"[A] option 1, [L] option 2, [G] neither","key_press":65,"name":"choice","trial_type":"html-keyboard-response","trial_index":120,"time_elapsed":249793,"internal_node_id":"0.0-120.0","subject":"S1C1225","sona":"41540","block":3,"time":"2021-09-17T18:22:49.996Z","response":"1st","certainty":"high","char":"A","transposition":-1,"order":["swapped","shifted"],"probe_pitches":[10,8,3,4,10,0,3,8,-1,0,6,7],"shifted_pitches":[10,8,3,4,10,0,2,8,-1,0,6,7],"swapped_pitches":[10,8,3,4,10,3,0,8,-1,0,6,7],"shift_direction":-1,"question_num":101,"has_decoy":false},{"rt":1872,"stimulus":"[A] option 1, [L] option 2, [G] neither","key_press":65,"name":"choice","trial_type":"html-keyboard-response","trial_index":131,"time_elapsed":271124,"internal_node_id":"0.0-131.0","subject":"S1C1225","sona":"41540","block":3,"time":"2021-09-17T18:22:49.996Z","response":"1st","certainty":"high","char":"A","transposition":-3,"order":["swapped","shifted"],"probe_pitches":[1,0,7,9,5,1,7,3,2,11,5,7],"shifted_pitches":[1,0,7,9,5,1,6,3,2,11,5,7],"swapped_pitches":[1,0,7,9,5,7,1,3,2,11,5,7],"shift_direction":-1,"question_num":111,"has_decoy":false},{"rt":1793.1000000089407,"stimulus":"[A] option 1, [L] option 2, [G] neither","key_press":71,"name":"choice","trial_type":"html-keyboard-response","trial_index":142,"time_elapsed":294565,"internal_node_id":"0.0-142.0","subject":"S1C1225","sona":"41540","block":3,"time":"2021-09-17T18:22:49.996Z","response":"neither","certainty":"high","char":"G","transposition":2,"order":["shifted","swapped"],"probe_pitches":[1,0,5,8,-1,3,5,9,-1,3,5,1],"shifted_pitches":[1,0,5,8,-1,3,4,9,-1,3,5,1],"swapped_pitches":[1,0,5,8,-1,5,3,9,-1,3,5,1],"shift_direction":-1,"question_num":121,"has_decoy":false},{"rt":1842.7999999970198,"stimulus":"[A] option 1, [L] option 2, [G] neither","key_press":65,"name":"choice","trial_type":"html-keyboard-response","trial_index":153,"time_elapsed":316551,"internal_node_id":"0.0-153.0","subject":"S1C1225","sona":"41540","block":3,"time":"2021-09-17T18:22:49.996Z","response":"1st","certainty":"high","char":"A","transposition":1,"order":["shifted","swapped"],"probe_pitches":[4,10,8,3,-1,6,8,2,4,11,5,11],"shifted_pitches":[4,10,8,3,-1,6,7,2,4,11,5,11],"swapped_pitches":[4,10,8,3,-1,8,6,2,4,11,5,11],"shift_direction":-1,"question_num":131,"has_decoy":false},{"rt":4950.300000011921,"stimulus":"[A] option 1, [L] option 2, [G] neither","key_press":65,"name":"choice","trial_type":"html-keyboard-response","trial_index":164,"time_elapsed":346814,"internal_node_id":"0.0-164.0","subject":"S1C1225","sona":"41540","block":3,"time":"2021-09-17T18:22:49.996Z","response":"1st","certainty":"high","char":"A","transposition":3,"order":["shifted","swapped"],"probe_pitches":[4,9,8,9,11,2,4,8,0,4,9,6],"shifted_pitches":[4,9,8,9,11,3,4,8,0,4,9,6],"swapped_pitches":[4,9,8,9,11,4,2,8,0,4,9,6],"shift_direction":1,"question_num":141,"has_decoy":false},{"rt":1373.6000000089407,"stimulus":"[A] option 1, [L] option 2, [G] neither","key_press":65,"name":"choice","trial_type":"html-keyboard-response","trial_index":175,"time_elapsed":368581,"internal_node_id":"0.0-175.0","subject":"S1C1225","sona":"41540","block":3,"time":"2021-09-17T18:22:49.996Z","response":"1st","certainty":"high","char":"A","transposition":-2,"order":["swapped","shifted"],"probe_pitches":[10,9,2,1,0,7,2,5,6,2,6,-1],"shifted_pitches":[10,9,2,1,0,8,2,5,6,2,6,-1],"swapped_pitches":[10,9,2,1,0,2,7,5,6,2,6,-1],"shift_direction":1,"question_num":151,"has_decoy":false},{"rt":327.69999998807907,"stimulus":"[A] option 1, [L] option 2, [G] neither","key_press":76,"name":"choice","trial_type":"html-keyboard-response","trial_index":186,"time_elapsed":388874,"internal_node_id":"0.0-186.0","subject":"S1C1225","sona":"41540","block":3,"time":"2021-09-17T18:22:49.996Z","response":"2nd","certainty":"high","char":"L","transposition":-2,"order":["swapped","shifted"],"probe_pitches":[7,5,10,7,2,5,0,12,0,10,5,7],"shifted_pitches":[7,5,10,7,2,4,0,12,0,10,5,7],"swapped_pitches":[7,5,10,7,2,0,5,12,0,10,5,7],"shift_direction":-1,"question_num":161,"has_decoy":false},{"rt":1189.6000000089407,"stimulus":"[A] option 1, [L] option 2, [G] neither","key_press":71,"name":"choice","trial_type":"html-keyboard-response","trial_index":197,"time_elapsed":408780,"internal_node_id":"0.0-197.0","subject":"S1C1225","sona":"41540","block":3,"time":"2021-09-17T18:22:49.996Z","response":"neither","certainty":"high","char":"G","transposition":0,"order":["shifted","swapped"],"probe_pitches":[2,7,0,7,4,12,2,9,12,4,7,0],"shifted_pitches":[2,7,0,7,4,12,3,9,12,4,7,0],"swapped_pitches":[2,7,0,7,4,2,12,9,12,4,7,0],"shift_direction":1,"question_num":171,"has_decoy":false},{"rt":2154.4000000059605,"stimulus":"[A] option 1, [L] option 2, [G] neither","key_press":65,"name":"choice","trial_type":"html-keyboard-response","trial_index":208,"time_elapsed":431659,"internal_node_id":"0.0-208.0","subject":"S1C1225","sona":"41540","block":3,"time":"2021-09-17T18:22:49.996Z","response":"1st","certainty":"high","char":"A","transposition":-1,"order":["swapped","shifted"],"probe_pitches":[7,5,9,4,3,9,8,11,5,-1,7,2],"shifted_pitches":[7,5,9,4,3,10,8,11,5,-1,7,2],"swapped_pitches":[7,5,9,4,3,8,9,11,5,-1,7,2],"shift_direction":1,"question_num":181,"has_decoy":false},{"rt":783.5,"stimulus":"[A] option 1, [L] option 2, [G] neither","key_press":76,"name":"choice","trial_type":"html-keyboard-response","trial_index":219,"time_elapsed":453301,"internal_node_id":"0.0-219.0","subject":"S1C1225","sona":"41540","block":3,"time":"2021-09-17T18:22:49.996Z","response":"2nd","certainty":"high","char":"L","transposition":-3,"order":["swapped","shifted"],"probe_pitches":[11,8,10,4,10,4,7,3,6,2,9,8],"shifted_pitches":[11,8,10,4,10,5,7,3,6,2,9,8],"swapped_pitches":[11,8,10,4,10,7,4,3,6,2,9,8],"shift_direction":1,"question_num":191,"has_decoy":false}]