[{"rt":2807.9000000059605,"stimulus":"[A] option 1, [L] option 2, [G] neither","key_press":65,"name":"choice","trial_type":"html-keyboard-response","trial_index":10,"time_elapsed":22483,"internal_node_id":"0.0-10.0","subject":"S1C1225","sona":"41540","block":2,"time":"2021-09-17T18:15:12.560Z","response":"1st","certainty":"high","char":"A","transposition":-3,"order":["swapped","shifted"],"probe_pitches":[3,2,7,11,7,9,6,8,11,1,7,9],"shifted_pitches":[3,2,7,11,7,9,5,8,11,1,7,9],"swapped_pitches":[3,2,7,11,7,6,9,8,11,1,7,9],"shift_direction":-1,"question_num":1,"has_decoy":false},{"rt":1546,"stimulus":"[A] option 1, [L] option 2, [G] neither","key_press":76,"name":"choice","trial_type":"html-keyboard-response","trial_index":21,"time_elapsed":44292,"internal_node_id":"0.0-21.0","subject":"S1C1225","sona":"41540","block":2,"time":"2021-09-17T18:15:12.560Z","response":"2nd","certainty":"high","char":"L","transposition":-1,"order":["swapped","shifted"],"probe_pitches":[13,10,13,8,3,10,13,5,3,1,13,10],"shifted_pitches":[13,10,13,8,3,10,14,5,3,1,13,10],"swapped_pitches":[13,10,13,8,3,13,10,5,3,1,13,10],"shift_direction":1,"question_num":11,"has_decoy":false},{"rt":2487.5999999940395,"stimulus":"[A] option 1, [L] option 2, [G] neither","key_press":76,"name":"choice","trial_type":"html-keyboard-response","trial_index":32,"time_elapsed":67186,"internal_node_id":"0.0-32.0","subject":"S1C1225","sona":"41540","block":2,"time":"2021-09-17T18:15:12.560Z","response":"2nd","certainty":"high","char":"L","transposition":-1,"order":["swapped","shifted"],"probe_pitches":[3,8,1,8,5,13,3,10,3,1,8,5],"shifted_pitches":[3,8,1,8,5,13,2,10,3,1,8,5],"swapped_pitches":[3,8,1,8,5,3,13,10,3,1,8,5],"shift_direction":-1,"question_num":21,"has_decoy":false},{"rt":1763,"stimulus":"[A] option 1, [L] option 2, [G] neither","key_press":76,"name":"choice","trial_type":"html-keyboard-response","trial_index":43,"time_elapsed":92285,"internal_node_id":"0.0-43.0","subject":"S1C1225","sona":"41540","block":2,"time":"2021-09-17T18:15:12.560Z","response":"2nd","certainty":"high","char":"L","transposition":-3,"order":["swapped","shifted"],"probe_pitches":[2,1,8,11,4,9,5,0,2,7,9,1],"shifted_pitches":[2,1,8,11,4,10,5,0,2,7,9,1],"swapped_pitches":[2,1,8,11,4,5,9,0,2,7,9,1],"shift_direction":1,"question_num":31,"has_decoy":false},{"rt":1715.3999999910593,"stimulus":"[A] option 1, [L] option 2, [G] neither","key_press":65,"name":"choice","trial_type":"html-keyboard-response","trial_index":54,"time_elapsed":114759,"internal_node_id":"0.0-54.0","subject":"S1C1225","sona":"41540","block":2,"time":"2021-09-17T18:15:12.560Z","response":"1st","certainty":"high","char":"A","transposition":1,"order":["shifted","swapped"],"probe_pitches":[11,6,8,1,6,13,8,11,4,13,6,11],"shifted_pitches":[11,6,8,1,6,13,7,11,4,13,6,11],"swapped_pitches":[11,6,8,1,6,8,13,11,4,13,6,11],"shift_direction":-1,"question_num":41,"has_decoy":false},{"rt":1653.0999999940395,"stimulus":"[A] option 1, [L] option 2, [G] neither","key_press":76,"name":"choice","trial_type":"html-keyboard-response","trial_index":65,"time_elapsed":136662,"internal_node_id":"0.0-65.0","subject":"S1C1225","sona":"41540","block":2,"time":"2021-09-17T18:15:12.560Z","response":"2nd","certainty":"high","char":"L","transposition":2,"order":["shifted","swapped"],"probe_pitches":[11,5,7,6,-1,9,11,7,1,-1,4,9],"shifted_pitches":[11,5,7,6,-1,8,11,7,1,-1,4,9],"swapped_pitches":[11,5,7,6,-1,11,9,7,1,-1,4,9],"shift_direction":-1,"question_num":51,"has_decoy":false},{"rt":1024.2999999970198,"stimulus":"[A] option 1, [L] option 2, [G] neither","key_press":76,"name":"choice","trial_type":"html-keyboard-response","trial_index":76,"time_elapsed":156995,"internal_node_id":"0.0-76.0","subject":"S1C1225","sona":"41540","block":2,"time":"2021-09-17T18:15:12.560Z","response":"2nd","certainty":"high","char":"L","transposition":-2,"order":["swapped","shifted"],"probe_pitches":[13,10,8,3,10,8,3,10,1,3,6,3],"shifted_pitches":[13,10,8,3,10,9,3,10,1,3,6,3],"swapped_pitches":[13,10,8,3,10,3,8,10,1,3,6,3],"shift_direction":1,"question_num":61,"has_decoy":false},{"rt":720.9000000059605,"stimulus":"[A] option 1, [L] option 2, [G] neither","key_press":65,"name":"choice","trial_type":"html-keyboard-response","trial_index":87,"time_elapsed":176259,"internal_node_id":"0.0-87.0","subject":"S1C1225","sona":"41540","block":2,"time":"2021-09-17T18:15:12.560Z","response":"1st","certainty":"high","char":"A","transposition":-2,"order":["shifted","swapped"],"probe_pitches":[9,13,6,9,13,4,6,13,11,13,4,13],"shifted_pitches":[9,13,6,9,13,4,5,13,11,13,4,13],"swapped_pitches":[9,13,6,9,13,6,4,13,11,13,4,13],"shift_direction":-1,"question_num":71,"has_decoy":false},{"rt":1632.7999999970198,"stimulus":"[A] option 1, [L] option 2, [G] neither","key_press":71,"name":"choice","trial_type":"html-keyboard-response","trial_index":98,"time_elapsed":199556,"internal_node_id":"0.0-98.0","subject":"S1C1225","sona":"41540","block":2,"time":"2021-09-17T18:15:12.560Z","response":"neither","certainty":"high","char":"G","transposition":-2,"order":["swapped","shifted"],"probe_pitches":[1,7,2,1,5,3,11,9,2,3,8,11],"shifted_pitches":[1,7,2,1,5,4,11,9,2,3,8,11],"swapped_pitches":[1,7,2,1,5,11,3,9,2,3,8,11],"shift_direction":1,"question_num":81,"has_decoy":false},{"rt":2395.8999999910593,"stimulus":"[A] option 1, [L] option 2, [G] neither","key_press":76,"name":"choice","trial_type":"html-keyboard-response","trial_index":109,"time_elapsed":220131,"internal_node_id":"0.0-109.0","subject":"S1C1225","sona":"41540","block":2,"time":"2021-09-17T18:15:12.560Z","response":"2nd","certainty":"high","char":"L","transposition":1,"order":["swapped","shifted"],"probe_pitches":[-1,3,4,8,11,2,8,0,-1,5,3,10],"shifted_pitches":[-1,3,4,8,11,2,7,0,-1,5,3,10],"swapped_pitches":[-1,3,4,8,11,8,2,0,-1,5,3,10],"shift_direction":-1,"question_num":91,"has_decoy":false},{"rt":1364.5999999940395,"stimulus":"[A] option 1, [L] option 2, [G] neither","key_press":76,"name":"choice","trial_type":"html-keyboard-response","trial_index":120,"time_elapsed":241451,"internal_node_id":"0.0-120.0","subject":"S1C1225","sona":"41540","block":2,"time":"2021-09-17T18:15:12.560Z","response":"2nd","certainty":"high","char":"L","transposition":-1,"order":["shifted","swapped"],"probe_pitches":[6,7,9,3,10,4,3,1,4,10,-1,5],"shifted_pitches":[6,7,9,3,10,4,2,1,4,10,-1,5],"swapped_pitches":[6,7,9,3,10,3,4,1,4,10,-1,5],"shift_direction":-1,"question_num":101,"has_decoy":false},{"rt":1841,"stimulus":"[A] option 1, [L] option 2, [G] neither","key_press":65,"name":"choice","trial_type":"html-keyboard-response","trial_index":131,"time_elapsed":262151,"internal_node_id":"0.0-131.0","subject":"S1C1225","sona":"41540","block":2,"time":"2021-09-17T18:15:12.560Z","response":"1st","certainty":"high","char":"A","transposition":2,"order":["shifted","swapped"],"probe_pitches":[3,6,8,6,10,8,3,10,1,10,3,6],"shifted_pitches":[3,6,8,6,10,7,3,10,1,10,3,6],"swapped_pitches":[3,6,8,6,10,3,8,10,1,10,3,6],"shift_direction":-1,"question_num":111,"has_decoy":false},{"rt":3402.5999999940395,"stimulus":"[A] option 1, [L] option 2, [G] neither","key_press":76,"name":"choice","trial_type":"html-keyboard-response","trial_index":142,"time_elapsed":284518,"internal_node_id":"0.0-142.0","subject":"S1C1225","sona":"41540","block":2,"time":"2021-09-17T18:15:12.560Z","response":"2nd","certainty":"high","char":"L","transposition":3,"order":["swapped","shifted"],"probe_pitches":[-1,2,6,10,4,3,0,10,11,-1,3,2],"shifted_pitches":[-1,2,6,10,4,3,1,10,11,-1,3,2],"swapped_pitches":[-1,2,6,10,4,0,3,10,11,-1,3,2],"shift_direction":1,"question_num":121,"has_decoy":false},{"rt":2983,"stimulus":"[A] option 1, [L] option 2, [G] neither","key_press":65,"name":"choice","trial_type":"html-keyboard-response","trial_index":153,"time_elapsed":307549,"internal_node_id":"0.0-153.0","subject":"S1C1225","sona":"41540","block":2,"time":"2021-09-17T18:15:12.560Z","response":"1st","certainty":"high","char":"A","transposition":3,"order":["shifted","swapped"],"probe_pitches":[8,4,11,6,13,8,4,6,4,6,1,6],"shifted_pitches":[8,4,11,6,13,8,5,6,4,6,1,6],"swapped_pitches":[8,4,11,6,13,4,8,6,4,6,1,6],"shift_direction":1,"question_num":131,"has_decoy":false},{"rt":350.20000000298023,"stimulus":"[A] option 1, [L] option 2, [G] neither","key_press":76,"name":"choice","trial_type":"html-keyboard-response","trial_index":164,"time_elapsed":335475,"internal_node_id":"0.0-164.0","subject":"S1C1225","sona":"41540","block":2,"time":"2021-09-17T18:15:12.560Z","response":"2nd","certainty":"high","char":"L","transposition":-2,"order":["shifted","swapped"],"probe_pitches":[9,4,-1,6,1,2,4,9,5,-1,9,-1],"shifted_pitches":[9,4,-1,6,1,3,4,9,5,-1,9,-1],"swapped_pitches":[9,4,-1,6,1,4,2,9,5,-1,9,-1],"shift_direction":1,"question_num":141,"has_decoy":false},{"rt":2646.4000000059605,"stimulus":"[A] option 1, [L] option 2, [G] neither","key_press":65,"name":"choice","trial_type":"html-keyboard-response","trial_index":175,"time_elapsed":357467,"internal_node_id":"0.0-175.0","subject":"S1C1225","sona":"41540","block":2,"time":"2021-09-17T18:15:12.560Z","response":"1st","certainty":"high","char":"A","transposition":-1,"order":["shifted","swapped"],"probe_pitches":[8,11,10,9,1,4,7,11,1,0,5,8],"shifted_pitches":[8,11,10,9,1,4,6,11,1,0,5,8],"swapped_pitches":[8,11,10,9,1,7,4,11,1,0,5,8],"shift_direction":-1,"question_num":151,"has_decoy":false},{"rt":1114.7999999970198,"stimulus":"[A] option 1, [L] option 2, [G] neither","key_press":76,"name":"choice","trial_type":"html-keyboard-response","trial_index":186,"time_elapsed":377627,"internal_node_id":"0.0-186.0","subject":"S1C1225","sona":"41540","block":2,"time":"2021-09-17T18:15:12.560Z","response":"2nd","certainty":"high","char":"L","transposition":0,"order":["shifted","swapped"],"probe_pitches":[11,8,1,4,10,8,-1,10,8,10,6,5],"shifted_pitches":[11,8,1,4,10,9,-1,10,8,10,6,5],"swapped_pitches":[11,8,1,4,10,-1,8,10,8,10,6,5],"shift_direction":1,"question_num":161,"has_decoy":false},{"rt":1865,"stimulus":"[A] option 1, [L] option 2, [G] neither","key_press":65,"name":"choice","trial_type":"html-keyboard-response","trial_index":197,"time_elapsed":398711,"internal_node_id":"0.0-197.0","subject":"S1C1225","sona":"41540","block":2,"time":"2021-09-17T18:15:12.560Z","response":"1st","certainty":"high","char":"A","transposition":-3,"order":["swapped","shifted"],"probe_pitches":[11,9,13,9,13,9,4,1,4,13,6,11],"shifted_pitches":[11,9,13,9,13,10,4,1,4,13,6,11],"swapped_pitches":[11,9,13,9,13,4,9,1,4,13,6,11],"shift_direction":1,"question_num":171,"has_decoy":false},{"rt":1112.0999999940395,"stimulus":"[A] option 1, [L] option 2, [G] neither","key_press":76,"name":"choice","trial_type":"html-keyboard-response","trial_index":208,"time_elapsed":418377,"internal_node_id":"0.0-208.0","subject":"S1C1225","sona":"41540","block":2,"time":"2021-09-17T18:15:12.560Z","response":"2nd","certainty":"high","char":"L","transposition":0,"order":["swapped","shifted"],"probe_pitches":[1,6,13,8,13,8,3,6,1,8,11,3],"shifted_pitches":[1,6,13,8,13,7,3,6,1,8,11,3],"swapped_pitches":[1,6,13,8,13,3,8,6,1,8,11,3],"shift_direction":-1,"question_num":181,"has_decoy":false},{"rt":1586.6000000089407,"stimulus":"[A] option 1, [L] option 2, [G] neither","key_press":76,"name":"choice","trial_type":"html-keyboard-response","trial_index":219,"time_elapsed":439813,"internal_node_id":"0.0-219.0","subject":"S1C1225","sona":"41540","block":2,"time":"2021-09-17T18:15:12.560Z","response":"2nd","certainty":"high","char":"L","transposition":-3,"order":["shifted","swapped"],"probe_pitches":[6,3,8,11,8,3,11,8,3,13,8,3],"shifted_pitches":[6,3,8,11,8,4,11,8,3,13,8,3],"swapped_pitches":[6,3,8,11,8,11,3,8,3,13,8,3],"shift_direction":1,"question_num":191,"has_decoy":false}]