[{"rt":5947.899999991059,"stimulus":"[A] option 1, [L] option 2, [G] neither","key_press":76,"name":"choice","trial_type":"html-keyboard-response","trial_index":15,"time_elapsed":49279,"internal_node_id":"0.0-15.0","response":"2nd","certainty":"high","char":"L","transposition":-1,"order":["swapped","shifted"],"probe_pitches":[5,10,13,15,10,15,8,13,8,15,13,10],"shifted_pitches":[5,10,13,15,10,15,7,13,8,15,13,10],"swapped_pitches":[5,10,13,15,10,8,15,13,8,15,13,10],"shift_direction":-1,"question_num":1,"has_decoy":false,"subject":"S1C1225","sona":"41540","block":1,"time":"2021-09-17T18:07:47.492Z"},{"rt":3401.2999999970198,"stimulus":"[A] option 1, [L] option 2, [G] neither","key_press":65,"name":"choice","trial_type":"html-keyboard-response","trial_index":26,"time_elapsed":72253,"internal_node_id":"0.0-26.0","response":"1st","certainty":"high","char":"A","transposition":-1,"order":["shifted","swapped"],"probe_pitches":[0,5,8,2,3,11,9,-1,5,9,5,2],"shifted_pitches":[0,5,8,2,3,10,9,-1,5,9,5,2],"swapped_pitches":[0,5,8,2,3,9,11,-1,5,9,5,2],"shift_direction":-1,"question_num":11,"has_decoy":false,"subject":"S1C1225","sona":"41540","block":1,"time":"2021-09-17T18:07:47.492Z"},{"rt":1079.1000000089407,"stimulus":"[A] option 1, [L] option 2, [G] neither","key_press":65,"name":"choice","trial_type":"html-keyboard-response","trial_index":37,"time_elapsed":93381,"internal_node_id":"0.0-37.0","response":"1st","certainty":"high","char":"A","transposition":1,"order":["shifted","swapped"],"probe_pitches":[7,5,7,11,2,3,6,0,9,7,10,2],"shifted_pitches":[7,5,7,11,2,4,6,0,9,7,10,2],"swapped_pitches":[7,5,7,11,2,6,3,0,9,7,10,2],"shift_direction":1,"question_num":21,"has_decoy":false,"subject":"S1C1225","sona":"41540","block":1,"time":"2021-09-17T18:07:47.492Z"},{"rt":612.1000000089407,"stimulus":"[A] option 1, [L] option 2, [G] neither","key_press":76,"name":"choice","trial_type":"html-keyboard-response","trial_index":48,"time_elapsed":112945,"internal_node_id":"0.0-48.0","response":"2nd","certainty":"high","char":"L","transposition":3,"order":["swapped","shifted"],"probe_pitches":[2,1,5,9,6,3,7,5,3,2,10,7],"shifted_pitches":[2,1,5,9,6,3,8,5,3,2,10,7],"swapped_pitches":[2,1,5,9,6,7,3,5,3,2,10,7],"shift_direction":1,"question_num":31,"has_decoy":false,"subject":"S1C1225","sona":"41540","block":1,"time":"2021-09-17T18:07:47.492Z"},{"rt":1857.8999999910593,"stimulus":"[A] option 1, [L] option 2, [G] neither","key_press":65,"name":"choice","trial_type":"html-keyboard-response","trial_index":59,"time_elapsed":135076,"internal_node_id":"0.0-59.0","response":"1st","certainty":"high","char":"A","transposition":2,"order":["shifted","swapped"],"probe_pitches":[3,1,0,-1,5,2,8,-1,11,9,2,-1],"shifted_pitches":[3,1,0,-1,5,2,7,-1,11,9,2,-1],"swapped_pitches":[3,1,0,-1,5,8,2,-1,11,9,2,-1],"shift_direction":-1,"question_num":41,"has_decoy":false,"subject":"S1C1225","sona":"41540","block":1,"time":"2021-09-17T18:07:47.492Z"},{"rt":1456.2000000029802,"stimulus":"[A] option 1, [L] option 2, [G] neither","key_press":71,"name":"choice","trial_type":"html-keyboard-response","trial_index":70,"time_elapsed":154964,"internal_node_id":"0.0-70.0","response":"neither","certainty":"high","char":"G","transposition":1,"order":["shifted","swapped"],"probe_pitches":[13,8,11,6,11,13,6,3,13,11,15,8],"shifted_pitches":[13,8,11,6,11,13,5,3,13,11,15,8],"swapped_pitches":[13,8,11,6,11,6,13,3,13,11,15,8],"shift_direction":-1,"question_num":51,"has_decoy":false,"subject":"S1C1225","sona":"41540","block":1,"time":"2021-09-17T18:07:47.492Z"},{"rt":2421.1000000089407,"stimulus":"[A] option 1, [L] option 2, [G] neither","key_press":71,"name":"choice","trial_type":"html-keyboard-response","trial_index":81,"time_elapsed":176257,"internal_node_id":"0.0-81.0","response":"neither","certainty":"high","char":"G","transposition":-2,"order":["shifted","swapped"],"probe_pitches":[15,10,5,8,15,5,8,3,13,5,10,15],"shifted_pitches":[15,10,5,8,15,5,9,3,13,5,10,15],"swapped_pitches":[15,10,5,8,15,8,5,3,13,5,10,15],"shift_direction":1,"question_num":61,"has_decoy":false,"subject":"S1C1225","sona":"41540","block":1,"time":"2021-09-17T18:07:47.492Z"},{"rt":1166.5,"stimulus":"[A] option 1, [L] option 2, [G] neither","key_press":76,"name":"choice","trial_type":"html-keyboard-response","trial_index":92,"time_elapsed":195828,"internal_node_id":"0.0-92.0","response":"2nd","certainty":"high","char":"L","transposition":-3,"order":["swapped","shifted"],"probe_pitches":[5,7,12,10,7,15,5,12,3,12,5,7],"shifted_pitches":[5,7,12,10,7,15,4,12,3,12,5,7],"swapped_pitches":[5,7,12,10,7,5,15,12,3,12,5,7],"shift_direction":-1,"question_num":71,"has_decoy":false,"subject":"S1C1225","sona":"41540","block":1,"time":"2021-09-17T18:07:47.492Z"},{"rt":805.6000000089407,"stimulus":"[A] option 1, [L] option 2, [G] neither","key_press":65,"name":"choice","trial_type":"html-keyboard-response","trial_index":103,"time_elapsed":216086,"internal_node_id":"0.0-103.0","response":"1st","certainty":"high","char":"A","transposition":0,"order":["shifted","swapped"],"probe_pitches":[6,8,10,3,10,15,6,8,10,6,13,8],"shifted_pitches":[6,8,10,3,10,16,6,8,10,6,13,8],"swapped_pitches":[6,8,10,3,10,6,15,8,10,6,13,8],"shift_direction":1,"question_num":81,"has_decoy":false,"subject":"S1C1225","sona":"41540","block":1,"time":"2021-09-17T18:07:47.492Z"},{"rt":2175.1000000089407,"stimulus":"[A] option 1, [L] option 2, [G] neither","key_press":76,"name":"choice","trial_type":"html-keyboard-response","trial_index":114,"time_elapsed":237135,"internal_node_id":"0.0-114.0","response":"2nd","certainty":"high","char":"L","transposition":-1,"order":["shifted","swapped"],"probe_pitches":[10,8,10,11,3,8,4,11,6,2,-1,6],"shifted_pitches":[10,8,10,11,3,9,4,11,6,2,-1,6],"swapped_pitches":[10,8,10,11,3,4,8,11,6,2,-1,6],"shift_direction":1,"question_num":91,"has_decoy":false,"subject":"S1C1225","sona":"41540","block":1,"time":"2021-09-17T18:07:47.492Z"},{"rt":2265.5999999940395,"stimulus":"[A] option 1, [L] option 2, [G] neither","key_press":65,"name":"choice","trial_type":"html-keyboard-response","trial_index":125,"time_elapsed":259508,"internal_node_id":"0.0-125.0","response":"1st","certainty":"high","char":"A","transposition":0,"order":["shifted","swapped"],"probe_pitches":[-1,5,10,9,8,3,0,5,8,7,11,3],"shifted_pitches":[-1,5,10,9,8,3,1,5,8,7,11,3],"swapped_pitches":[-1,5,10,9,8,0,3,5,8,7,11,3],"shift_direction":1,"question_num":101,"has_decoy":false,"subject":"S1C1225","sona":"41540","block":1,"time":"2021-09-17T18:07:47.492Z"},{"rt":504.1000000089407,"stimulus":"[A] option 1, [L] option 2, [G] neither","key_press":76,"name":"choice","trial_type":"html-keyboard-response","trial_index":136,"time_elapsed":278483,"internal_node_id":"0.0-136.0","response":"2nd","certainty":"high","char":"L","transposition":-3,"order":["swapped","shifted"],"probe_pitches":[4,3,7,5,4,6,3,1,11,9,7,4],"shifted_pitches":[4,3,7,5,4,6,2,1,11,9,7,4],"swapped_pitches":[4,3,7,5,4,3,6,1,11,9,7,4],"shift_direction":-1,"question_num":111,"has_decoy":false,"subject":"S1C1225","sona":"41540","block":1,"time":"2021-09-17T18:07:47.492Z"},{"rt":1017.5,"stimulus":"[A] option 1, [L] option 2, [G] neither","key_press":65,"name":"choice","trial_type":"html-keyboard-response","trial_index":147,"time_elapsed":298566,"internal_node_id":"0.0-147.0","response":"1st","certainty":"high","char":"A","transposition":-3,"order":["swapped","shifted"],"probe_pitches":[10,7,1,9,10,5,4,6,2,11,10,8],"shifted_pitches":[10,7,1,9,10,5,3,6,2,11,10,8],"swapped_pitches":[10,7,1,9,10,4,5,6,2,11,10,8],"shift_direction":-1,"question_num":121,"has_decoy":false,"subject":"S1C1225","sona":"41540","block":1,"time":"2021-09-17T18:07:47.492Z"},{"rt":1472.7999999970198,"stimulus":"[A] option 1, [L] option 2, [G] neither","key_press":65,"name":"choice","trial_type":"html-keyboard-response","trial_index":158,"time_elapsed":319066,"internal_node_id":"0.0-158.0","response":"1st","certainty":"high","char":"A","transposition":-2,"order":["swapped","shifted"],"probe_pitches":[11,9,7,1,9,6,4,7,2,7,1,11],"shifted_pitches":[11,9,7,1,9,5,4,7,2,7,1,11],"swapped_pitches":[11,9,7,1,9,4,6,7,2,7,1,11],"shift_direction":-1,"question_num":131,"has_decoy":false,"subject":"S1C1225","sona":"41540","block":1,"time":"2021-09-17T18:07:47.492Z"},{"rt":1558,"stimulus":"[A] option 1, [L] option 2, [G] neither","key_press":76,"name":"choice","trial_type":"html-keyboard-response","trial_index":169,"time_elapsed":339060,"internal_node_id":"0.0-169.0","response":"2nd","certainty":"high","char":"L","transposition":-3,"order":["swapped","shifted"],"probe_pitches":[10,6,3,6,8,6,13,10,15,6,13,8],"shifted_pitches":[10,6,3,6,8,5,13,10,15,6,13,8],"swapped_pitches":[10,6,3,6,8,13,6,10,15,6,13,8],"shift_direction":-1,"question_num":141,"has_decoy":false,"subject":"S1C1225","sona":"41540","block":1,"time":"2021-09-17T18:07:47.492Z"},{"rt":458.5,"stimulus":"[A] option 1, [L] option 2, [G] neither","key_press":65,"name":"choice","trial_type":"html-keyboard-response","trial_index":180,"time_elapsed":360302,"internal_node_id":"0.0-180.0","response":"1st","certainty":"high","char":"A","transposition":2,"order":["shifted","swapped"],"probe_pitches":[15,12,5,12,3,10,8,3,8,5,3,8],"shifted_pitches":[15,12,5,12,3,9,8,3,8,5,3,8],"swapped_pitches":[15,12,5,12,3,8,10,3,8,5,3,8],"shift_direction":-1,"question_num":151,"has_decoy":false,"subject":"S1C1225","sona":"41540","block":1,"time":"2021-09-17T18:07:47.492Z"},{"rt":469.70000000298023,"stimulus":"[A] option 1, [L] option 2, [G] neither","key_press":76,"name":"choice","trial_type":"html-keyboard-response","trial_index":191,"time_elapsed":379726,"internal_node_id":"0.0-191.0","response":"2nd","certainty":"high","char":"L","transposition":-1,"order":["shifted","swapped"],"probe_pitches":[10,5,7,3,10,3,5,7,12,15,3,5],"shifted_pitches":[10,5,7,3,10,4,5,7,12,15,3,5],"swapped_pitches":[10,5,7,3,10,5,3,7,12,15,3,5],"shift_direction":1,"question_num":161,"has_decoy":false,"subject":"S1C1225","sona":"41540","block":1,"time":"2021-09-17T18:07:47.492Z"},{"rt":1189.5,"stimulus":"[A] option 1, [L] option 2, [G] neither","key_press":65,"name":"choice","trial_type":"html-keyboard-response","trial_index":202,"time_elapsed":400445,"internal_node_id":"0.0-202.0","response":"1st","certainty":"high","char":"A","transposition":3,"order":["swapped","shifted"],"probe_pitches":[15,12,5,8,12,8,10,3,15,3,8,15],"shifted_pitches":[15,12,5,8,12,8,11,3,15,3,8,15],"swapped_pitches":[15,12,5,8,12,10,8,3,15,3,8,15],"shift_direction":1,"question_num":171,"has_decoy":false,"subject":"S1C1225","sona":"41540","block":1,"time":"2021-09-17T18:07:47.492Z"},{"rt":439.1000000089407,"stimulus":"[A] option 1, [L] option 2, [G] neither","key_press":76,"name":"choice","trial_type":"html-keyboard-response","trial_index":213,"time_elapsed":419220,"internal_node_id":"0.0-213.0","response":"2nd","certainty":"high","char":"L","transposition":-2,"order":["swapped","shifted"],"probe_pitches":[3,4,2,3,0,5,8,0,11,10,0,2],"shifted_pitches":[3,4,2,3,0,6,8,0,11,10,0,2],"swapped_pitches":[3,4,2,3,0,8,5,0,11,10,0,2],"shift_direction":1,"question_num":181,"has_decoy":false,"subject":"S1C1225","sona":"41540","block":1,"time":"2021-09-17T18:07:47.492Z"},{"rt":442.29999999701977,"stimulus":"[A] option 1, [L] option 2, [G] neither","key_press":76,"name":"choice","trial_type":"html-keyboard-response","trial_index":224,"time_elapsed":438050,"internal_node_id":"0.0-224.0","response":"2nd","certainty":"high","char":"L","transposition":-2,"order":["swapped","shifted"],"probe_pitches":[11,15,13,8,6,13,15,3,8,6,15,11],"shifted_pitches":[11,15,13,8,6,14,15,3,8,6,15,11],"swapped_pitches":[11,15,13,8,6,15,13,3,8,6,15,11],"shift_direction":1,"question_num":191,"has_decoy":false,"subject":"S1C1225","sona":"41540","block":1,"time":"2021-09-17T18:07:47.492Z"}]