[{"rt":5930.199999988079,"stimulus":"[A] option 1, [L] option 2, [G] neither","key_press":76,"name":"choice","trial_type":"html-keyboard-response","trial_index":10,"time_elapsed":33179,"internal_node_id":"0.0-10.0","subject":"S1C1669","sona":"41685","block":3,"time":"2021-09-26T16:24:29.704Z","response":"2nd","certainty":"high","char":"L","transposition":-1,"order":["swapped","shifted"],"probe_pitches":[10,5,-2,3,5,10,0,-2,7,0,5,7,0,10,3,5],"shifted_pitches":[10,5,-2,3,5,10,0,-2,8,0,5,7,0,10,3,5],"swapped_pitches":[10,5,-2,3,5,10,0,7,-2,0,5,7,0,10,3,5],"shift_direction":1,"question_num":1,"has_decoy":false},{"rt":3694.5999999940395,"stimulus":"[A] option 1, [L] option 2, [G] neither","key_press":65,"name":"choice","trial_type":"html-keyboard-response","trial_index":21,"time_elapsed":59022,"internal_node_id":"0.0-21.0","subject":"S1C1669","sona":"41685","block":3,"time":"2021-09-26T16:24:29.704Z","response":"1st","certainty":"high","char":"A","transposition":0,"order":["shifted","swapped"],"probe_pitches":[5,11,10,5,3,0,3,8,5,1,11,8,3,8,7,0],"shifted_pitches":[5,11,10,5,3,0,3,8,6,1,11,8,3,8,7,0],"swapped_pitches":[5,11,10,5,3,0,3,5,8,1,11,8,3,8,7,0],"shift_direction":1,"question_num":11,"has_decoy":false},{"rt":784.1999999880791,"stimulus":"[A] option 1, [L] option 2, [G] neither","key_press":65,"name":"choice","trial_type":"html-keyboard-response","trial_index":32,"time_elapsed":89884,"internal_node_id":"0.0-32.0","subject":"S1C1669","sona":"41685","block":3,"time":"2021-09-26T16:24:29.704Z","response":"1st","certainty":"high","char":"A","transposition":-2,"order":["shifted","swapped"],"probe_pitches":[0,5,7,0,7,5,7,5,-2,7,0,2,7,0,7,10],"shifted_pitches":[0,5,7,0,7,5,7,6,-2,7,0,2,7,0,7,10],"swapped_pitches":[0,5,7,0,7,5,7,-2,5,7,0,2,7,0,7,10],"shift_direction":1,"question_num":21,"has_decoy":false},{"rt":9211.699999988079,"stimulus":"[A] option 1, [L] option 2, [G] neither","key_press":65,"name":"choice","trial_type":"html-keyboard-response","trial_index":43,"time_elapsed":121612,"internal_node_id":"0.0-43.0","subject":"S1C1669","sona":"41685","block":3,"time":"2021-09-26T16:24:29.704Z","response":"1st","certainty":"high","char":"A","transposition":-3,"order":["shifted","swapped"],"probe_pitches":[5,3,8,5,0,8,-2,10,8,0,10,0,3,0,8,0],"shifted_pitches":[5,3,8,5,0,8,-2,10,9,0,10,0,3,0,8,0],"swapped_pitches":[5,3,8,5,0,8,-2,8,10,0,10,0,3,0,8,0],"shift_direction":1,"question_num":31,"has_decoy":false},{"rt":12791.300000011921,"stimulus":"[A] option 1, [L] option 2, [G] neither","key_press":76,"name":"choice","trial_type":"html-keyboard-response","trial_index":54,"time_elapsed":156886,"internal_node_id":"0.0-54.0","subject":"S1C1669","sona":"41685","block":3,"time":"2021-09-26T16:24:29.704Z","response":"2nd","certainty":"high","char":"L","transposition":-3,"order":["swapped","shifted"],"probe_pitches":[4,5,-1,1,4,-1,0,7,6,9,10,11,7,-1,0,4],"shifted_pitches":[4,5,-1,1,4,-1,0,8,6,9,10,11,7,-1,0,4],"swapped_pitches":[4,5,-1,1,4,-1,0,6,7,9,10,11,7,-1,0,4],"shift_direction":1,"question_num":41,"has_decoy":false},{"rt":2161.7000000178814,"stimulus":"[A] option 1, [L] option 2, [G] neither","key_press":65,"name":"choice","trial_type":"html-keyboard-response","trial_index":65,"time_elapsed":182915,"internal_node_id":"0.0-65.0","subject":"S1C1669","sona":"41685","block":3,"time":"2021-09-26T16:24:29.704Z","response":"1st","certainty":"high","char":"A","transposition":3,"order":["shifted","swapped"],"probe_pitches":[10,8,1,2,9,2,10,0,5,9,-1,0,10,11,10,6],"shifted_pitches":[10,8,1,2,9,2,10,0,4,9,-1,0,10,11,10,6],"swapped_pitches":[10,8,1,2,9,2,10,5,0,9,-1,0,10,11,10,6],"shift_direction":-1,"question_num":51,"has_decoy":false},{"rt":2809,"stimulus":"[A] option 1, [L] option 2, [G] neither","key_press":76,"name":"choice","trial_type":"html-keyboard-response","trial_index":76,"time_elapsed":208424,"internal_node_id":"0.0-76.0","subject":"S1C1669","sona":"41685","block":3,"time":"2021-09-26T16:24:29.704Z","response":"2nd","certainty":"high","char":"L","transposition":-3,"order":["shifted","swapped"],"probe_pitches":[6,9,8,5,0,2,0,6,3,8,9,-1,4,0,-1,3],"shifted_pitches":[6,9,8,5,0,2,0,7,3,8,9,-1,4,0,-1,3],"swapped_pitches":[6,9,8,5,0,2,0,3,6,8,9,-1,4,0,-1,3],"shift_direction":1,"question_num":61,"has_decoy":false},{"rt":3442.5,"stimulus":"[A] option 1, [L] option 2, [G] neither","key_press":76,"name":"choice","trial_type":"html-keyboard-response","trial_index":87,"time_elapsed":234721,"internal_node_id":"0.0-87.0","subject":"S1C1669","sona":"41685","block":3,"time":"2021-09-26T16:24:29.704Z","response":"2nd","certainty":"high","char":"L","transposition":-1,"order":["swapped","shifted"],"probe_pitches":[1,4,7,1,7,-1,7,3,8,-1,6,5,6,1,11,10],"shifted_pitches":[1,4,7,1,7,-1,7,2,8,-1,6,5,6,1,11,10],"swapped_pitches":[1,4,7,1,7,-1,7,8,3,-1,6,5,6,1,11,10],"shift_direction":-1,"question_num":71,"has_decoy":false},{"rt":4620.100000023842,"stimulus":"[A] option 1, [L] option 2, [G] neither","key_press":65,"name":"choice","trial_type":"html-keyboard-response","trial_index":98,"time_elapsed":273734,"internal_node_id":"0.0-98.0","subject":"S1C1669","sona":"41685","block":3,"time":"2021-09-26T16:24:29.704Z","response":"1st","certainty":"high","char":"A","transposition":1,"order":["swapped","shifted"],"probe_pitches":[8,6,9,2,3,8,6,-1,0,2,0,-1,7,6,10,5],"shifted_pitches":[8,6,9,2,3,8,6,-1,1,2,0,-1,7,6,10,5],"swapped_pitches":[8,6,9,2,3,8,6,0,-1,2,0,-1,7,6,10,5],"shift_direction":1,"question_num":81,"has_decoy":false},{"rt":1471.199999988079,"stimulus":"[A] option 1, [L] option 2, [G] neither","key_press":76,"name":"choice","trial_type":"html-keyboard-response","trial_index":109,"time_elapsed":298124,"internal_node_id":"0.0-109.0","subject":"S1C1669","sona":"41685","block":3,"time":"2021-09-26T16:24:29.704Z","response":"2nd","certainty":"high","char":"L","transposition":0,"order":["shifted","swapped"],"probe_pitches":[-2,0,-2,2,10,5,2,5,7,2,0,-2,7,0,5,7],"shifted_pitches":[-2,0,-2,2,10,5,2,5,6,2,0,-2,7,0,5,7],"swapped_pitches":[-2,0,-2,2,10,5,2,7,5,2,0,-2,7,0,5,7],"shift_direction":-1,"question_num":91,"has_decoy":false},{"rt":4719.700000017881,"stimulus":"[A] option 1, [L] option 2, [G] neither","key_press":65,"name":"choice","trial_type":"html-keyboard-response","trial_index":120,"time_elapsed":330251,"internal_node_id":"0.0-120.0","subject":"S1C1669","sona":"41685","block":3,"time":"2021-09-26T16:24:29.704Z","response":"1st","certainty":"high","char":"A","transposition":-2,"order":["shifted","swapped"],"probe_pitches":[3,1,-2,1,10,3,8,5,-2,3,-2,1,8,10,8,5],"shifted_pitches":[3,1,-2,1,10,3,8,4,-2,3,-2,1,8,10,8,5],"swapped_pitches":[3,1,-2,1,10,3,8,-2,5,3,-2,1,8,10,8,5],"shift_direction":-1,"question_num":101,"has_decoy":false},{"rt":5572.699999988079,"stimulus":"[A] option 1, [L] option 2, [G] neither","key_press":76,"name":"choice","trial_type":"html-keyboard-response","trial_index":131,"time_elapsed":358544,"internal_node_id":"0.0-131.0","subject":"S1C1669","sona":"41685","block":3,"time":"2021-09-26T16:24:29.704Z","response":"2nd","certainty":"high","char":"L","transposition":-2,"order":["shifted","swapped"],"probe_pitches":[4,6,5,-1,1,4,10,1,2,8,4,2,-1,6,10,4],"shifted_pitches":[4,6,5,-1,1,4,10,1,3,8,4,2,-1,6,10,4],"swapped_pitches":[4,6,5,-1,1,4,10,2,1,8,4,2,-1,6,10,4],"shift_direction":1,"question_num":111,"has_decoy":false},{"rt":5306.699999988079,"stimulus":"[A] option 1, [L] option 2, [G] neither","key_press":76,"name":"choice","trial_type":"html-keyboard-response","trial_index":142,"time_elapsed":403707,"internal_node_id":"0.0-142.0","subject":"S1C1669","sona":"41685","block":3,"time":"2021-09-26T16:24:29.704Z","response":"2nd","certainty":"high","char":"L","transposition":-1,"order":["swapped","shifted"],"probe_pitches":[-2,1,3,6,1,-2,6,10,1,3,8,10,3,10,1,6],"shifted_pitches":[-2,1,3,6,1,-2,6,11,1,3,8,10,3,10,1,6],"swapped_pitches":[-2,1,3,6,1,-2,6,1,10,3,8,10,3,10,1,6],"shift_direction":1,"question_num":121,"has_decoy":false},{"rt":1545.2000000178814,"stimulus":"[A] option 1, [L] option 2, [G] neither","key_press":76,"name":"choice","trial_type":"html-keyboard-response","trial_index":153,"time_elapsed":427565,"internal_node_id":"0.0-153.0","subject":"S1C1669","sona":"41685","block":3,"time":"2021-09-26T16:24:29.704Z","response":"2nd","certainty":"high","char":"L","transposition":1,"order":["swapped","shifted"],"probe_pitches":[10,8,10,5,8,-2,1,10,3,-2,10,1,8,10,3,1],"shifted_pitches":[10,8,10,5,8,-2,1,9,3,-2,10,1,8,10,3,1],"swapped_pitches":[10,8,10,5,8,-2,1,3,10,-2,10,1,8,10,3,1],"shift_direction":-1,"question_num":131,"has_decoy":false},{"rt":275.19999998807907,"stimulus":"[A] option 1, [L] option 2, [G] neither","key_press":76,"name":"choice","trial_type":"html-keyboard-response","trial_index":164,"time_elapsed":452400,"internal_node_id":"0.0-164.0","subject":"S1C1669","sona":"41685","block":3,"time":"2021-09-26T16:24:29.704Z","response":"2nd","certainty":"high","char":"L","transposition":3,"order":["swapped","shifted"],"probe_pitches":[5,10,5,7,3,0,-2,10,7,5,7,5,10,0,5,-2],"shifted_pitches":[5,10,5,7,3,0,-2,10,6,5,7,5,10,0,5,-2],"swapped_pitches":[5,10,5,7,3,0,-2,7,10,5,7,5,10,0,5,-2],"shift_direction":-1,"question_num":141,"has_decoy":false},{"rt":3240.2000000178814,"stimulus":"[A] option 1, [L] option 2, [G] neither","key_press":76,"name":"choice","trial_type":"html-keyboard-response","trial_index":175,"time_elapsed":478340,"internal_node_id":"0.0-175.0","subject":"S1C1669","sona":"41685","block":3,"time":"2021-09-26T16:24:29.704Z","response":"2nd","certainty":"high","char":"L","transposition":-1,"order":["swapped","shifted"],"probe_pitches":[9,4,3,11,2,1,5,9,11,7,-1,11,3,7,8,7],"shifted_pitches":[9,4,3,11,2,1,5,9,10,7,-1,11,3,7,8,7],"swapped_pitches":[9,4,3,11,2,1,5,11,9,7,-1,11,3,7,8,7],"shift_direction":-1,"question_num":151,"has_decoy":false},{"rt":582.1999999880791,"stimulus":"[A] option 1, [L] option 2, [G] neither","key_press":65,"name":"choice","trial_type":"html-keyboard-response","trial_index":186,"time_elapsed":505264,"internal_node_id":"0.0-186.0","subject":"S1C1669","sona":"41685","block":3,"time":"2021-09-26T16:24:29.704Z","response":"1st","certainty":"high","char":"A","transposition":-3,"order":["shifted","swapped"],"probe_pitches":[0,-2,3,8,3,0,10,0,8,10,0,3,5,-2,8,0],"shifted_pitches":[0,-2,3,8,3,0,10,-1,8,10,0,3,5,-2,8,0],"swapped_pitches":[0,-2,3,8,3,0,10,8,0,10,0,3,5,-2,8,0],"shift_direction":-1,"question_num":161,"has_decoy":false},{"rt":1833.5,"stimulus":"[A] option 1, [L] option 2, [G] neither","key_press":76,"name":"choice","trial_type":"html-keyboard-response","trial_index":197,"time_elapsed":531848,"internal_node_id":"0.0-197.0","subject":"S1C1669","sona":"41685","block":3,"time":"2021-09-26T16:24:29.704Z","response":"2nd","certainty":"high","char":"L","transposition":-2,"order":["shifted","swapped"],"probe_pitches":[7,6,10,3,11,3,-1,6,0,2,11,10,8,0,1,9],"shifted_pitches":[7,6,10,3,11,3,-1,5,0,2,11,10,8,0,1,9],"swapped_pitches":[7,6,10,3,11,3,-1,0,6,2,11,10,8,0,1,9],"shift_direction":-1,"question_num":171,"has_decoy":false},{"rt":771.2999999821186,"stimulus":"[A] option 1, [L] option 2, [G] neither","key_press":76,"name":"choice","trial_type":"html-keyboard-response","trial_index":208,"time_elapsed":555172,"internal_node_id":"0.0-208.0","subject":"S1C1669","sona":"41685","block":3,"time":"2021-09-26T16:24:29.704Z","response":"2nd","certainty":"high","char":"L","transposition":2,"order":["swapped","shifted"],"probe_pitches":[10,11,7,-1,8,1,5,10,0,2,4,8,5,8,11,10],"shifted_pitches":[10,11,7,-1,8,1,5,9,0,2,4,8,5,8,11,10],"swapped_pitches":[10,11,7,-1,8,1,5,0,10,2,4,8,5,8,11,10],"shift_direction":-1,"question_num":181,"has_decoy":false},{"rt":260.19999998807907,"stimulus":"[A] option 1, [L] option 2, [G] neither","key_press":76,"name":"choice","trial_type":"html-keyboard-response","trial_index":219,"time_elapsed":579099,"internal_node_id":"0.0-219.0","subject":"S1C1669","sona":"41685","block":3,"time":"2021-09-26T16:24:29.704Z","response":"2nd","certainty":"high","char":"L","transposition":2,"order":["swapped","shifted"],"probe_pitches":[8,10,3,8,3,10,6,10,8,-2,6,8,6,3,1,6],"shifted_pitches":[8,10,3,8,3,10,6,10,9,-2,6,8,6,3,1,6],"swapped_pitches":[8,10,3,8,3,10,6,8,10,-2,6,8,6,3,1,6],"shift_direction":1,"question_num":191,"has_decoy":false}]