[{"rt":2663.199999988079,"stimulus":"[A] option 1, [L] option 2, [G] neither","key_press":65,"name":"choice","trial_type":"html-keyboard-response","trial_index":10,"time_elapsed":43044,"internal_node_id":"0.0-10.0","subject":"S1C1669","sona":"41685","block":2,"time":"2021-09-26T16:14:45.624Z","response":"1st","certainty":"high","char":"A","transposition":-2,"order":["swapped","shifted"],"probe_pitches":[-1,2,6,11,4,6,11,2,4,6,-1,6,9,11,2,-1],"shifted_pitches":[-1,2,6,11,4,6,11,2,3,6,-1,6,9,11,2,-1],"swapped_pitches":[-1,2,6,11,4,6,11,4,2,6,-1,6,9,11,2,-1],"shift_direction":-1,"question_num":1,"has_decoy":false},{"rt":3777.800000011921,"stimulus":"[A] option 1, [L] option 2, [G] neither","key_press":65,"name":"choice","trial_type":"html-keyboard-response","trial_index":21,"time_elapsed":76126,"internal_node_id":"0.0-21.0","subject":"S1C1669","sona":"41685","block":2,"time":"2021-09-26T16:14:45.624Z","response":"1st","certainty":"high","char":"A","transposition":0,"order":["swapped","shifted"],"probe_pitches":[3,6,1,3,-1,1,11,8,-1,3,-1,1,3,11,6,1],"shifted_pitches":[3,6,1,3,-1,1,11,8,0,3,-1,1,3,11,6,1],"swapped_pitches":[3,6,1,3,-1,1,11,-1,8,3,-1,1,3,11,6,1],"shift_direction":1,"question_num":11,"has_decoy":false},{"rt":9991.90000000596,"stimulus":"[A] option 1, [L] option 2, [G] neither","key_press":76,"name":"choice","trial_type":"html-keyboard-response","trial_index":32,"time_elapsed":114790,"internal_node_id":"0.0-32.0","subject":"S1C1669","sona":"41685","block":2,"time":"2021-09-26T16:14:45.624Z","response":"2nd","certainty":"high","char":"L","transposition":-1,"order":["shifted","swapped"],"probe_pitches":[13,8,4,12,5,6,12,6,11,13,6,5,13,10,15,4],"shifted_pitches":[13,8,4,12,5,6,12,7,11,13,6,5,13,10,15,4],"swapped_pitches":[13,8,4,12,5,6,12,11,6,13,6,5,13,10,15,4],"shift_direction":1,"question_num":21,"has_decoy":false},{"rt":1610.2999999821186,"stimulus":"[A] option 1, [L] option 2, [G] neither","key_press":76,"name":"choice","trial_type":"html-keyboard-response","trial_index":43,"time_elapsed":138707,"internal_node_id":"0.0-43.0","subject":"S1C1669","sona":"41685","block":2,"time":"2021-09-26T16:14:45.624Z","response":"2nd","certainty":"high","char":"L","transposition":-2,"order":["swapped","shifted"],"probe_pitches":[-1,4,11,6,11,6,4,6,-1,2,9,2,4,-1,6,4],"shifted_pitches":[-1,4,11,6,11,6,4,6,0,2,9,2,4,-1,6,4],"swapped_pitches":[-1,4,11,6,11,6,4,-1,6,2,9,2,4,-1,6,4],"shift_direction":1,"question_num":31,"has_decoy":false},{"rt":1094.0999999940395,"stimulus":"[A] option 1, [L] option 2, [G] neither","key_press":76,"name":"choice","trial_type":"html-keyboard-response","trial_index":54,"time_elapsed":170872,"internal_node_id":"0.0-54.0","subject":"S1C1669","sona":"41685","block":2,"time":"2021-09-26T16:14:45.624Z","response":"2nd","certainty":"high","char":"L","transposition":2,"order":["shifted","swapped"],"probe_pitches":[9,6,4,11,9,6,11,9,4,1,11,1,11,-1,9,-1],"shifted_pitches":[9,6,4,11,9,6,11,9,3,1,11,1,11,-1,9,-1],"swapped_pitches":[9,6,4,11,9,6,11,4,9,1,11,1,11,-1,9,-1],"shift_direction":-1,"question_num":41,"has_decoy":false},{"rt":2300.300000011921,"stimulus":"[A] option 1, [L] option 2, [G] neither","key_press":65,"name":"choice","trial_type":"html-keyboard-response","trial_index":65,"time_elapsed":203618,"internal_node_id":"0.0-65.0","subject":"S1C1669","sona":"41685","block":2,"time":"2021-09-26T16:14:45.624Z","response":"1st","certainty":"high","char":"A","transposition":1,"order":["shifted","swapped"],"probe_pitches":[4,8,6,1,4,1,-1,11,6,-1,6,11,-1,11,8,1],"shifted_pitches":[4,8,6,1,4,1,-1,11,7,-1,6,11,-1,11,8,1],"swapped_pitches":[4,8,6,1,4,1,-1,6,11,-1,6,11,-1,11,8,1],"shift_direction":1,"question_num":51,"has_decoy":false},{"rt":1676.7999999821186,"stimulus":"[A] option 1, [L] option 2, [G] neither","key_press":76,"name":"choice","trial_type":"html-keyboard-response","trial_index":76,"time_elapsed":232301,"internal_node_id":"0.0-76.0","subject":"S1C1669","sona":"41685","block":2,"time":"2021-09-26T16:14:45.624Z","response":"2nd","certainty":"high","char":"L","transposition":-1,"order":["shifted","swapped"],"probe_pitches":[11,6,-1,6,1,11,8,1,11,8,11,1,8,11,8,3],"shifted_pitches":[11,6,-1,6,1,11,8,0,11,8,11,1,8,11,8,3],"swapped_pitches":[11,6,-1,6,1,11,8,11,1,8,11,1,8,11,8,3],"shift_direction":-1,"question_num":61,"has_decoy":false},{"rt":4791.5999999940395,"stimulus":"[A] option 1, [L] option 2, [G] neither","key_press":65,"name":"choice","trial_type":"html-keyboard-response","trial_index":87,"time_elapsed":260156,"internal_node_id":"0.0-87.0","subject":"S1C1669","sona":"41685","block":2,"time":"2021-09-26T16:14:45.624Z","response":"1st","certainty":"high","char":"A","transposition":3,"order":["shifted","swapped"],"probe_pitches":[5,8,11,15,10,7,14,4,7,9,10,5,9,14,10,11],"shifted_pitches":[5,8,11,15,10,7,14,4,6,9,10,5,9,14,10,11],"swapped_pitches":[5,8,11,15,10,7,14,7,4,9,10,5,9,14,10,11],"shift_direction":-1,"question_num":71,"has_decoy":false},{"rt":620.9000000059605,"stimulus":"[A] option 1, [L] option 2, [G] neither","key_press":76,"name":"choice","trial_type":"html-keyboard-response","trial_index":98,"time_elapsed":287715,"internal_node_id":"0.0-98.0","subject":"S1C1669","sona":"41685","block":2,"time":"2021-09-26T16:14:45.624Z","response":"2nd","certainty":"high","char":"L","transposition":-1,"order":["swapped","shifted"],"probe_pitches":[8,11,8,4,11,6,8,11,-1,8,11,4,-1,8,11,1],"shifted_pitches":[8,11,8,4,11,6,8,10,-1,8,11,4,-1,8,11,1],"swapped_pitches":[8,11,8,4,11,6,8,-1,11,8,11,4,-1,8,11,1],"shift_direction":-1,"question_num":81,"has_decoy":false},{"rt":396.40000000596046,"stimulus":"[A] option 1, [L] option 2, [G] neither","key_press":76,"name":"choice","trial_type":"html-keyboard-response","trial_index":109,"time_elapsed":311598,"internal_node_id":"0.0-109.0","subject":"S1C1669","sona":"41685","block":2,"time":"2021-09-26T16:14:45.624Z","response":"2nd","certainty":"high","char":"L","transposition":-3,"order":["swapped","shifted"],"probe_pitches":[11,9,4,-1,7,9,11,2,-1,7,9,4,2,9,11,2],"shifted_pitches":[11,9,4,-1,7,9,11,3,-1,7,9,4,2,9,11,2],"swapped_pitches":[11,9,4,-1,7,9,11,-1,2,7,9,4,2,9,11,2],"shift_direction":1,"question_num":91,"has_decoy":false},{"rt":1430.2000000178814,"stimulus":"[A] option 1, [L] option 2, [G] neither","key_press":76,"name":"choice","trial_type":"html-keyboard-response","trial_index":120,"time_elapsed":335364,"internal_node_id":"0.0-120.0","subject":"S1C1669","sona":"41685","block":2,"time":"2021-09-26T16:14:45.624Z","response":"2nd","certainty":"high","char":"L","transposition":0,"order":["shifted","swapped"],"probe_pitches":[10,4,6,10,4,14,6,8,13,7,4,3,8,7,11,4],"shifted_pitches":[10,4,6,10,4,14,6,8,12,7,4,3,8,7,11,4],"swapped_pitches":[10,4,6,10,4,14,6,13,8,7,4,3,8,7,11,4],"shift_direction":-1,"question_num":101,"has_decoy":false},{"rt":1172.0999999940395,"stimulus":"[A] option 1, [L] option 2, [G] neither","key_press":65,"name":"choice","trial_type":"html-keyboard-response","trial_index":131,"time_elapsed":359364,"internal_node_id":"0.0-131.0","subject":"S1C1669","sona":"41685","block":2,"time":"2021-09-26T16:14:45.624Z","response":"1st","certainty":"high","char":"A","transposition":-2,"order":["swapped","shifted"],"probe_pitches":[4,6,5,13,11,7,11,10,4,13,7,11,6,10,4,6],"shifted_pitches":[4,6,5,13,11,7,11,9,4,13,7,11,6,10,4,6],"swapped_pitches":[4,6,5,13,11,7,11,4,10,13,7,11,6,10,4,6],"shift_direction":-1,"question_num":111,"has_decoy":false},{"rt":1798.300000011921,"stimulus":"[A] option 1, [L] option 2, [G] neither","key_press":65,"name":"choice","trial_type":"html-keyboard-response","trial_index":142,"time_elapsed":384243,"internal_node_id":"0.0-142.0","subject":"S1C1669","sona":"41685","block":2,"time":"2021-09-26T16:14:45.624Z","response":"1st","certainty":"high","char":"A","transposition":-3,"order":["shifted","swapped"],"probe_pitches":[4,-1,4,-1,1,-1,6,11,1,-1,6,9,6,9,4,6],"shifted_pitches":[4,-1,4,-1,1,-1,6,12,1,-1,6,9,6,9,4,6],"swapped_pitches":[4,-1,4,-1,1,-1,6,1,11,-1,6,9,6,9,4,6],"shift_direction":1,"question_num":121,"has_decoy":false},{"rt":4331.9000000059605,"stimulus":"[A] option 1, [L] option 2, [G] neither","key_press":76,"name":"choice","trial_type":"html-keyboard-response","trial_index":153,"time_elapsed":413810,"internal_node_id":"0.0-153.0","subject":"S1C1669","sona":"41685","block":2,"time":"2021-09-26T16:14:45.624Z","response":"2nd","certainty":"high","char":"L","transposition":-3,"order":["swapped","shifted"],"probe_pitches":[15,11,8,11,6,10,7,11,12,14,8,5,10,7,12,8],"shifted_pitches":[15,11,8,11,6,10,7,11,13,14,8,5,10,7,12,8],"swapped_pitches":[15,11,8,11,6,10,7,12,11,14,8,5,10,7,12,8],"shift_direction":1,"question_num":131,"has_decoy":false},{"rt":550.6999999880791,"stimulus":"[A] option 1, [L] option 2, [G] neither","key_press":76,"name":"choice","trial_type":"html-keyboard-response","trial_index":164,"time_elapsed":438414,"internal_node_id":"0.0-164.0","subject":"S1C1669","sona":"41685","block":2,"time":"2021-09-26T16:14:45.624Z","response":"2nd","certainty":"high","char":"L","transposition":-1,"order":["swapped","shifted"],"probe_pitches":[10,12,15,11,13,3,7,15,10,13,12,7,13,8,4,13],"shifted_pitches":[10,12,15,11,13,3,7,14,10,13,12,7,13,8,4,13],"swapped_pitches":[10,12,15,11,13,3,7,10,15,13,12,7,13,8,4,13],"shift_direction":-1,"question_num":141,"has_decoy":false},{"rt":4541.4000000059605,"stimulus":"[A] option 1, [L] option 2, [G] neither","key_press":65,"name":"choice","trial_type":"html-keyboard-response","trial_index":175,"time_elapsed":465299,"internal_node_id":"0.0-175.0","subject":"S1C1669","sona":"41685","block":2,"time":"2021-09-26T16:14:45.624Z","response":"1st","certainty":"high","char":"A","transposition":2,"order":["shifted","swapped"],"probe_pitches":[6,3,6,7,15,10,4,13,9,5,13,10,11,15,12,9],"shifted_pitches":[6,3,6,7,15,10,4,13,8,5,13,10,11,15,12,9],"swapped_pitches":[6,3,6,7,15,10,4,9,13,5,13,10,11,15,12,9],"shift_direction":-1,"question_num":151,"has_decoy":false},{"rt":12052.700000017881,"stimulus":"[A] option 1, [L] option 2, [G] neither","key_press":76,"name":"choice","trial_type":"html-keyboard-response","trial_index":186,"time_elapsed":500749,"internal_node_id":"0.0-186.0","subject":"S1C1669","sona":"41685","block":2,"time":"2021-09-26T16:14:45.624Z","response":"2nd","certainty":"high","char":"L","transposition":1,"order":["swapped","shifted"],"probe_pitches":[13,9,7,9,5,3,4,12,10,13,9,15,7,12,4,6],"shifted_pitches":[13,9,7,9,5,3,4,12,11,13,9,15,7,12,4,6],"swapped_pitches":[13,9,7,9,5,3,4,10,12,13,9,15,7,12,4,6],"shift_direction":1,"question_num":161,"has_decoy":false},{"rt":3933.4000000059605,"stimulus":"[A] option 1, [L] option 2, [G] neither","key_press":65,"name":"choice","trial_type":"html-keyboard-response","trial_index":197,"time_elapsed":530553,"internal_node_id":"0.0-197.0","subject":"S1C1669","sona":"41685","block":2,"time":"2021-09-26T16:14:45.624Z","response":"1st","certainty":"high","char":"A","transposition":-3,"order":["swapped","shifted"],"probe_pitches":[5,3,4,12,13,9,11,9,6,13,7,9,5,3,4,9],"shifted_pitches":[5,3,4,12,13,9,11,10,6,13,7,9,5,3,4,9],"swapped_pitches":[5,3,4,12,13,9,11,6,9,13,7,9,5,3,4,9],"shift_direction":1,"question_num":171,"has_decoy":false},{"rt":373.59999999403954,"stimulus":"[A] option 1, [L] option 2, [G] neither","key_press":76,"name":"choice","trial_type":"html-keyboard-response","trial_index":208,"time_elapsed":558532,"internal_node_id":"0.0-208.0","subject":"S1C1669","sona":"41685","block":2,"time":"2021-09-26T16:14:45.624Z","response":"2nd","certainty":"high","char":"L","transposition":3,"order":["shifted","swapped"],"probe_pitches":[4,9,7,11,2,7,-1,11,9,4,2,7,2,-1,9,7],"shifted_pitches":[4,9,7,11,2,7,-1,10,9,4,2,7,2,-1,9,7],"swapped_pitches":[4,9,7,11,2,7,-1,9,11,4,2,7,2,-1,9,7],"shift_direction":-1,"question_num":181,"has_decoy":false},{"rt":269.10000002384186,"stimulus":"[A] option 1, [L] option 2, [G] neither","key_press":76,"name":"choice","trial_type":"html-keyboard-response","trial_index":219,"time_elapsed":581194,"internal_node_id":"0.0-219.0","subject":"S1C1669","sona":"41685","block":2,"time":"2021-09-26T16:14:45.624Z","response":"2nd","certainty":"high","char":"L","transposition":-2,"order":["shifted","swapped"],"probe_pitches":[9,8,3,7,15,8,13,4,12,14,12,7,8,15,6,12],"shifted_pitches":[9,8,3,7,15,8,13,5,12,14,12,7,8,15,6,12],"swapped_pitches":[9,8,3,7,15,8,13,12,4,14,12,7,8,15,6,12],"shift_direction":1,"question_num":191,"has_decoy":false}]