[{"rt":883.9000000059605,"stimulus":"[A] option 1, [L] option 2, [G] neither","key_press":65,"name":"choice","trial_type":"html-keyboard-response","trial_index":10,"time_elapsed":24981,"internal_node_id":"0.0-10.0","subject":"S1C1669","sona":"41685","block":5,"time":"2021-09-26T16:42:39.750Z","response":"1st","certainty":"high","char":"A","transposition":1,"order":["shifted","swapped"],"probe_pitches":[4,10,6,12,9,12,15,11,4,6,8,6,11,4,6,15],"shifted_pitches":[4,10,6,12,9,12,15,11,5,6,8,6,11,4,6,15],"swapped_pitches":[4,10,6,12,9,12,15,4,11,6,8,6,11,4,6,15],"shift_direction":1,"question_num":1,"has_decoy":false},{"rt":3497.7000000178814,"stimulus":"[A] option 1, [L] option 2, [G] neither","key_press":65,"name":"choice","trial_type":"html-keyboard-response","trial_index":21,"time_elapsed":51737,"internal_node_id":"0.0-21.0","subject":"S1C1669","sona":"41685","block":5,"time":"2021-09-26T16:42:39.750Z","response":"1st","certainty":"high","char":"A","transposition":-1,"order":["swapped","shifted"],"probe_pitches":[4,7,14,13,12,6,14,12,7,10,14,4,9,7,3,4],"shifted_pitches":[4,7,14,13,12,6,14,11,7,10,14,4,9,7,3,4],"swapped_pitches":[4,7,14,13,12,6,14,7,12,10,14,4,9,7,3,4],"shift_direction":-1,"question_num":11,"has_decoy":false},{"rt":852.9000000059605,"stimulus":"[A] option 1, [L] option 2, [G] neither","key_press":76,"name":"choice","trial_type":"html-keyboard-response","trial_index":32,"time_elapsed":75551,"internal_node_id":"0.0-32.0","subject":"S1C1669","sona":"41685","block":5,"time":"2021-09-26T16:42:39.750Z","response":"2nd","certainty":"high","char":"L","transposition":-3,"order":["swapped","shifted"],"probe_pitches":[12,8,4,12,6,8,6,3,13,6,9,11,6,13,6,7],"shifted_pitches":[12,8,4,12,6,8,6,3,14,6,9,11,6,13,6,7],"swapped_pitches":[12,8,4,12,6,8,6,13,3,6,9,11,6,13,6,7],"shift_direction":1,"question_num":21,"has_decoy":false},{"rt":494.90000000596046,"stimulus":"[A] option 1, [L] option 2, [G] neither","key_press":76,"name":"choice","trial_type":"html-keyboard-response","trial_index":43,"time_elapsed":100816,"internal_node_id":"0.0-43.0","subject":"S1C1669","sona":"41685","block":5,"time":"2021-09-26T16:42:39.750Z","response":"2nd","certainty":"high","char":"L","transposition":-3,"order":["swapped","shifted"],"probe_pitches":[6,10,5,9,12,4,14,7,13,15,12,15,4,6,3,5],"shifted_pitches":[6,10,5,9,12,4,14,8,13,15,12,15,4,6,3,5],"swapped_pitches":[6,10,5,9,12,4,14,13,7,15,12,15,4,6,3,5],"shift_direction":1,"question_num":31,"has_decoy":false},{"rt":257.5,"stimulus":"[A] option 1, [L] option 2, [G] neither","key_press":76,"name":"choice","trial_type":"html-keyboard-response","trial_index":54,"time_elapsed":127351,"internal_node_id":"0.0-54.0","subject":"S1C1669","sona":"41685","block":5,"time":"2021-09-26T16:42:39.750Z","response":"2nd","certainty":"high","char":"L","transposition":-1,"order":["swapped","shifted"],"probe_pitches":[11,6,11,9,11,6,11,4,9,6,-1,6,11,9,11,1],"shifted_pitches":[11,6,11,9,11,6,11,4,10,6,-1,6,11,9,11,1],"swapped_pitches":[11,6,11,9,11,6,11,9,4,6,-1,6,11,9,11,1],"shift_direction":1,"question_num":41,"has_decoy":false},{"rt":373.69999998807907,"stimulus":"[A] option 1, [L] option 2, [G] neither","key_press":65,"name":"choice","trial_type":"html-keyboard-response","trial_index":65,"time_elapsed":150739,"internal_node_id":"0.0-65.0","subject":"S1C1669","sona":"41685","block":5,"time":"2021-09-26T16:42:39.750Z","response":"1st","certainty":"high","char":"A","transposition":-1,"order":["shifted","swapped"],"probe_pitches":[9,4,-1,7,4,-1,9,-1,7,2,4,11,4,9,4,11],"shifted_pitches":[9,4,-1,7,4,-1,9,0,7,2,4,11,4,9,4,11],"swapped_pitches":[9,4,-1,7,4,-1,9,7,-1,2,4,11,4,9,4,11],"shift_direction":1,"question_num":51,"has_decoy":false},{"rt":1351,"stimulus":"[A] option 1, [L] option 2, [G] neither","key_press":65,"name":"choice","trial_type":"html-keyboard-response","trial_index":76,"time_elapsed":176996,"internal_node_id":"0.0-76.0","subject":"S1C1669","sona":"41685","block":5,"time":"2021-09-26T16:42:39.750Z","response":"1st","certainty":"high","char":"A","transposition":3,"order":["swapped","shifted"],"probe_pitches":[8,6,-1,3,-1,1,8,3,11,6,8,11,1,3,6,1],"shifted_pitches":[8,6,-1,3,-1,1,8,4,11,6,8,11,1,3,6,1],"swapped_pitches":[8,6,-1,3,-1,1,8,11,3,6,8,11,1,3,6,1],"shift_direction":1,"question_num":61,"has_decoy":false},{"rt":2939.5999999940395,"stimulus":"[A] option 1, [L] option 2, [G] neither","key_press":76,"name":"choice","trial_type":"html-keyboard-response","trial_index":87,"time_elapsed":204892,"internal_node_id":"0.0-87.0","subject":"S1C1669","sona":"41685","block":5,"time":"2021-09-26T16:42:39.750Z","response":"2nd","certainty":"high","char":"L","transposition":1,"order":["shifted","swapped"],"probe_pitches":[1,-1,1,-1,8,6,-1,1,11,-1,8,3,-1,6,3,11],"shifted_pitches":[1,-1,1,-1,8,6,-1,2,11,-1,8,3,-1,6,3,11],"swapped_pitches":[1,-1,1,-1,8,6,-1,11,1,-1,8,3,-1,6,3,11],"shift_direction":1,"question_num":71,"has_decoy":false},{"rt":1891.0999999940395,"stimulus":"[A] option 1, [L] option 2, [G] neither","key_press":76,"name":"choice","trial_type":"html-keyboard-response","trial_index":98,"time_elapsed":232357,"internal_node_id":"0.0-98.0","subject":"S1C1669","sona":"41685","block":5,"time":"2021-09-26T16:42:39.750Z","response":"2nd","certainty":"high","char":"L","transposition":3,"order":["swapped","shifted"],"probe_pitches":[9,5,3,5,8,15,8,9,11,3,12,3,15,7,11,12],"shifted_pitches":[9,5,3,5,8,15,8,10,11,3,12,3,15,7,11,12],"swapped_pitches":[9,5,3,5,8,15,8,11,9,3,12,3,15,7,11,12],"shift_direction":1,"question_num":81,"has_decoy":false},{"rt":3701.0999999940395,"stimulus":"[A] option 1, [L] option 2, [G] neither","key_press":71,"name":"choice","trial_type":"html-keyboard-response","trial_index":109,"time_elapsed":265733,"internal_node_id":"0.0-109.0","subject":"S1C1669","sona":"41685","block":5,"time":"2021-09-26T16:42:39.750Z","response":"neither","certainty":"high","char":"G","transposition":0,"order":["shifted","swapped"],"probe_pitches":[7,5,8,7,14,12,4,11,14,5,8,6,9,6,11,14],"shifted_pitches":[7,5,8,7,14,12,4,11,13,5,8,6,9,6,11,14],"swapped_pitches":[7,5,8,7,14,12,4,14,11,5,8,6,9,6,11,14],"shift_direction":-1,"question_num":91,"has_decoy":false},{"rt":522.9000000059605,"stimulus":"[A] option 1, [L] option 2, [G] neither","key_press":76,"name":"choice","trial_type":"html-keyboard-response","trial_index":120,"time_elapsed":291981,"internal_node_id":"0.0-120.0","subject":"S1C1669","sona":"41685","block":5,"time":"2021-09-26T16:42:39.750Z","response":"2nd","certainty":"high","char":"L","transposition":0,"order":["swapped","shifted"],"probe_pitches":[-1,2,-1,4,11,4,11,7,9,4,2,11,2,7,-1,2],"shifted_pitches":[-1,2,-1,4,11,4,11,7,10,4,2,11,2,7,-1,2],"swapped_pitches":[-1,2,-1,4,11,4,11,9,7,4,2,11,2,7,-1,2],"shift_direction":1,"question_num":101,"has_decoy":false},{"rt":262.59999999403954,"stimulus":"[A] option 1, [L] option 2, [G] neither","key_press":76,"name":"choice","trial_type":"html-keyboard-response","trial_index":131,"time_elapsed":315242,"internal_node_id":"0.0-131.0","subject":"S1C1669","sona":"41685","block":5,"time":"2021-09-26T16:42:39.750Z","response":"2nd","certainty":"high","char":"L","transposition":2,"order":["swapped","shifted"],"probe_pitches":[4,-1,4,-1,4,11,4,6,-1,4,6,-1,4,9,2,11],"shifted_pitches":[4,-1,4,-1,4,11,4,6,-2,4,6,-1,4,9,2,11],"swapped_pitches":[4,-1,4,-1,4,11,4,-1,6,4,6,-1,4,9,2,11],"shift_direction":-1,"question_num":111,"has_decoy":false},{"rt":4773.300000011921,"stimulus":"[A] option 1, [L] option 2, [G] neither","key_press":71,"name":"choice","trial_type":"html-keyboard-response","trial_index":142,"time_elapsed":345735,"internal_node_id":"0.0-142.0","subject":"S1C1669","sona":"41685","block":5,"time":"2021-09-26T16:42:39.750Z","response":"neither","certainty":"high","char":"G","transposition":-3,"order":["swapped","shifted"],"probe_pitches":[8,11,8,11,4,11,1,8,4,-1,6,11,-1,4,6,8],"shifted_pitches":[8,11,8,11,4,11,1,8,3,-1,6,11,-1,4,6,8],"swapped_pitches":[8,11,8,11,4,11,1,4,8,-1,6,11,-1,4,6,8],"shift_direction":-1,"question_num":121,"has_decoy":false},{"rt":297.5,"stimulus":"[A] option 1, [L] option 2, [G] neither","key_press":76,"name":"choice","trial_type":"html-keyboard-response","trial_index":153,"time_elapsed":374004,"internal_node_id":"0.0-153.0","subject":"S1C1669","sona":"41685","block":5,"time":"2021-09-26T16:42:39.750Z","response":"2nd","certainty":"high","char":"L","transposition":2,"order":["swapped","shifted"],"probe_pitches":[8,11,9,3,12,8,9,8,6,10,11,12,4,11,5,13],"shifted_pitches":[8,11,9,3,12,8,9,7,6,10,11,12,4,11,5,13],"swapped_pitches":[8,11,9,3,12,8,9,6,8,10,11,12,4,11,5,13],"shift_direction":-1,"question_num":131,"has_decoy":false},{"rt":259.59999999403954,"stimulus":"[A] option 1, [L] option 2, [G] neither","key_press":65,"name":"choice","trial_type":"html-keyboard-response","trial_index":164,"time_elapsed":396281,"internal_node_id":"0.0-164.0","subject":"S1C1669","sona":"41685","block":5,"time":"2021-09-26T16:42:39.750Z","response":"1st","certainty":"high","char":"A","transposition":-2,"order":["shifted","swapped"],"probe_pitches":[14,10,5,10,13,3,4,10,8,11,7,4,12,8,12,4],"shifted_pitches":[14,10,5,10,13,3,4,10,9,11,7,4,12,8,12,4],"swapped_pitches":[14,10,5,10,13,3,4,8,10,11,7,4,12,8,12,4],"shift_direction":1,"question_num":141,"has_decoy":false},{"rt":848.7999999821186,"stimulus":"[A] option 1, [L] option 2, [G] neither","key_press":76,"name":"choice","trial_type":"html-keyboard-response","trial_index":175,"time_elapsed":422411,"internal_node_id":"0.0-175.0","subject":"S1C1669","sona":"41685","block":5,"time":"2021-09-26T16:42:39.750Z","response":"2nd","certainty":"high","char":"L","transposition":-2,"order":["shifted","swapped"],"probe_pitches":[11,6,8,1,8,6,-1,6,8,4,1,6,1,6,-1,1],"shifted_pitches":[11,6,8,1,8,6,-1,5,8,4,1,6,1,6,-1,1],"swapped_pitches":[11,6,8,1,8,6,-1,8,6,4,1,6,1,6,-1,1],"shift_direction":-1,"question_num":151,"has_decoy":false},{"rt":143.2999999821186,"stimulus":"[A] option 1, [L] option 2, [G] neither","key_press":76,"name":"choice","trial_type":"html-keyboard-response","trial_index":186,"time_elapsed":450393,"internal_node_id":"0.0-186.0","subject":"S1C1669","sona":"41685","block":5,"time":"2021-09-26T16:42:39.750Z","response":"2nd","certainty":"high","char":"L","transposition":-3,"order":["shifted","swapped"],"probe_pitches":[11,6,4,6,9,2,9,11,6,9,6,-1,4,11,2,11],"shifted_pitches":[11,6,4,6,9,2,9,10,6,9,6,-1,4,11,2,11],"swapped_pitches":[11,6,4,6,9,2,9,6,11,9,6,-1,4,11,2,11],"shift_direction":-1,"question_num":161,"has_decoy":false},{"rt":205.80000001192093,"stimulus":"[A] option 1, [L] option 2, [G] neither","key_press":65,"name":"choice","trial_type":"html-keyboard-response","trial_index":197,"time_elapsed":473802,"internal_node_id":"0.0-197.0","subject":"S1C1669","sona":"41685","block":5,"time":"2021-09-26T16:42:39.750Z","response":"1st","certainty":"high","char":"A","transposition":-2,"order":["shifted","swapped"],"probe_pitches":[10,15,9,15,10,9,15,6,13,5,9,11,6,10,5,7],"shifted_pitches":[10,15,9,15,10,9,15,6,12,5,9,11,6,10,5,7],"swapped_pitches":[10,15,9,15,10,9,15,13,6,5,9,11,6,10,5,7],"shift_direction":-1,"question_num":171,"has_decoy":false},{"rt":88.89999997615814,"stimulus":"[A] option 1, [L] option 2, [G] neither","key_press":76,"name":"choice","trial_type":"html-keyboard-response","trial_index":208,"time_elapsed":495907,"internal_node_id":"0.0-208.0","subject":"S1C1669","sona":"41685","block":5,"time":"2021-09-26T16:42:39.750Z","response":"2nd","certainty":"high","char":"L","transposition":-2,"order":["shifted","swapped"],"probe_pitches":[4,1,-1,6,-1,1,-1,4,9,1,11,4,6,1,4,-1],"shifted_pitches":[4,1,-1,6,-1,1,-1,4,8,1,11,4,6,1,4,-1],"swapped_pitches":[4,1,-1,6,-1,1,-1,9,4,1,11,4,6,1,4,-1],"shift_direction":-1,"question_num":181,"has_decoy":false},{"rt":278.60000002384186,"stimulus":"[A] option 1, [L] option 2, [G] neither","key_press":76,"name":"choice","trial_type":"html-keyboard-response","trial_index":219,"time_elapsed":518886,"internal_node_id":"0.0-219.0","subject":"S1C1669","sona":"41685","block":5,"time":"2021-09-26T16:42:39.750Z","response":"2nd","certainty":"high","char":"L","transposition":-1,"order":["shifted","swapped"],"probe_pitches":[13,12,5,7,3,13,3,7,12,10,3,14,9,10,3,13],"shifted_pitches":[13,12,5,7,3,13,3,6,12,10,3,14,9,10,3,13],"swapped_pitches":[13,12,5,7,3,13,3,12,7,10,3,14,9,10,3,13],"shift_direction":-1,"question_num":191,"has_decoy":false}]