[{"rt":1051.5,"stimulus":"[A] option 1, [L] option 2, [G] neither","key_press":71,"name":"choice","trial_type":"html-keyboard-response","trial_index":10,"time_elapsed":28721,"internal_node_id":"0.0-10.0","subject":"S1C1669","sona":"41685","block":6,"time":"2021-09-26T16:55:36.629Z","response":"neither","certainty":"high","char":"G","transposition":1,"order":["shifted","swapped"],"probe_pitches":[14,10,9,11,2,9,10,6,13,4,10,6,4,5,3,11],"shifted_pitches":[14,10,9,11,2,9,10,7,13,4,10,6,4,5,3,11],"swapped_pitches":[14,10,9,11,2,9,10,13,6,4,10,6,4,5,3,11],"shift_direction":1,"question_num":1,"has_decoy":false},{"rt":178.40000000596046,"stimulus":"[A] option 1, [L] option 2, [G] neither","key_press":76,"name":"choice","trial_type":"html-keyboard-response","trial_index":21,"time_elapsed":53975,"internal_node_id":"0.0-21.0","subject":"S1C1669","sona":"41685","block":6,"time":"2021-09-26T16:55:36.629Z","response":"2nd","certainty":"high","char":"L","transposition":2,"order":["swapped","shifted"],"probe_pitches":[0,3,0,8,12,3,10,5,8,3,5,12,5,12,5,0],"shifted_pitches":[0,3,0,8,12,3,10,5,7,3,5,12,5,12,5,0],"swapped_pitches":[0,3,0,8,12,3,10,8,5,3,5,12,5,12,5,0],"shift_direction":-1,"question_num":11,"has_decoy":false},{"rt":214.40000000596046,"stimulus":"[A] option 1, [L] option 2, [G] neither","key_press":76,"name":"choice","trial_type":"html-keyboard-response","trial_index":32,"time_elapsed":80058,"internal_node_id":"0.0-32.0","subject":"S1C1669","sona":"41685","block":6,"time":"2021-09-26T16:55:36.629Z","response":"2nd","certainty":"high","char":"L","transposition":3,"order":["shifted","swapped"],"probe_pitches":[12,7,12,5,10,0,7,0,2,5,2,12,5,0,12,10],"shifted_pitches":[12,7,12,5,10,0,7,0,1,5,2,12,5,0,12,10],"swapped_pitches":[12,7,12,5,10,0,7,2,0,5,2,12,5,0,12,10],"shift_direction":-1,"question_num":21,"has_decoy":false},{"rt":225.59999999403954,"stimulus":"[A] option 1, [L] option 2, [G] neither","key_press":76,"name":"choice","trial_type":"html-keyboard-response","trial_index":43,"time_elapsed":104176,"internal_node_id":"0.0-43.0","subject":"S1C1669","sona":"41685","block":6,"time":"2021-09-26T16:55:36.629Z","response":"2nd","certainty":"high","char":"L","transposition":0,"order":["swapped","shifted"],"probe_pitches":[9,7,5,9,5,7,2,0,12,2,7,12,9,7,12,7],"shifted_pitches":[9,7,5,9,5,7,2,0,11,2,7,12,9,7,12,7],"swapped_pitches":[9,7,5,9,5,7,2,12,0,2,7,12,9,7,12,7],"shift_direction":-1,"question_num":31,"has_decoy":false},{"rt":1052.3999999761581,"stimulus":"[A] option 1, [L] option 2, [G] neither","key_press":65,"name":"choice","trial_type":"html-keyboard-response","trial_index":54,"time_elapsed":131891,"internal_node_id":"0.0-54.0","subject":"S1C1669","sona":"41685","block":6,"time":"2021-09-26T16:55:36.629Z","response":"1st","certainty":"high","char":"A","transposition":-1,"order":["swapped","shifted"],"probe_pitches":[12,10,3,7,11,13,8,14,10,2,4,12,14,8,3,13],"shifted_pitches":[12,10,3,7,11,13,8,14,9,2,4,12,14,8,3,13],"swapped_pitches":[12,10,3,7,11,13,8,10,14,2,4,12,14,8,3,13],"shift_direction":-1,"question_num":41,"has_decoy":false},{"rt":4145.5999999940395,"stimulus":"[A] option 1, [L] option 2, [G] neither","key_press":76,"name":"choice","trial_type":"html-keyboard-response","trial_index":65,"time_elapsed":160276,"internal_node_id":"0.0-65.0","subject":"S1C1669","sona":"41685","block":6,"time":"2021-09-26T16:55:36.629Z","response":"2nd","certainty":"high","char":"L","transposition":-1,"order":["shifted","swapped"],"probe_pitches":[3,5,0,3,10,5,7,5,12,3,10,5,3,10,7,5],"shifted_pitches":[3,5,0,3,10,5,7,5,13,3,10,5,3,10,7,5],"swapped_pitches":[3,5,0,3,10,5,7,12,5,3,10,5,3,10,7,5],"shift_direction":1,"question_num":51,"has_decoy":false},{"rt":227.90000000596046,"stimulus":"[A] option 1, [L] option 2, [G] neither","key_press":76,"name":"choice","trial_type":"html-keyboard-response","trial_index":76,"time_elapsed":184274,"internal_node_id":"0.0-76.0","subject":"S1C1669","sona":"41685","block":6,"time":"2021-09-26T16:55:36.629Z","response":"2nd","certainty":"high","char":"L","transposition":-2,"order":["swapped","shifted"],"probe_pitches":[0,3,10,8,5,8,12,5,8,10,0,12,5,0,10,0],"shifted_pitches":[0,3,10,8,5,8,12,6,8,10,0,12,5,0,10,0],"swapped_pitches":[0,3,10,8,5,8,12,8,5,10,0,12,5,0,10,0],"shift_direction":1,"question_num":61,"has_decoy":false},{"rt":263.59999999403954,"stimulus":"[A] option 1, [L] option 2, [G] neither","key_press":65,"name":"choice","trial_type":"html-keyboard-response","trial_index":87,"time_elapsed":210496,"internal_node_id":"0.0-87.0","subject":"S1C1669","sona":"41685","block":6,"time":"2021-09-26T16:55:36.629Z","response":"1st","certainty":"high","char":"A","transposition":2,"order":["swapped","shifted"],"probe_pitches":[13,12,11,14,12,9,14,4,5,12,11,10,4,9,7,8],"shifted_pitches":[13,12,11,14,12,9,14,4,6,12,11,10,4,9,7,8],"swapped_pitches":[13,12,11,14,12,9,14,5,4,12,11,10,4,9,7,8],"shift_direction":1,"question_num":71,"has_decoy":false},{"rt":378.69999998807907,"stimulus":"[A] option 1, [L] option 2, [G] neither","key_press":76,"name":"choice","trial_type":"html-keyboard-response","trial_index":98,"time_elapsed":234079,"internal_node_id":"0.0-98.0","subject":"S1C1669","sona":"41685","block":6,"time":"2021-09-26T16:55:36.629Z","response":"2nd","certainty":"high","char":"L","transposition":-2,"order":["swapped","shifted"],"probe_pitches":[7,12,10,12,5,7,12,5,7,10,2,0,7,5,12,5],"shifted_pitches":[7,12,10,12,5,7,12,4,7,10,2,0,7,5,12,5],"swapped_pitches":[7,12,10,12,5,7,12,7,5,10,2,0,7,5,12,5],"shift_direction":-1,"question_num":81,"has_decoy":false},{"rt":504.09999999403954,"stimulus":"[A] option 1, [L] option 2, [G] neither","key_press":71,"name":"choice","trial_type":"html-keyboard-response","trial_index":109,"time_elapsed":257500,"internal_node_id":"0.0-109.0","subject":"S1C1669","sona":"41685","block":6,"time":"2021-09-26T16:55:36.629Z","response":"neither","certainty":"high","char":"G","transposition":0,"order":["shifted","swapped"],"probe_pitches":[2,8,13,9,11,8,7,11,6,5,7,14,2,7,14,3],"shifted_pitches":[2,8,13,9,11,8,7,10,6,5,7,14,2,7,14,3],"swapped_pitches":[2,8,13,9,11,8,7,6,11,5,7,14,2,7,14,3],"shift_direction":-1,"question_num":91,"has_decoy":false},{"rt":424.90000000596046,"stimulus":"[A] option 1, [L] option 2, [G] neither","key_press":65,"name":"choice","trial_type":"html-keyboard-response","trial_index":120,"time_elapsed":281575,"internal_node_id":"0.0-120.0","subject":"S1C1669","sona":"41685","block":6,"time":"2021-09-26T16:55:36.629Z","response":"1st","certainty":"high","char":"A","transposition":-3,"order":["swapped","shifted"],"probe_pitches":[14,9,8,10,2,3,13,7,4,6,8,7,4,2,7,14],"shifted_pitches":[14,9,8,10,2,3,13,7,5,6,8,7,4,2,7,14],"swapped_pitches":[14,9,8,10,2,3,13,4,7,6,8,7,4,2,7,14],"shift_direction":1,"question_num":101,"has_decoy":false},{"rt":1098.7000000178814,"stimulus":"[A] option 1, [L] option 2, [G] neither","key_press":65,"name":"choice","trial_type":"html-keyboard-response","trial_index":131,"time_elapsed":305846,"internal_node_id":"0.0-131.0","subject":"S1C1669","sona":"41685","block":6,"time":"2021-09-26T16:55:36.629Z","response":"1st","certainty":"high","char":"A","transposition":-1,"order":["shifted","swapped"],"probe_pitches":[4,6,7,3,7,4,13,11,9,4,7,5,10,5,12,6],"shifted_pitches":[4,6,7,3,7,4,13,11,8,4,7,5,10,5,12,6],"swapped_pitches":[4,6,7,3,7,4,13,9,11,4,7,5,10,5,12,6],"shift_direction":-1,"question_num":111,"has_decoy":false},{"rt":2255,"stimulus":"[A] option 1, [L] option 2, [G] neither","key_press":71,"name":"choice","trial_type":"html-keyboard-response","trial_index":142,"time_elapsed":395910,"internal_node_id":"0.0-142.0","subject":"S1C1669","sona":"41685","block":6,"time":"2021-09-26T16:55:36.629Z","response":"neither","certainty":"high","char":"G","transposition":-2,"order":["shifted","swapped"],"probe_pitches":[11,7,8,10,4,13,5,11,14,4,14,9,8,10,3,13],"shifted_pitches":[11,7,8,10,4,13,5,12,14,4,14,9,8,10,3,13],"swapped_pitches":[11,7,8,10,4,13,5,14,11,4,14,9,8,10,3,13],"shift_direction":1,"question_num":121,"has_decoy":false},{"rt":291.89999997615814,"stimulus":"[A] option 1, [L] option 2, [G] neither","key_press":71,"name":"choice","trial_type":"html-keyboard-response","trial_index":153,"time_elapsed":419779,"internal_node_id":"0.0-153.0","subject":"S1C1669","sona":"41685","block":6,"time":"2021-09-26T16:55:36.629Z","response":"neither","certainty":"high","char":"G","transposition":-3,"order":["shifted","swapped"],"probe_pitches":[9,5,9,7,2,7,12,9,5,12,0,5,9,5,2,12],"shifted_pitches":[9,5,9,7,2,7,12,10,5,12,0,5,9,5,2,12],"swapped_pitches":[9,5,9,7,2,7,12,5,9,12,0,5,9,5,2,12],"shift_direction":1,"question_num":131,"has_decoy":false},{"rt":2346.800000011921,"stimulus":"[A] option 1, [L] option 2, [G] neither","key_press":65,"name":"choice","trial_type":"html-keyboard-response","trial_index":164,"time_elapsed":475087,"internal_node_id":"0.0-164.0","subject":"S1C1669","sona":"41685","block":6,"time":"2021-09-26T16:55:36.629Z","response":"1st","certainty":"high","char":"A","transposition":-3,"order":["swapped","shifted"],"probe_pitches":[5,3,2,10,7,5,8,5,12,2,14,3,12,3,12,2],"shifted_pitches":[5,3,2,10,7,5,8,4,12,2,14,3,12,3,12,2],"swapped_pitches":[5,3,2,10,7,5,8,12,5,2,14,3,12,3,12,2],"shift_direction":-1,"question_num":141,"has_decoy":false},{"rt":112.09999999403954,"stimulus":"[A] option 1, [L] option 2, [G] neither","key_press":65,"name":"choice","trial_type":"html-keyboard-response","trial_index":175,"time_elapsed":499863,"internal_node_id":"0.0-175.0","subject":"S1C1669","sona":"41685","block":6,"time":"2021-09-26T16:55:36.629Z","response":"1st","certainty":"high","char":"A","transposition":1,"order":["shifted","swapped"],"probe_pitches":[5,0,7,0,3,0,3,5,0,3,7,3,10,7,10,0],"shifted_pitches":[5,0,7,0,3,0,3,4,0,3,7,3,10,7,10,0],"swapped_pitches":[5,0,7,0,3,0,3,0,5,3,7,3,10,7,10,0],"shift_direction":-1,"question_num":151,"has_decoy":false},{"rt":5950.800000011921,"stimulus":"[A] option 1, [L] option 2, [G] neither","key_press":65,"name":"choice","trial_type":"html-keyboard-response","trial_index":186,"time_elapsed":690249,"internal_node_id":"0.0-186.0","subject":"S1C1669","sona":"41685","block":6,"time":"2021-09-26T16:55:36.629Z","response":"1st","certainty":"high","char":"A","transposition":3,"order":["swapped","shifted"],"probe_pitches":[5,9,14,8,10,8,7,3,12,2,5,10,6,10,9,2],"shifted_pitches":[5,9,14,8,10,8,7,3,11,2,5,10,6,10,9,2],"swapped_pitches":[5,9,14,8,10,8,7,12,3,2,5,10,6,10,9,2],"shift_direction":-1,"question_num":161,"has_decoy":false},{"rt":257.5,"stimulus":"[A] option 1, [L] option 2, [G] neither","key_press":76,"name":"choice","trial_type":"html-keyboard-response","trial_index":197,"time_elapsed":721114,"internal_node_id":"0.0-197.0","subject":"S1C1669","sona":"41685","block":6,"time":"2021-09-26T16:55:36.629Z","response":"2nd","certainty":"high","char":"L","transposition":-3,"order":["swapped","shifted"],"probe_pitches":[9,12,7,2,0,2,12,4,9,2,4,12,4,7,12,4],"shifted_pitches":[9,12,7,2,0,2,12,5,9,2,4,12,4,7,12,4],"swapped_pitches":[9,12,7,2,0,2,12,9,4,2,4,12,4,7,12,4],"shift_direction":1,"question_num":171,"has_decoy":false},{"rt":267.59999999403954,"stimulus":"[A] option 1, [L] option 2, [G] neither","key_press":65,"name":"choice","trial_type":"html-keyboard-response","trial_index":208,"time_elapsed":748582,"internal_node_id":"0.0-208.0","subject":"S1C1669","sona":"41685","block":6,"time":"2021-09-26T16:55:36.629Z","response":"1st","certainty":"high","char":"A","transposition":-2,"order":["shifted","swapped"],"probe_pitches":[3,4,3,5,8,3,8,12,6,3,7,12,10,7,6,5],"shifted_pitches":[3,4,3,5,8,3,8,13,6,3,7,12,10,7,6,5],"swapped_pitches":[3,4,3,5,8,3,8,6,12,3,7,12,10,7,6,5],"shift_direction":1,"question_num":181,"has_decoy":false},{"rt":717.1999999880791,"stimulus":"[A] option 1, [L] option 2, [G] neither","key_press":76,"name":"choice","trial_type":"html-keyboard-response","trial_index":219,"time_elapsed":772222,"internal_node_id":"0.0-219.0","subject":"S1C1669","sona":"41685","block":6,"time":"2021-09-26T16:55:36.629Z","response":"2nd","certainty":"high","char":"L","transposition":-1,"order":["shifted","swapped"],"probe_pitches":[4,9,2,7,2,9,2,4,7,9,12,4,0,7,0,7],"shifted_pitches":[4,9,2,7,2,9,2,4,8,9,12,4,0,7,0,7],"swapped_pitches":[4,9,2,7,2,9,2,7,4,9,12,4,0,7,0,7],"shift_direction":1,"question_num":191,"has_decoy":false}]