[{"rt":9932.799999982119,"stimulus":"[A] option 1, [L] option 2, [G] neither","key_press":76,"name":"choice","trial_type":"html-keyboard-response","trial_index":15,"time_elapsed":85868,"internal_node_id":"0.0-15.0","response":"2nd","certainty":"high","char":"L","transposition":2,"order":["swapped","shifted"],"probe_pitches":[7,2,-3,5,2,9,5,7,2,5,-3,0,7,0,2,7],"shifted_pitches":[7,2,-3,5,2,9,5,8,2,5,-3,0,7,0,2,7],"swapped_pitches":[7,2,-3,5,2,9,5,2,7,5,-3,0,7,0,2,7],"shift_direction":1,"question_num":1,"has_decoy":false,"subject":"S1C1669","sona":"41685","block":1,"time":"2021-09-26T16:05:00.912Z"},{"rt":1960.800000011921,"stimulus":"[A] option 1, [L] option 2, [G] neither","key_press":76,"name":"choice","trial_type":"html-keyboard-response","trial_index":26,"time_elapsed":113097,"internal_node_id":"0.0-26.0","response":"2nd","certainty":"high","char":"L","transposition":-3,"order":["swapped","shifted"],"probe_pitches":[4,9,2,-3,-1,4,9,2,-3,9,-3,4,9,2,6,-3],"shifted_pitches":[4,9,2,-3,-1,4,9,1,-3,9,-3,4,9,2,6,-3],"swapped_pitches":[4,9,2,-3,-1,4,9,-3,2,9,-3,4,9,2,6,-3],"shift_direction":-1,"question_num":11,"has_decoy":false,"subject":"S1C1669","sona":"41685","block":1,"time":"2021-09-26T16:05:00.912Z"},{"rt":1932.2999999821186,"stimulus":"[A] option 1, [L] option 2, [G] neither","key_press":65,"name":"choice","trial_type":"html-keyboard-response","trial_index":37,"time_elapsed":146220,"internal_node_id":"0.0-37.0","response":"1st","certainty":"high","char":"A","transposition":-3,"order":["shifted","swapped"],"probe_pitches":[7,4,9,4,2,7,4,2,-3,4,9,0,7,-3,0,-3],"shifted_pitches":[7,4,9,4,2,7,4,2,-4,4,9,0,7,-3,0,-3],"swapped_pitches":[7,4,9,4,2,7,4,-3,2,4,9,0,7,-3,0,-3],"shift_direction":-1,"question_num":21,"has_decoy":false,"subject":"S1C1669","sona":"41685","block":1,"time":"2021-09-26T16:05:00.912Z"},{"rt":6239.300000011921,"stimulus":"[A] option 1, [L] option 2, [G] neither","key_press":76,"name":"choice","trial_type":"html-keyboard-response","trial_index":48,"time_elapsed":177177,"internal_node_id":"0.0-48.0","response":"2nd","certainty":"high","char":"L","transposition":-1,"order":["shifted","swapped"],"probe_pitches":[11,6,0,3,8,6,3,2,4,11,10,1,0,3,9,11],"shifted_pitches":[11,6,0,3,8,6,3,2,5,11,10,1,0,3,9,11],"swapped_pitches":[11,6,0,3,8,6,3,4,2,11,10,1,0,3,9,11],"shift_direction":1,"question_num":31,"has_decoy":false,"subject":"S1C1669","sona":"41685","block":1,"time":"2021-09-26T16:05:00.912Z"},{"rt":1275.5999999940395,"stimulus":"[A] option 1, [L] option 2, [G] neither","key_press":65,"name":"choice","trial_type":"html-keyboard-response","trial_index":59,"time_elapsed":210967,"internal_node_id":"0.0-59.0","response":"1st","certainty":"high","char":"A","transposition":-2,"order":["swapped","shifted"],"probe_pitches":[8,2,5,4,12,9,5,9,6,0,12,11,12,10,4,0],"shifted_pitches":[8,2,5,4,12,9,5,9,7,0,12,11,12,10,4,0],"swapped_pitches":[8,2,5,4,12,9,5,6,9,0,12,11,12,10,4,0],"shift_direction":1,"question_num":41,"has_decoy":false,"subject":"S1C1669","sona":"41685","block":1,"time":"2021-09-26T16:05:00.912Z"},{"rt":1806.800000011921,"stimulus":"[A] option 1, [L] option 2, [G] neither","key_press":65,"name":"choice","trial_type":"html-keyboard-response","trial_index":70,"time_elapsed":236704,"internal_node_id":"0.0-70.0","response":"1st","certainty":"high","char":"A","transposition":3,"order":["shifted","swapped"],"probe_pitches":[2,4,-3,0,-3,7,9,2,0,9,7,4,0,-3,2,4],"shifted_pitches":[2,4,-3,0,-3,7,9,2,1,9,7,4,0,-3,2,4],"swapped_pitches":[2,4,-3,0,-3,7,9,0,2,9,7,4,0,-3,2,4],"shift_direction":1,"question_num":51,"has_decoy":false,"subject":"S1C1669","sona":"41685","block":1,"time":"2021-09-26T16:05:00.912Z"},{"rt":3034.0999999940395,"stimulus":"[A] option 1, [L] option 2, [G] neither","key_press":65,"name":"choice","trial_type":"html-keyboard-response","trial_index":81,"time_elapsed":262571,"internal_node_id":"0.0-81.0","response":"1st","certainty":"high","char":"A","transposition":1,"order":["shifted","swapped"],"probe_pitches":[5,3,10,9,11,3,7,3,0,1,4,5,8,5,1,10],"shifted_pitches":[5,3,10,9,11,3,7,2,0,1,4,5,8,5,1,10],"swapped_pitches":[5,3,10,9,11,3,7,0,3,1,4,5,8,5,1,10],"shift_direction":-1,"question_num":61,"has_decoy":false,"subject":"S1C1669","sona":"41685","block":1,"time":"2021-09-26T16:05:00.912Z"},{"rt":3570.300000011921,"stimulus":"[A] option 1, [L] option 2, [G] neither","key_press":65,"name":"choice","trial_type":"html-keyboard-response","trial_index":92,"time_elapsed":289003,"internal_node_id":"0.0-92.0","response":"1st","certainty":"high","char":"A","transposition":1,"order":["shifted","swapped"],"probe_pitches":[2,-1,4,6,-3,6,4,2,9,-1,-3,4,6,9,2,6],"shifted_pitches":[2,-1,4,6,-3,6,4,1,9,-1,-3,4,6,9,2,6],"swapped_pitches":[2,-1,4,6,-3,6,4,9,2,-1,-3,4,6,9,2,6],"shift_direction":-1,"question_num":71,"has_decoy":false,"subject":"S1C1669","sona":"41685","block":1,"time":"2021-09-26T16:05:00.912Z"},{"rt":1179.7999999821186,"stimulus":"[A] option 1, [L] option 2, [G] neither","key_press":65,"name":"choice","trial_type":"html-keyboard-response","trial_index":103,"time_elapsed":316363,"internal_node_id":"0.0-103.0","response":"1st","certainty":"high","char":"A","transposition":-1,"order":["shifted","swapped"],"probe_pitches":[4,-1,6,4,9,6,-1,-3,4,-1,1,-3,4,9,1,9],"shifted_pitches":[4,-1,6,4,9,6,-1,-3,3,-1,1,-3,4,9,1,9],"swapped_pitches":[4,-1,6,4,9,6,-1,4,-3,-1,1,-3,4,9,1,9],"shift_direction":-1,"question_num":81,"has_decoy":false,"subject":"S1C1669","sona":"41685","block":1,"time":"2021-09-26T16:05:00.912Z"},{"rt":1608.300000011921,"stimulus":"[A] option 1, [L] option 2, [G] neither","key_press":65,"name":"choice","trial_type":"html-keyboard-response","trial_index":114,"time_elapsed":340464,"internal_node_id":"0.0-114.0","response":"1st","certainty":"high","char":"A","transposition":3,"order":["swapped","shifted"],"probe_pitches":[12,9,5,10,3,10,6,9,0,2,1,12,9,1,11,9],"shifted_pitches":[12,9,5,10,3,10,6,8,0,2,1,12,9,1,11,9],"swapped_pitches":[12,9,5,10,3,10,6,0,9,2,1,12,9,1,11,9],"shift_direction":-1,"question_num":91,"has_decoy":false,"subject":"S1C1669","sona":"41685","block":1,"time":"2021-09-26T16:05:00.912Z"},{"rt":1708.9000000059605,"stimulus":"[A] option 1, [L] option 2, [G] neither","key_press":76,"name":"choice","trial_type":"html-keyboard-response","trial_index":125,"time_elapsed":364909,"internal_node_id":"0.0-125.0","response":"2nd","certainty":"high","char":"L","transposition":-3,"order":["swapped","shifted"],"probe_pitches":[7,4,7,5,3,11,0,5,8,2,11,4,9,0,8,3],"shifted_pitches":[7,4,7,5,3,11,0,6,8,2,11,4,9,0,8,3],"swapped_pitches":[7,4,7,5,3,11,0,8,5,2,11,4,9,0,8,3],"shift_direction":1,"question_num":101,"has_decoy":false,"subject":"S1C1669","sona":"41685","block":1,"time":"2021-09-26T16:05:00.912Z"},{"rt":1844,"stimulus":"[A] option 1, [L] option 2, [G] neither","key_press":65,"name":"choice","trial_type":"html-keyboard-response","trial_index":136,"time_elapsed":391033,"internal_node_id":"0.0-136.0","response":"1st","certainty":"high","char":"A","transposition":-2,"order":["shifted","swapped"],"probe_pitches":[0,1,7,6,1,10,7,0,8,3,12,11,4,11,7,10],"shifted_pitches":[0,1,7,6,1,10,7,0,9,3,12,11,4,11,7,10],"swapped_pitches":[0,1,7,6,1,10,7,8,0,3,12,11,4,11,7,10],"shift_direction":1,"question_num":111,"has_decoy":false,"subject":"S1C1669","sona":"41685","block":1,"time":"2021-09-26T16:05:00.912Z"},{"rt":2301.9000000059605,"stimulus":"[A] option 1, [L] option 2, [G] neither","key_press":65,"name":"choice","trial_type":"html-keyboard-response","trial_index":147,"time_elapsed":422367,"internal_node_id":"0.0-147.0","response":"1st","certainty":"high","char":"A","transposition":-2,"order":["shifted","swapped"],"probe_pitches":[9,6,9,1,4,9,4,-3,-1,9,6,1,6,-3,4,-1],"shifted_pitches":[9,6,9,1,4,9,4,-2,-1,9,6,1,6,-3,4,-1],"swapped_pitches":[9,6,9,1,4,9,4,-1,-3,9,6,1,6,-3,4,-1],"shift_direction":1,"question_num":121,"has_decoy":false,"subject":"S1C1669","sona":"41685","block":1,"time":"2021-09-26T16:05:00.912Z"},{"rt":1009,"stimulus":"[A] option 1, [L] option 2, [G] neither","key_press":76,"name":"choice","trial_type":"html-keyboard-response","trial_index":158,"time_elapsed":447515,"internal_node_id":"0.0-158.0","response":"2nd","certainty":"high","char":"L","transposition":-2,"order":["swapped","shifted"],"probe_pitches":[5,9,7,0,5,7,9,0,5,-3,5,2,5,-3,0,9],"shifted_pitches":[5,9,7,0,5,7,9,0,6,-3,5,2,5,-3,0,9],"swapped_pitches":[5,9,7,0,5,7,9,5,0,-3,5,2,5,-3,0,9],"shift_direction":1,"question_num":131,"has_decoy":false,"subject":"S1C1669","sona":"41685","block":1,"time":"2021-09-26T16:05:00.912Z"},{"rt":5492.4000000059605,"stimulus":"[A] option 1, [L] option 2, [G] neither","key_press":76,"name":"choice","trial_type":"html-keyboard-response","trial_index":169,"time_elapsed":476466,"internal_node_id":"0.0-169.0","response":"2nd","certainty":"high","char":"L","transposition":0,"order":["shifted","swapped"],"probe_pitches":[1,6,3,6,2,3,1,10,0,3,0,3,2,4,8,7],"shifted_pitches":[1,6,3,6,2,3,1,11,0,3,0,3,2,4,8,7],"swapped_pitches":[1,6,3,6,2,3,1,0,10,3,0,3,2,4,8,7],"shift_direction":1,"question_num":141,"has_decoy":false,"subject":"S1C1669","sona":"41685","block":1,"time":"2021-09-26T16:05:00.912Z"},{"rt":4501.299999982119,"stimulus":"[A] option 1, [L] option 2, [G] neither","key_press":65,"name":"choice","trial_type":"html-keyboard-response","trial_index":180,"time_elapsed":504047,"internal_node_id":"0.0-180.0","response":"1st","certainty":"high","char":"A","transposition":-1,"order":["shifted","swapped"],"probe_pitches":[6,5,2,5,7,2,6,4,7,12,2,9,2,1,7,8],"shifted_pitches":[6,5,2,5,7,2,6,3,7,12,2,9,2,1,7,8],"swapped_pitches":[6,5,2,5,7,2,6,7,4,12,2,9,2,1,7,8],"shift_direction":-1,"question_num":151,"has_decoy":false,"subject":"S1C1669","sona":"41685","block":1,"time":"2021-09-26T16:05:00.912Z"},{"rt":598.1999999880791,"stimulus":"[A] option 1, [L] option 2, [G] neither","key_press":76,"name":"choice","trial_type":"html-keyboard-response","trial_index":191,"time_elapsed":544928,"internal_node_id":"0.0-191.0","response":"2nd","certainty":"high","char":"L","transposition":-1,"order":["swapped","shifted"],"probe_pitches":[7,9,7,9,7,-3,2,9,-3,2,7,2,9,-1,4,7],"shifted_pitches":[7,9,7,9,7,-3,2,9,-2,2,7,2,9,-1,4,7],"swapped_pitches":[7,9,7,9,7,-3,2,-3,9,2,7,2,9,-1,4,7],"shift_direction":1,"question_num":161,"has_decoy":false,"subject":"S1C1669","sona":"41685","block":1,"time":"2021-09-26T16:05:00.912Z"},{"rt":2893.800000011921,"stimulus":"[A] option 1, [L] option 2, [G] neither","key_press":76,"name":"choice","trial_type":"html-keyboard-response","trial_index":202,"time_elapsed":570745,"internal_node_id":"0.0-202.0","response":"2nd","certainty":"high","char":"L","transposition":-3,"order":["swapped","shifted"],"probe_pitches":[11,5,10,12,11,7,6,2,5,10,3,10,6,3,2,12],"shifted_pitches":[11,5,10,12,11,7,6,2,4,10,3,10,6,3,2,12],"swapped_pitches":[11,5,10,12,11,7,6,5,2,10,3,10,6,3,2,12],"shift_direction":-1,"question_num":171,"has_decoy":false,"subject":"S1C1669","sona":"41685","block":1,"time":"2021-09-26T16:05:00.912Z"},{"rt":1802.9000000059605,"stimulus":"[A] option 1, [L] option 2, [G] neither","key_press":65,"name":"choice","trial_type":"html-keyboard-response","trial_index":213,"time_elapsed":595143,"internal_node_id":"0.0-213.0","response":"1st","certainty":"high","char":"A","transposition":2,"order":["swapped","shifted"],"probe_pitches":[0,3,4,8,12,5,3,4,11,2,1,2,8,11,1,9],"shifted_pitches":[0,3,4,8,12,5,3,4,10,2,1,2,8,11,1,9],"swapped_pitches":[0,3,4,8,12,5,3,11,4,2,1,2,8,11,1,9],"shift_direction":-1,"question_num":181,"has_decoy":false,"subject":"S1C1669","sona":"41685","block":1,"time":"2021-09-26T16:05:00.912Z"},{"rt":506.40000000596046,"stimulus":"[A] option 1, [L] option 2, [G] neither","key_press":76,"name":"choice","trial_type":"html-keyboard-response","trial_index":224,"time_elapsed":622128,"internal_node_id":"0.0-224.0","response":"2nd","certainty":"high","char":"L","transposition":0,"order":["swapped","shifted"],"probe_pitches":[2,7,4,-3,4,9,7,2,-1,-3,7,2,7,-1,-3,2],"shifted_pitches":[2,7,4,-3,4,9,7,1,-1,-3,7,2,7,-1,-3,2],"swapped_pitches":[2,7,4,-3,4,9,7,-1,2,-3,7,2,7,-1,-3,2],"shift_direction":-1,"question_num":191,"has_decoy":false,"subject":"S1C1669","sona":"41685","block":1,"time":"2021-09-26T16:05:00.912Z"}]