[{"rt":178.2999999821186,"stimulus":"[A] option 1, [L] option 2, [G] neither","key_press":76,"name":"choice","trial_type":"html-keyboard-response","trial_index":10,"time_elapsed":27677,"internal_node_id":"0.0-10.0","subject":"S1C1669","sona":"41685","block":4,"time":"2021-09-26T16:33:56.634Z","response":"2nd","certainty":"high","char":"L","transposition":2,"order":["shifted","swapped"],"probe_pitches":[-1,0,5,11,3,1,-1,3,9,8,5,8,9,3,7,-1],"shifted_pitches":[-1,0,5,11,3,1,-1,2,9,8,5,8,9,3,7,-1],"swapped_pitches":[-1,0,5,11,3,1,-1,9,3,8,5,8,9,3,7,-1],"shift_direction":-1,"question_num":1,"has_decoy":false},{"rt":1093.2000000178814,"stimulus":"[A] option 1, [L] option 2, [G] neither","key_press":65,"name":"choice","trial_type":"html-keyboard-response","trial_index":21,"time_elapsed":51567,"internal_node_id":"0.0-21.0","subject":"S1C1669","sona":"41685","block":4,"time":"2021-09-26T16:33:56.634Z","response":"1st","certainty":"high","char":"A","transposition":-2,"order":["swapped","shifted"],"probe_pitches":[-1,2,3,10,5,0,9,0,5,10,1,3,-1,10,8,-1],"shifted_pitches":[-1,2,3,10,5,0,9,0,6,10,1,3,-1,10,8,-1],"swapped_pitches":[-1,2,3,10,5,0,9,5,0,10,1,3,-1,10,8,-1],"shift_direction":1,"question_num":11,"has_decoy":false},{"rt":541.0999999940395,"stimulus":"[A] option 1, [L] option 2, [G] neither","key_press":65,"name":"choice","trial_type":"html-keyboard-response","trial_index":32,"time_elapsed":75918,"internal_node_id":"0.0-32.0","subject":"S1C1669","sona":"41685","block":4,"time":"2021-09-26T16:33:56.634Z","response":"1st","certainty":"high","char":"A","transposition":0,"order":["swapped","shifted"],"probe_pitches":[11,5,0,8,1,9,11,6,4,-1,8,7,-1,0,11,1],"shifted_pitches":[11,5,0,8,1,9,11,6,3,-1,8,7,-1,0,11,1],"swapped_pitches":[11,5,0,8,1,9,11,4,6,-1,8,7,-1,0,11,1],"shift_direction":-1,"question_num":21,"has_decoy":false},{"rt":366.90000000596046,"stimulus":"[A] option 1, [L] option 2, [G] neither","key_press":65,"name":"choice","trial_type":"html-keyboard-response","trial_index":43,"time_elapsed":100844,"internal_node_id":"0.0-43.0","subject":"S1C1669","sona":"41685","block":4,"time":"2021-09-26T16:33:56.634Z","response":"1st","certainty":"high","char":"A","transposition":-3,"order":["shifted","swapped"],"probe_pitches":[6,11,5,-1,5,2,-1,8,11,5,11,4,6,9,8,6],"shifted_pitches":[6,11,5,-1,5,2,-1,8,10,5,11,4,6,9,8,6],"swapped_pitches":[6,11,5,-1,5,2,-1,11,8,5,11,4,6,9,8,6],"shift_direction":-1,"question_num":31,"has_decoy":false},{"rt":2145.7000000178814,"stimulus":"[A] option 1, [L] option 2, [G] neither","key_press":76,"name":"choice","trial_type":"html-keyboard-response","trial_index":54,"time_elapsed":125070,"internal_node_id":"0.0-54.0","subject":"S1C1669","sona":"41685","block":4,"time":"2021-09-26T16:33:56.634Z","response":"2nd","certainty":"high","char":"L","transposition":-3,"order":["swapped","shifted"],"probe_pitches":[1,-3,1,-1,4,-1,-3,6,1,4,1,4,1,6,-1,6],"shifted_pitches":[1,-3,1,-1,4,-1,-3,5,1,4,1,4,1,6,-1,6],"swapped_pitches":[1,-3,1,-1,4,-1,-3,1,6,4,1,4,1,6,-1,6],"shift_direction":-1,"question_num":41,"has_decoy":false},{"rt":1047.9000000059605,"stimulus":"[A] option 1, [L] option 2, [G] neither","key_press":76,"name":"choice","trial_type":"html-keyboard-response","trial_index":65,"time_elapsed":150803,"internal_node_id":"0.0-65.0","subject":"S1C1669","sona":"41685","block":4,"time":"2021-09-26T16:33:56.634Z","response":"2nd","certainty":"high","char":"L","transposition":-3,"order":["shifted","swapped"],"probe_pitches":[10,9,6,11,5,1,4,11,6,10,5,3,2,3,4,1],"shifted_pitches":[10,9,6,11,5,1,4,11,7,10,5,3,2,3,4,1],"swapped_pitches":[10,9,6,11,5,1,4,6,11,10,5,3,2,3,4,1],"shift_direction":1,"question_num":51,"has_decoy":false},{"rt":826.1999999880791,"stimulus":"[A] option 1, [L] option 2, [G] neither","key_press":76,"name":"choice","trial_type":"html-keyboard-response","trial_index":76,"time_elapsed":173969,"internal_node_id":"0.0-76.0","subject":"S1C1669","sona":"41685","block":4,"time":"2021-09-26T16:33:56.634Z","response":"2nd","certainty":"high","char":"L","transposition":3,"order":["shifted","swapped"],"probe_pitches":[9,7,4,7,9,7,9,-3,7,-1,4,7,4,2,-3,-1],"shifted_pitches":[9,7,4,7,9,7,9,-4,7,-1,4,7,4,2,-3,-1],"swapped_pitches":[9,7,4,7,9,7,9,7,-3,-1,4,7,4,2,-3,-1],"shift_direction":-1,"question_num":61,"has_decoy":false},{"rt":264.5,"stimulus":"[A] option 1, [L] option 2, [G] neither","key_press":76,"name":"choice","trial_type":"html-keyboard-response","trial_index":87,"time_elapsed":196627,"internal_node_id":"0.0-87.0","subject":"S1C1669","sona":"41685","block":4,"time":"2021-09-26T16:33:56.634Z","response":"2nd","certainty":"high","char":"L","transposition":-2,"order":["swapped","shifted"],"probe_pitches":[2,-1,4,9,2,6,4,9,-3,6,2,-1,6,-1,9,-1],"shifted_pitches":[2,-1,4,9,2,6,4,10,-3,6,2,-1,6,-1,9,-1],"swapped_pitches":[2,-1,4,9,2,6,4,-3,9,6,2,-1,6,-1,9,-1],"shift_direction":1,"question_num":71,"has_decoy":false},{"rt":3650.699999988079,"stimulus":"[A] option 1, [L] option 2, [G] neither","key_press":65,"name":"choice","trial_type":"html-keyboard-response","trial_index":98,"time_elapsed":226872,"internal_node_id":"0.0-98.0","subject":"S1C1669","sona":"41685","block":4,"time":"2021-09-26T16:33:56.634Z","response":"1st","certainty":"high","char":"A","transposition":1,"order":["shifted","swapped"],"probe_pitches":[7,2,4,0,7,2,0,4,-3,2,4,7,2,4,-3,4],"shifted_pitches":[7,2,4,0,7,2,0,4,-2,2,4,7,2,4,-3,4],"swapped_pitches":[7,2,4,0,7,2,0,-3,4,2,4,7,2,4,-3,4],"shift_direction":1,"question_num":81,"has_decoy":false},{"rt":2552.300000011921,"stimulus":"[A] option 1, [L] option 2, [G] neither","key_press":65,"name":"choice","trial_type":"html-keyboard-response","trial_index":109,"time_elapsed":256592,"internal_node_id":"0.0-109.0","subject":"S1C1669","sona":"41685","block":4,"time":"2021-09-26T16:33:56.634Z","response":"1st","certainty":"high","char":"A","transposition":3,"order":["shifted","swapped"],"probe_pitches":[9,3,7,6,2,6,11,0,10,6,2,0,6,10,-1,11],"shifted_pitches":[9,3,7,6,2,6,11,1,10,6,2,0,6,10,-1,11],"swapped_pitches":[9,3,7,6,2,6,11,10,0,6,2,0,6,10,-1,11],"shift_direction":1,"question_num":91,"has_decoy":false},{"rt":3915.300000011921,"stimulus":"[A] option 1, [L] option 2, [G] neither","key_press":76,"name":"choice","trial_type":"html-keyboard-response","trial_index":120,"time_elapsed":283960,"internal_node_id":"0.0-120.0","subject":"S1C1669","sona":"41685","block":4,"time":"2021-09-26T16:33:56.634Z","response":"2nd","certainty":"high","char":"L","transposition":-1,"order":["shifted","swapped"],"probe_pitches":[-1,0,3,7,11,8,10,5,6,-1,1,7,11,8,0,1],"shifted_pitches":[-1,0,3,7,11,8,10,4,6,-1,1,7,11,8,0,1],"swapped_pitches":[-1,0,3,7,11,8,10,6,5,-1,1,7,11,8,0,1],"shift_direction":-1,"question_num":101,"has_decoy":false},{"rt":1863,"stimulus":"[A] option 1, [L] option 2, [G] neither","key_press":76,"name":"choice","trial_type":"html-keyboard-response","trial_index":131,"time_elapsed":308186,"internal_node_id":"0.0-131.0","subject":"S1C1669","sona":"41685","block":4,"time":"2021-09-26T16:33:56.634Z","response":"2nd","certainty":"high","char":"L","transposition":-2,"order":["shifted","swapped"],"probe_pitches":[9,6,9,1,-1,9,4,1,-3,4,6,4,9,-3,-1,4],"shifted_pitches":[9,6,9,1,-1,9,4,1,-2,4,6,4,9,-3,-1,4],"swapped_pitches":[9,6,9,1,-1,9,4,-3,1,4,6,4,9,-3,-1,4],"shift_direction":1,"question_num":111,"has_decoy":false},{"rt":914.9000000059605,"stimulus":"[A] option 1, [L] option 2, [G] neither","key_press":65,"name":"choice","trial_type":"html-keyboard-response","trial_index":142,"time_elapsed":331497,"internal_node_id":"0.0-142.0","subject":"S1C1669","sona":"41685","block":4,"time":"2021-09-26T16:33:56.634Z","response":"1st","certainty":"high","char":"A","transposition":0,"order":["shifted","swapped"],"probe_pitches":[-1,2,-3,2,6,-1,9,4,-3,2,9,-1,-3,-1,6,9],"shifted_pitches":[-1,2,-3,2,6,-1,9,3,-3,2,9,-1,-3,-1,6,9],"swapped_pitches":[-1,2,-3,2,6,-1,9,-3,4,2,9,-1,-3,-1,6,9],"shift_direction":-1,"question_num":121,"has_decoy":false},{"rt":1412.0999999940395,"stimulus":"[A] option 1, [L] option 2, [G] neither","key_press":65,"name":"choice","trial_type":"html-keyboard-response","trial_index":153,"time_elapsed":356026,"internal_node_id":"0.0-153.0","subject":"S1C1669","sona":"41685","block":4,"time":"2021-09-26T16:33:56.634Z","response":"1st","certainty":"high","char":"A","transposition":1,"order":["swapped","shifted"],"probe_pitches":[1,6,8,3,0,-1,4,10,2,4,2,-1,0,1,5,11],"shifted_pitches":[1,6,8,3,0,-1,4,9,2,4,2,-1,0,1,5,11],"swapped_pitches":[1,6,8,3,0,-1,4,2,10,4,2,-1,0,1,5,11],"shift_direction":-1,"question_num":131,"has_decoy":false},{"rt":1637.8999999761581,"stimulus":"[A] option 1, [L] option 2, [G] neither","key_press":65,"name":"choice","trial_type":"html-keyboard-response","trial_index":164,"time_elapsed":430166,"internal_node_id":"0.0-164.0","subject":"S1C1669","sona":"41685","block":4,"time":"2021-09-26T16:33:56.634Z","response":"1st","certainty":"high","char":"A","transposition":-1,"order":["swapped","shifted"],"probe_pitches":[9,4,10,7,9,7,-1,11,4,2,6,4,1,4,9,6],"shifted_pitches":[9,4,10,7,9,7,-1,11,5,2,6,4,1,4,9,6],"swapped_pitches":[9,4,10,7,9,7,-1,4,11,2,6,4,1,4,9,6],"shift_direction":1,"question_num":141,"has_decoy":false},{"rt":2792.7999999821186,"stimulus":"[A] option 1, [L] option 2, [G] neither","key_press":76,"name":"choice","trial_type":"html-keyboard-response","trial_index":175,"time_elapsed":455806,"internal_node_id":"0.0-175.0","subject":"S1C1669","sona":"41685","block":4,"time":"2021-09-26T16:33:56.634Z","response":"2nd","certainty":"high","char":"L","transposition":-1,"order":["swapped","shifted"],"probe_pitches":[-3,2,-3,0,-3,4,0,4,-3,7,9,0,7,-3,2,0],"shifted_pitches":[-3,2,-3,0,-3,4,0,4,-4,7,9,0,7,-3,2,0],"swapped_pitches":[-3,2,-3,0,-3,4,0,-3,4,7,9,0,7,-3,2,0],"shift_direction":-1,"question_num":151,"has_decoy":false},{"rt":278.19999998807907,"stimulus":"[A] option 1, [L] option 2, [G] neither","key_press":76,"name":"choice","trial_type":"html-keyboard-response","trial_index":186,"time_elapsed":481775,"internal_node_id":"0.0-186.0","subject":"S1C1669","sona":"41685","block":4,"time":"2021-09-26T16:33:56.634Z","response":"2nd","certainty":"high","char":"L","transposition":-3,"order":["swapped","shifted"],"probe_pitches":[9,7,9,7,2,-3,0,-3,5,0,7,0,7,-3,9,5],"shifted_pitches":[9,7,9,7,2,-3,0,-3,4,0,7,0,7,-3,9,5],"swapped_pitches":[9,7,9,7,2,-3,0,5,-3,0,7,0,7,-3,9,5],"shift_direction":-1,"question_num":161,"has_decoy":false},{"rt":608.0999999940395,"stimulus":"[A] option 1, [L] option 2, [G] neither","key_press":76,"name":"choice","trial_type":"html-keyboard-response","trial_index":197,"time_elapsed":509568,"internal_node_id":"0.0-197.0","subject":"S1C1669","sona":"41685","block":4,"time":"2021-09-26T16:33:56.634Z","response":"2nd","certainty":"high","char":"L","transposition":-1,"order":["swapped","shifted"],"probe_pitches":[4,2,9,2,-1,-3,4,-3,-1,4,9,7,-1,4,9,2],"shifted_pitches":[4,2,9,2,-1,-3,4,-3,0,4,9,7,-1,4,9,2],"swapped_pitches":[4,2,9,2,-1,-3,4,-1,-3,4,9,7,-1,4,9,2],"shift_direction":1,"question_num":171,"has_decoy":false},{"rt":1811.699999988079,"stimulus":"[A] option 1, [L] option 2, [G] neither","key_press":65,"name":"choice","trial_type":"html-keyboard-response","trial_index":208,"time_elapsed":534328,"internal_node_id":"0.0-208.0","subject":"S1C1669","sona":"41685","block":4,"time":"2021-09-26T16:33:56.634Z","response":"1st","certainty":"high","char":"A","transposition":2,"order":["shifted","swapped"],"probe_pitches":[7,2,0,-3,5,9,7,2,-3,5,9,5,0,7,2,0],"shifted_pitches":[7,2,0,-3,5,9,7,3,-3,5,9,5,0,7,2,0],"swapped_pitches":[7,2,0,-3,5,9,7,-3,2,5,9,5,0,7,2,0],"shift_direction":1,"question_num":181,"has_decoy":false},{"rt":947.5999999940395,"stimulus":"[A] option 1, [L] option 2, [G] neither","key_press":65,"name":"choice","trial_type":"html-keyboard-response","trial_index":219,"time_elapsed":562088,"internal_node_id":"0.0-219.0","subject":"S1C1669","sona":"41685","block":4,"time":"2021-09-26T16:33:56.634Z","response":"1st","certainty":"high","char":"A","transposition":-2,"order":["swapped","shifted"],"probe_pitches":[11,9,11,6,3,5,6,7,11,5,11,0,-1,1,3,2],"shifted_pitches":[11,9,11,6,3,5,6,8,11,5,11,0,-1,1,3,2],"swapped_pitches":[11,9,11,6,3,5,6,11,7,5,11,0,-1,1,3,2],"shift_direction":1,"question_num":191,"has_decoy":false}]