[{"rt":304.19999998807907,"stimulus":"[A] option 1, [L] option 2, [G] neither","key_press":65,"name":"choice","trial_type":"html-keyboard-response","trial_index":10,"time_elapsed":14436,"internal_node_id":"0.0-10.0","subject":"S1C0838","sona":"41724","block":6,"time":"2021-09-18T19:15:03.066Z","response":"1st","certainty":"high","char":"A","transposition":-1,"order":["shifted","swapped"],"probe_pitches":[9,7,5,0,-3,6,-3,-2],"shifted_pitches":[9,7,5,0,-4,6,-3,-2],"swapped_pitches":[9,7,5,-3,0,6,-3,-2],"shift_direction":-1,"question_num":1,"has_decoy":false},{"rt":288.4000000357628,"stimulus":"[A] option 1, [L] option 2, [G] neither","key_press":65,"name":"choice","trial_type":"html-keyboard-response","trial_index":21,"time_elapsed":30071,"internal_node_id":"0.0-21.0","subject":"S1C0838","sona":"41724","block":6,"time":"2021-09-18T19:15:03.066Z","response":"1st","certainty":"high","char":"A","transposition":-3,"order":["swapped","shifted"],"probe_pitches":[-3,2,5,2,9,4,2,7],"shifted_pitches":[-3,2,5,3,9,4,2,7],"swapped_pitches":[-3,2,5,9,2,4,2,7],"shift_direction":1,"question_num":11,"has_decoy":false},{"rt":2035.699999988079,"stimulus":"[A] option 1, [L] option 2, [G] neither","key_press":76,"name":"choice","trial_type":"html-keyboard-response","trial_index":32,"time_elapsed":155287,"internal_node_id":"0.0-32.0","subject":"S1C0838","sona":"41724","block":6,"time":"2021-09-18T19:15:03.066Z","response":"2nd","certainty":"high","char":"L","transposition":-2,"order":["shifted","swapped"],"probe_pitches":[9,7,4,2,9,-1,4,9],"shifted_pitches":[9,7,4,2,10,-1,4,9],"swapped_pitches":[9,7,4,9,2,-1,4,9],"shift_direction":1,"question_num":21,"has_decoy":false},{"rt":3863.2000000476837,"stimulus":"[A] option 1, [L] option 2, [G] neither","key_press":76,"name":"choice","trial_type":"html-keyboard-response","trial_index":43,"time_elapsed":173766,"internal_node_id":"0.0-43.0","subject":"S1C0838","sona":"41724","block":6,"time":"2021-09-18T19:15:03.066Z","response":"2nd","certainty":"high","char":"L","transposition":-1,"order":["shifted","swapped"],"probe_pitches":[6,2,6,9,2,-1,-3,4],"shifted_pitches":[6,2,6,8,2,-1,-3,4],"swapped_pitches":[6,2,6,2,9,-1,-3,4],"shift_direction":-1,"question_num":31,"has_decoy":false},{"rt":392.60000002384186,"stimulus":"[A] option 1, [L] option 2, [G] neither","key_press":65,"name":"choice","trial_type":"html-keyboard-response","trial_index":54,"time_elapsed":317824,"internal_node_id":"0.0-54.0","subject":"S1C0838","sona":"41724","block":6,"time":"2021-09-18T19:15:03.066Z","response":"1st","certainty":"high","char":"A","transposition":-3,"order":["swapped","shifted"],"probe_pitches":[-3,2,7,2,4,9,-1,9],"shifted_pitches":[-3,2,7,3,4,9,-1,9],"swapped_pitches":[-3,2,7,4,2,9,-1,9],"shift_direction":1,"question_num":41,"has_decoy":false},{"rt":1179.4000000357628,"stimulus":"[A] option 1, [L] option 2, [G] neither","key_press":76,"name":"choice","trial_type":"html-keyboard-response","trial_index":65,"time_elapsed":337909,"internal_node_id":"0.0-65.0","subject":"S1C0838","sona":"41724","block":6,"time":"2021-09-18T19:15:03.066Z","response":"2nd","certainty":"high","char":"L","transposition":-1,"order":["shifted","swapped"],"probe_pitches":[5,2,7,2,9,7,0,9],"shifted_pitches":[5,2,7,2,8,7,0,9],"swapped_pitches":[5,2,7,9,2,7,0,9],"shift_direction":-1,"question_num":51,"has_decoy":false},{"rt":783.1000000238419,"stimulus":"[A] option 1, [L] option 2, [G] neither","key_press":65,"name":"choice","trial_type":"html-keyboard-response","trial_index":76,"time_elapsed":356966,"internal_node_id":"0.0-76.0","subject":"S1C0838","sona":"41724","block":6,"time":"2021-09-18T19:15:03.066Z","response":"1st","certainty":"high","char":"A","transposition":1,"order":["swapped","shifted"],"probe_pitches":[5,1,5,9,6,5,2,-2],"shifted_pitches":[5,1,5,9,7,5,2,-2],"swapped_pitches":[5,1,5,6,9,5,2,-2],"shift_direction":1,"question_num":61,"has_decoy":false},{"rt":274.5999999642372,"stimulus":"[A] option 1, [L] option 2, [G] neither","key_press":65,"name":"choice","trial_type":"html-keyboard-response","trial_index":87,"time_elapsed":392926,"internal_node_id":"0.0-87.0","subject":"S1C0838","sona":"41724","block":6,"time":"2021-09-18T19:15:03.066Z","response":"1st","certainty":"high","char":"A","transposition":0,"order":["swapped","shifted"],"probe_pitches":[-3,0,6,5,1,-2,0,6],"shifted_pitches":[-3,0,6,4,1,-2,0,6],"swapped_pitches":[-3,0,6,1,5,-2,0,6],"shift_direction":-1,"question_num":71,"has_decoy":false},{"rt":478.89999997615814,"stimulus":"[A] option 1, [L] option 2, [G] neither","key_press":76,"name":"choice","trial_type":"html-keyboard-response","trial_index":98,"time_elapsed":407813,"internal_node_id":"0.0-98.0","subject":"S1C0838","sona":"41724","block":6,"time":"2021-09-18T19:15:03.066Z","response":"2nd","certainty":"high","char":"L","transposition":-2,"order":["shifted","swapped"],"probe_pitches":[4,9,3,5,0,9,3,9],"shifted_pitches":[4,9,3,6,0,9,3,9],"swapped_pitches":[4,9,3,0,5,9,3,9],"shift_direction":1,"question_num":81,"has_decoy":false},{"rt":426,"stimulus":"[A] option 1, [L] option 2, [G] neither","key_press":65,"name":"choice","trial_type":"html-keyboard-response","trial_index":109,"time_elapsed":464368,"internal_node_id":"0.0-109.0","subject":"S1C0838","sona":"41724","block":6,"time":"2021-09-18T19:15:03.066Z","response":"1st","certainty":"high","char":"A","transposition":0,"order":["swapped","shifted"],"probe_pitches":[9,6,4,-3,-1,9,2,6],"shifted_pitches":[9,6,4,-2,-1,9,2,6],"swapped_pitches":[9,6,4,-1,-3,9,2,6],"shift_direction":1,"question_num":91,"has_decoy":false},{"rt":532.8999999761581,"stimulus":"[A] option 1, [L] option 2, [G] neither","key_press":76,"name":"choice","trial_type":"html-keyboard-response","trial_index":120,"time_elapsed":762265,"internal_node_id":"0.0-120.0","subject":"S1C0838","sona":"41724","block":6,"time":"2021-09-18T19:15:03.066Z","response":"2nd","certainty":"high","char":"L","transposition":2,"order":["shifted","swapped"],"probe_pitches":[-1,1,-1,-3,6,-1,4,-3],"shifted_pitches":[-1,1,-1,-3,5,-1,4,-3],"swapped_pitches":[-1,1,-1,6,-3,-1,4,-3],"shift_direction":-1,"question_num":101,"has_decoy":false},{"rt":750.6999999880791,"stimulus":"[A] option 1, [L] option 2, [G] neither","key_press":76,"name":"choice","trial_type":"html-keyboard-response","trial_index":131,"time_elapsed":816612,"internal_node_id":"0.0-131.0","subject":"S1C0838","sona":"41724","block":6,"time":"2021-09-18T19:15:03.066Z","response":"2nd","certainty":"high","char":"L","transposition":1,"order":["swapped","shifted"],"probe_pitches":[4,9,6,-1,1,-3,-1,-3],"shifted_pitches":[4,9,6,-2,1,-3,-1,-3],"swapped_pitches":[4,9,6,1,-1,-3,-1,-3],"shift_direction":-1,"question_num":111,"has_decoy":false},{"rt":635.1000000238419,"stimulus":"[A] option 1, [L] option 2, [G] neither","key_press":65,"name":"choice","trial_type":"html-keyboard-response","trial_index":142,"time_elapsed":832285,"internal_node_id":"0.0-142.0","subject":"S1C0838","sona":"41724","block":6,"time":"2021-09-18T19:15:03.066Z","response":"1st","certainty":"high","char":"A","transposition":-3,"order":["swapped","shifted"],"probe_pitches":[8,2,8,0,7,6,3,8],"shifted_pitches":[8,2,8,1,7,6,3,8],"swapped_pitches":[8,2,8,7,0,6,3,8],"shift_direction":1,"question_num":121,"has_decoy":false},{"rt":7028.600000023842,"stimulus":"[A] option 1, [L] option 2, [G] neither","key_press":65,"name":"choice","trial_type":"html-keyboard-response","trial_index":153,"time_elapsed":860930,"internal_node_id":"0.0-153.0","subject":"S1C0838","sona":"41724","block":6,"time":"2021-09-18T19:15:03.066Z","response":"1st","certainty":"high","char":"A","transposition":2,"order":["shifted","swapped"],"probe_pitches":[1,6,9,7,3,-3,7,6],"shifted_pitches":[1,6,9,7,2,-3,7,6],"swapped_pitches":[1,6,9,3,7,-3,7,6],"shift_direction":-1,"question_num":131,"has_decoy":false},{"rt":454.10000002384186,"stimulus":"[A] option 1, [L] option 2, [G] neither","key_press":65,"name":"choice","trial_type":"html-keyboard-response","trial_index":164,"time_elapsed":878603,"internal_node_id":"0.0-164.0","subject":"S1C0838","sona":"41724","block":6,"time":"2021-09-18T19:15:03.066Z","response":"1st","certainty":"high","char":"A","transposition":-2,"order":["swapped","shifted"],"probe_pitches":[9,4,9,4,2,0,7,4],"shifted_pitches":[9,4,9,5,2,0,7,4],"swapped_pitches":[9,4,9,2,4,0,7,4],"shift_direction":1,"question_num":141,"has_decoy":false},{"rt":469,"stimulus":"[A] option 1, [L] option 2, [G] neither","key_press":76,"name":"choice","trial_type":"html-keyboard-response","trial_index":175,"time_elapsed":903810,"internal_node_id":"0.0-175.0","subject":"S1C0838","sona":"41724","block":6,"time":"2021-09-18T19:15:03.066Z","response":"2nd","certainty":"high","char":"L","transposition":-1,"order":["shifted","swapped"],"probe_pitches":[-2,3,5,9,1,2,8,-2],"shifted_pitches":[-2,3,5,9,0,2,8,-2],"swapped_pitches":[-2,3,5,1,9,2,8,-2],"shift_direction":-1,"question_num":151,"has_decoy":false},{"rt":1745,"stimulus":"[A] option 1, [L] option 2, [G] neither","key_press":76,"name":"choice","trial_type":"html-keyboard-response","trial_index":186,"time_elapsed":931647,"internal_node_id":"0.0-186.0","subject":"S1C0838","sona":"41724","block":6,"time":"2021-09-18T19:15:03.066Z","response":"2nd","certainty":"high","char":"L","transposition":-3,"order":["shifted","swapped"],"probe_pitches":[-3,2,7,5,9,0,7,-3],"shifted_pitches":[-3,2,7,5,10,0,7,-3],"swapped_pitches":[-3,2,7,9,5,0,7,-3],"shift_direction":1,"question_num":161,"has_decoy":false},{"rt":709.1000000238419,"stimulus":"[A] option 1, [L] option 2, [G] neither","key_press":65,"name":"choice","trial_type":"html-keyboard-response","trial_index":197,"time_elapsed":949782,"internal_node_id":"0.0-197.0","subject":"S1C0838","sona":"41724","block":6,"time":"2021-09-18T19:15:03.066Z","response":"1st","certainty":"high","char":"A","transposition":3,"order":["swapped","shifted"],"probe_pitches":[4,0,2,9,7,2,4,-3],"shifted_pitches":[4,0,2,9,6,2,4,-3],"swapped_pitches":[4,0,2,7,9,2,4,-3],"shift_direction":-1,"question_num":171,"has_decoy":false},{"rt":2403.599999964237,"stimulus":"[A] option 1, [L] option 2, [G] neither","key_press":71,"name":"choice","trial_type":"html-keyboard-response","trial_index":208,"time_elapsed":983294,"internal_node_id":"0.0-208.0","subject":"S1C0838","sona":"41724","block":6,"time":"2021-09-18T19:15:03.066Z","response":"neither","certainty":"high","char":"G","transposition":-2,"order":["shifted","swapped"],"probe_pitches":[9,4,9,1,4,-2,7,-2],"shifted_pitches":[9,4,9,1,5,-2,7,-2],"swapped_pitches":[9,4,9,4,1,-2,7,-2],"shift_direction":1,"question_num":181,"has_decoy":false},{"rt":469.69999998807907,"stimulus":"[A] option 1, [L] option 2, [G] neither","key_press":65,"name":"choice","trial_type":"html-keyboard-response","trial_index":219,"time_elapsed":1009151,"internal_node_id":"0.0-219.0","subject":"S1C0838","sona":"41724","block":6,"time":"2021-09-18T19:15:03.066Z","response":"1st","certainty":"high","char":"A","transposition":3,"order":["swapped","shifted"],"probe_pitches":[5,4,7,0,9,5,0,-2],"shifted_pitches":[5,4,7,-1,9,5,0,-2],"swapped_pitches":[5,4,7,9,0,5,0,-2],"shift_direction":-1,"question_num":191,"has_decoy":false}]