[{"rt":794.8000000119209,"stimulus":"[A] option 1, [L] option 2, [G] neither","key_press":65,"name":"choice","trial_type":"html-keyboard-response","trial_index":10,"time_elapsed":18922,"internal_node_id":"0.0-10.0","subject":"S1C0838","sona":"41724","block":4,"time":"2021-09-18T18:40:23.541Z","response":"1st","certainty":"high","char":"A","transposition":-3,"order":["swapped","shifted"],"probe_pitches":[4,-1,1,-1,6,4,9,-3],"shifted_pitches":[4,-1,1,-1,5,4,9,-3],"swapped_pitches":[4,-1,1,6,-1,4,9,-3],"shift_direction":-1,"question_num":1,"has_decoy":false},{"rt":563.1000000238419,"stimulus":"[A] option 1, [L] option 2, [G] neither","key_press":65,"name":"choice","trial_type":"html-keyboard-response","trial_index":21,"time_elapsed":97671,"internal_node_id":"0.0-21.0","subject":"S1C0838","sona":"41724","block":4,"time":"2021-09-18T18:40:23.541Z","response":"1st","certainty":"high","char":"A","transposition":-2,"order":["swapped","shifted"],"probe_pitches":[-1,-3,4,7,2,4,-3,2],"shifted_pitches":[-1,-3,4,7,1,4,-3,2],"swapped_pitches":[-1,-3,4,2,7,4,-3,2],"shift_direction":-1,"question_num":11,"has_decoy":false},{"rt":819,"stimulus":"[A] option 1, [L] option 2, [G] neither","key_press":65,"name":"choice","trial_type":"html-keyboard-response","trial_index":32,"time_elapsed":113288,"internal_node_id":"0.0-32.0","subject":"S1C0838","sona":"41724","block":4,"time":"2021-09-18T18:40:23.541Z","response":"1st","certainty":"high","char":"A","transposition":-1,"order":["shifted","swapped"],"probe_pitches":[0,2,0,7,2,4,9,7],"shifted_pitches":[0,2,0,8,2,4,9,7],"swapped_pitches":[0,2,0,2,7,4,9,7],"shift_direction":1,"question_num":21,"has_decoy":false},{"rt":388.4000000357628,"stimulus":"[A] option 1, [L] option 2, [G] neither","key_press":76,"name":"choice","trial_type":"html-keyboard-response","trial_index":43,"time_elapsed":128368,"internal_node_id":"0.0-43.0","subject":"S1C0838","sona":"41724","block":4,"time":"2021-09-18T18:40:23.541Z","response":"2nd","certainty":"high","char":"L","transposition":-3,"order":["shifted","swapped"],"probe_pitches":[9,12,5,3,12,10,8,7],"shifted_pitches":[9,12,5,2,12,10,8,7],"swapped_pitches":[9,12,5,12,3,10,8,7],"shift_direction":-1,"question_num":31,"has_decoy":false},{"rt":391.30000001192093,"stimulus":"[A] option 1, [L] option 2, [G] neither","key_press":65,"name":"choice","trial_type":"html-keyboard-response","trial_index":54,"time_elapsed":146910,"internal_node_id":"0.0-54.0","subject":"S1C0838","sona":"41724","block":4,"time":"2021-09-18T18:40:23.541Z","response":"1st","certainty":"high","char":"A","transposition":-3,"order":["swapped","shifted"],"probe_pitches":[-1,2,-1,-3,6,9,4,6],"shifted_pitches":[-1,2,-1,-3,5,9,4,6],"swapped_pitches":[-1,2,-1,6,-3,9,4,6],"shift_direction":-1,"question_num":41,"has_decoy":false},{"rt":1527.699999988079,"stimulus":"[A] option 1, [L] option 2, [G] neither","key_press":76,"name":"choice","trial_type":"html-keyboard-response","trial_index":65,"time_elapsed":187977,"internal_node_id":"0.0-65.0","subject":"S1C0838","sona":"41724","block":4,"time":"2021-09-18T18:40:23.541Z","response":"2nd","certainty":"high","char":"L","transposition":3,"order":["swapped","shifted"],"probe_pitches":[9,4,10,6,8,3,7,6],"shifted_pitches":[9,4,10,5,8,3,7,6],"swapped_pitches":[9,4,10,8,6,3,7,6],"shift_direction":-1,"question_num":51,"has_decoy":false},{"rt":3463.099999964237,"stimulus":"[A] option 1, [L] option 2, [G] neither","key_press":71,"name":"choice","trial_type":"html-keyboard-response","trial_index":76,"time_elapsed":208220,"internal_node_id":"0.0-76.0","subject":"S1C0838","sona":"41724","block":4,"time":"2021-09-18T18:40:23.541Z","response":"neither","certainty":"high","char":"G","transposition":2,"order":["shifted","swapped"],"probe_pitches":[6,5,9,5,6,12,3,12],"shifted_pitches":[6,5,9,5,7,12,3,12],"swapped_pitches":[6,5,9,6,5,12,3,12],"shift_direction":1,"question_num":61,"has_decoy":false},{"rt":2075.900000035763,"stimulus":"[A] option 1, [L] option 2, [G] neither","key_press":76,"name":"choice","trial_type":"html-keyboard-response","trial_index":87,"time_elapsed":226114,"internal_node_id":"0.0-87.0","subject":"S1C0838","sona":"41724","block":4,"time":"2021-09-18T18:40:23.541Z","response":"2nd","certainty":"high","char":"L","transposition":-2,"order":["shifted","swapped"],"probe_pitches":[4,2,4,2,6,-1,6,9],"shifted_pitches":[4,2,4,3,6,-1,6,9],"swapped_pitches":[4,2,4,6,2,-1,6,9],"shift_direction":1,"question_num":71,"has_decoy":false},{"rt":1237.199999988079,"stimulus":"[A] option 1, [L] option 2, [G] neither","key_press":65,"name":"choice","trial_type":"html-keyboard-response","trial_index":98,"time_elapsed":243405,"internal_node_id":"0.0-98.0","subject":"S1C0838","sona":"41724","block":4,"time":"2021-09-18T18:40:23.541Z","response":"1st","certainty":"high","char":"A","transposition":-1,"order":["swapped","shifted"],"probe_pitches":[14,15,14,10,7,14,9,7],"shifted_pitches":[14,15,14,11,7,14,9,7],"swapped_pitches":[14,15,14,7,10,14,9,7],"shift_direction":1,"question_num":81,"has_decoy":false},{"rt":626.9000000357628,"stimulus":"[A] option 1, [L] option 2, [G] neither","key_press":76,"name":"choice","trial_type":"html-keyboard-response","trial_index":109,"time_elapsed":259716,"internal_node_id":"0.0-109.0","subject":"S1C0838","sona":"41724","block":4,"time":"2021-09-18T18:40:23.541Z","response":"2nd","certainty":"high","char":"L","transposition":-2,"order":["shifted","swapped"],"probe_pitches":[11,5,8,13,11,6,9,13],"shifted_pitches":[11,5,8,13,12,6,9,13],"swapped_pitches":[11,5,8,11,13,6,9,13],"shift_direction":1,"question_num":91,"has_decoy":false},{"rt":786.3000000119209,"stimulus":"[A] option 1, [L] option 2, [G] neither","key_press":76,"name":"choice","trial_type":"html-keyboard-response","trial_index":120,"time_elapsed":275796,"internal_node_id":"0.0-120.0","subject":"S1C0838","sona":"41724","block":4,"time":"2021-09-18T18:40:23.541Z","response":"2nd","certainty":"high","char":"L","transposition":-2,"order":["shifted","swapped"],"probe_pitches":[3,8,5,4,12,11,7,3],"shifted_pitches":[3,8,5,4,13,11,7,3],"swapped_pitches":[3,8,5,12,4,11,7,3],"shift_direction":1,"question_num":101,"has_decoy":false},{"rt":934.5,"stimulus":"[A] option 1, [L] option 2, [G] neither","key_press":65,"name":"choice","trial_type":"html-keyboard-response","trial_index":131,"time_elapsed":292121,"internal_node_id":"0.0-131.0","subject":"S1C0838","sona":"41724","block":4,"time":"2021-09-18T18:40:23.541Z","response":"1st","certainty":"high","char":"A","transposition":-1,"order":["swapped","shifted"],"probe_pitches":[14,13,14,15,11,8,5,14],"shifted_pitches":[14,13,14,15,10,8,5,14],"swapped_pitches":[14,13,14,11,15,8,5,14],"shift_direction":-1,"question_num":111,"has_decoy":false},{"rt":1849.5,"stimulus":"[A] option 1, [L] option 2, [G] neither","key_press":65,"name":"choice","trial_type":"html-keyboard-response","trial_index":142,"time_elapsed":309290,"internal_node_id":"0.0-142.0","subject":"S1C0838","sona":"41724","block":4,"time":"2021-09-18T18:40:23.541Z","response":"1st","certainty":"high","char":"A","transposition":-3,"order":["swapped","shifted"],"probe_pitches":[3,8,7,5,3,13,12,14],"shifted_pitches":[3,8,7,6,3,13,12,14],"swapped_pitches":[3,8,7,3,5,13,12,14],"shift_direction":1,"question_num":121,"has_decoy":false},{"rt":1002.5,"stimulus":"[A] option 1, [L] option 2, [G] neither","key_press":65,"name":"choice","trial_type":"html-keyboard-response","trial_index":153,"time_elapsed":338302,"internal_node_id":"0.0-153.0","subject":"S1C0838","sona":"41724","block":4,"time":"2021-09-18T18:40:23.541Z","response":"1st","certainty":"high","char":"A","transposition":1,"order":["swapped","shifted"],"probe_pitches":[7,6,12,10,4,14,12,13],"shifted_pitches":[7,6,12,9,4,14,12,13],"swapped_pitches":[7,6,12,4,10,14,12,13],"shift_direction":-1,"question_num":131,"has_decoy":false},{"rt":1097.199999988079,"stimulus":"[A] option 1, [L] option 2, [G] neither","key_press":76,"name":"choice","trial_type":"html-keyboard-response","trial_index":164,"time_elapsed":354916,"internal_node_id":"0.0-164.0","subject":"S1C0838","sona":"41724","block":4,"time":"2021-09-18T18:40:23.541Z","response":"2nd","certainty":"high","char":"L","transposition":-1,"order":["shifted","swapped"],"probe_pitches":[5,0,2,9,5,7,9,0],"shifted_pitches":[5,0,2,9,6,7,9,0],"swapped_pitches":[5,0,2,5,9,7,9,0],"shift_direction":1,"question_num":141,"has_decoy":false},{"rt":2052,"stimulus":"[A] option 1, [L] option 2, [G] neither","key_press":76,"name":"choice","trial_type":"html-keyboard-response","trial_index":175,"time_elapsed":372542,"internal_node_id":"0.0-175.0","subject":"S1C0838","sona":"41724","block":4,"time":"2021-09-18T18:40:23.541Z","response":"2nd","certainty":"high","char":"L","transposition":2,"order":["shifted","swapped"],"probe_pitches":[5,9,5,7,0,9,0,2],"shifted_pitches":[5,9,5,6,0,9,0,2],"swapped_pitches":[5,9,5,0,7,9,0,2],"shift_direction":-1,"question_num":151,"has_decoy":false},{"rt":1228.4000000357628,"stimulus":"[A] option 1, [L] option 2, [G] neither","key_press":65,"name":"choice","trial_type":"html-keyboard-response","trial_index":186,"time_elapsed":388897,"internal_node_id":"0.0-186.0","subject":"S1C0838","sona":"41724","block":4,"time":"2021-09-18T18:40:23.541Z","response":"1st","certainty":"high","char":"A","transposition":0,"order":["swapped","shifted"],"probe_pitches":[2,-3,-1,7,4,-3,2,-1],"shifted_pitches":[2,-3,-1,8,4,-3,2,-1],"swapped_pitches":[2,-3,-1,4,7,-3,2,-1],"shift_direction":1,"question_num":161,"has_decoy":false},{"rt":836.2999999523163,"stimulus":"[A] option 1, [L] option 2, [G] neither","key_press":65,"name":"choice","trial_type":"html-keyboard-response","trial_index":197,"time_elapsed":406526,"internal_node_id":"0.0-197.0","subject":"S1C0838","sona":"41724","block":4,"time":"2021-09-18T18:40:23.541Z","response":"1st","certainty":"high","char":"A","transposition":3,"order":["swapped","shifted"],"probe_pitches":[0,2,7,9,4,7,4,2],"shifted_pitches":[0,2,7,9,5,7,4,2],"swapped_pitches":[0,2,7,4,9,7,4,2],"shift_direction":1,"question_num":171,"has_decoy":false},{"rt":444.5,"stimulus":"[A] option 1, [L] option 2, [G] neither","key_press":76,"name":"choice","trial_type":"html-keyboard-response","trial_index":208,"time_elapsed":422142,"internal_node_id":"0.0-208.0","subject":"S1C0838","sona":"41724","block":4,"time":"2021-09-18T18:40:23.541Z","response":"2nd","certainty":"high","char":"L","transposition":0,"order":["shifted","swapped"],"probe_pitches":[9,3,6,12,9,6,3,7],"shifted_pitches":[9,3,6,12,8,6,3,7],"swapped_pitches":[9,3,6,9,12,6,3,7],"shift_direction":-1,"question_num":181,"has_decoy":false},{"rt":1504.800000011921,"stimulus":"[A] option 1, [L] option 2, [G] neither","key_press":76,"name":"choice","trial_type":"html-keyboard-response","trial_index":219,"time_elapsed":438723,"internal_node_id":"0.0-219.0","subject":"S1C0838","sona":"41724","block":4,"time":"2021-09-18T18:40:23.541Z","response":"2nd","certainty":"high","char":"L","transposition":1,"order":["shifted","swapped"],"probe_pitches":[4,6,4,-3,-1,1,-1,6],"shifted_pitches":[4,6,4,-4,-1,1,-1,6],"swapped_pitches":[4,6,4,-1,-3,1,-1,6],"shift_direction":-1,"question_num":191,"has_decoy":false}]