[{"rt":1555.300000011921,"stimulus":"[A] option 1, [L] option 2, [G] neither","key_press":65,"name":"choice","trial_type":"html-keyboard-response","trial_index":10,"time_elapsed":34548,"internal_node_id":"0.0-10.0","subject":"S1C0838","sona":"41724","block":5,"time":"2021-09-18T18:58:04.481Z","response":"1st","certainty":"high","char":"A","transposition":-3,"order":["swapped","shifted"],"probe_pitches":[10,8,3,5,8,0,5,10],"shifted_pitches":[10,8,3,4,8,0,5,10],"swapped_pitches":[10,8,3,8,5,0,5,10],"shift_direction":-1,"question_num":1,"has_decoy":false},{"rt":2964.199999988079,"stimulus":"[A] option 1, [L] option 2, [G] neither","key_press":65,"name":"choice","trial_type":"html-keyboard-response","trial_index":21,"time_elapsed":53547,"internal_node_id":"0.0-21.0","subject":"S1C0838","sona":"41724","block":5,"time":"2021-09-18T18:58:04.481Z","response":"1st","certainty":"high","char":"A","transposition":-2,"order":["swapped","shifted"],"probe_pitches":[0,-2,2,5,7,2,-2,5],"shifted_pitches":[0,-2,2,5,8,2,-2,5],"swapped_pitches":[0,-2,2,7,5,2,-2,5],"shift_direction":1,"question_num":11,"has_decoy":false},{"rt":1179.8999999761581,"stimulus":"[A] option 1, [L] option 2, [G] neither","key_press":65,"name":"choice","trial_type":"html-keyboard-response","trial_index":32,"time_elapsed":70063,"internal_node_id":"0.0-32.0","subject":"S1C0838","sona":"41724","block":5,"time":"2021-09-18T18:58:04.481Z","response":"1st","certainty":"high","char":"A","transposition":-2,"order":["swapped","shifted"],"probe_pitches":[2,7,10,3,1,6,1,10],"shifted_pitches":[2,7,10,3,0,6,1,10],"swapped_pitches":[2,7,10,1,3,6,1,10],"shift_direction":-1,"question_num":21,"has_decoy":false},{"rt":1328.199999988079,"stimulus":"[A] option 1, [L] option 2, [G] neither","key_press":76,"name":"choice","trial_type":"html-keyboard-response","trial_index":43,"time_elapsed":92450,"internal_node_id":"0.0-43.0","subject":"S1C0838","sona":"41724","block":5,"time":"2021-09-18T18:58:04.481Z","response":"2nd","certainty":"high","char":"L","transposition":3,"order":["shifted","swapped"],"probe_pitches":[10,8,3,10,5,8,-2,0],"shifted_pitches":[10,8,3,10,6,8,-2,0],"swapped_pitches":[10,8,3,5,10,8,-2,0],"shift_direction":1,"question_num":31,"has_decoy":false},{"rt":1857.699999988079,"stimulus":"[A] option 1, [L] option 2, [G] neither","key_press":65,"name":"choice","trial_type":"html-keyboard-response","trial_index":54,"time_elapsed":114093,"internal_node_id":"0.0-54.0","subject":"S1C0838","sona":"41724","block":5,"time":"2021-09-18T18:58:04.481Z","response":"1st","certainty":"high","char":"A","transposition":-1,"order":["shifted","swapped"],"probe_pitches":[10,5,10,5,7,0,-2,3],"shifted_pitches":[10,5,10,5,6,0,-2,3],"swapped_pitches":[10,5,10,7,5,0,-2,3],"shift_direction":-1,"question_num":41,"has_decoy":false},{"rt":1435.5,"stimulus":"[A] option 1, [L] option 2, [G] neither","key_press":65,"name":"choice","trial_type":"html-keyboard-response","trial_index":65,"time_elapsed":136060,"internal_node_id":"0.0-65.0","subject":"S1C0838","sona":"41724","block":5,"time":"2021-09-18T18:58:04.481Z","response":"1st","certainty":"high","char":"A","transposition":-1,"order":["swapped","shifted"],"probe_pitches":[10,5,0,7,-2,2,-2,7],"shifted_pitches":[10,5,0,8,-2,2,-2,7],"swapped_pitches":[10,5,0,-2,7,2,-2,7],"shift_direction":1,"question_num":51,"has_decoy":false},{"rt":934.0999999642372,"stimulus":"[A] option 1, [L] option 2, [G] neither","key_press":65,"name":"choice","trial_type":"html-keyboard-response","trial_index":76,"time_elapsed":156807,"internal_node_id":"0.0-76.0","subject":"S1C0838","sona":"41724","block":5,"time":"2021-09-18T18:58:04.481Z","response":"1st","certainty":"high","char":"A","transposition":-3,"order":["swapped","shifted"],"probe_pitches":[-2,1,8,10,1,6,1,3],"shifted_pitches":[-2,1,8,9,1,6,1,3],"swapped_pitches":[-2,1,8,1,10,6,1,3],"shift_direction":-1,"question_num":61,"has_decoy":false},{"rt":1089.5999999642372,"stimulus":"[A] option 1, [L] option 2, [G] neither","key_press":76,"name":"choice","trial_type":"html-keyboard-response","trial_index":87,"time_elapsed":171953,"internal_node_id":"0.0-87.0","subject":"S1C0838","sona":"41724","block":5,"time":"2021-09-18T18:58:04.481Z","response":"2nd","certainty":"high","char":"L","transposition":-1,"order":["shifted","swapped"],"probe_pitches":[-2,3,2,7,10,3,9,1],"shifted_pitches":[-2,3,2,6,10,3,9,1],"swapped_pitches":[-2,3,2,10,7,3,9,1],"shift_direction":-1,"question_num":71,"has_decoy":false},{"rt":1595.1000000238419,"stimulus":"[A] option 1, [L] option 2, [G] neither","key_press":65,"name":"choice","trial_type":"html-keyboard-response","trial_index":98,"time_elapsed":188368,"internal_node_id":"0.0-98.0","subject":"S1C0838","sona":"41724","block":5,"time":"2021-09-18T18:58:04.481Z","response":"1st","certainty":"high","char":"A","transposition":2,"order":["shifted","swapped"],"probe_pitches":[10,5,1,3,5,8,1,8],"shifted_pitches":[10,5,1,3,4,8,1,8],"swapped_pitches":[10,5,1,5,3,8,1,8],"shift_direction":-1,"question_num":81,"has_decoy":false},{"rt":504.19999998807907,"stimulus":"[A] option 1, [L] option 2, [G] neither","key_press":76,"name":"choice","trial_type":"html-keyboard-response","trial_index":109,"time_elapsed":204018,"internal_node_id":"0.0-109.0","subject":"S1C0838","sona":"41724","block":5,"time":"2021-09-18T18:58:04.481Z","response":"2nd","certainty":"high","char":"L","transposition":-3,"order":["shifted","swapped"],"probe_pitches":[7,9,2,-1,3,8,0,7],"shifted_pitches":[7,9,2,-1,4,8,0,7],"swapped_pitches":[7,9,2,3,-1,8,0,7],"shift_direction":1,"question_num":91,"has_decoy":false},{"rt":849.8999999761581,"stimulus":"[A] option 1, [L] option 2, [G] neither","key_press":76,"name":"choice","trial_type":"html-keyboard-response","trial_index":120,"time_elapsed":219543,"internal_node_id":"0.0-120.0","subject":"S1C0838","sona":"41724","block":5,"time":"2021-09-18T18:58:04.481Z","response":"2nd","certainty":"high","char":"L","transposition":1,"order":["shifted","swapped"],"probe_pitches":[1,-2,3,10,5,8,5,10],"shifted_pitches":[1,-2,3,11,5,8,5,10],"swapped_pitches":[1,-2,3,5,10,8,5,10],"shift_direction":1,"question_num":101,"has_decoy":false},{"rt":1162,"stimulus":"[A] option 1, [L] option 2, [G] neither","key_press":65,"name":"choice","trial_type":"html-keyboard-response","trial_index":131,"time_elapsed":267574,"internal_node_id":"0.0-131.0","subject":"S1C0838","sona":"41724","block":5,"time":"2021-09-18T18:58:04.481Z","response":"1st","certainty":"high","char":"A","transposition":1,"order":["swapped","shifted"],"probe_pitches":[-2,4,3,6,2,1,8,6],"shifted_pitches":[-2,4,3,5,2,1,8,6],"swapped_pitches":[-2,4,3,2,6,1,8,6],"shift_direction":-1,"question_num":111,"has_decoy":false},{"rt":547.2000000476837,"stimulus":"[A] option 1, [L] option 2, [G] neither","key_press":76,"name":"choice","trial_type":"html-keyboard-response","trial_index":142,"time_elapsed":286050,"internal_node_id":"0.0-142.0","subject":"S1C0838","sona":"41724","block":5,"time":"2021-09-18T18:58:04.481Z","response":"2nd","certainty":"high","char":"L","transposition":3,"order":["shifted","swapped"],"probe_pitches":[10,6,-1,1,9,5,9,-1],"shifted_pitches":[10,6,-1,2,9,5,9,-1],"swapped_pitches":[10,6,-1,9,1,5,9,-1],"shift_direction":1,"question_num":121,"has_decoy":false},{"rt":540.5999999642372,"stimulus":"[A] option 1, [L] option 2, [G] neither","key_press":65,"name":"choice","trial_type":"html-keyboard-response","trial_index":153,"time_elapsed":572534,"internal_node_id":"0.0-153.0","subject":"S1C0838","sona":"41724","block":5,"time":"2021-09-18T18:58:04.481Z","response":"1st","certainty":"high","char":"A","transposition":-3,"order":["swapped","shifted"],"probe_pitches":[7,10,5,2,9,1,7,1],"shifted_pitches":[7,10,5,3,9,1,7,1],"swapped_pitches":[7,10,5,9,2,1,7,1],"shift_direction":1,"question_num":131,"has_decoy":false},{"rt":838.0999999642372,"stimulus":"[A] option 1, [L] option 2, [G] neither","key_press":65,"name":"choice","trial_type":"html-keyboard-response","trial_index":164,"time_elapsed":596960,"internal_node_id":"0.0-164.0","subject":"S1C0838","sona":"41724","block":5,"time":"2021-09-18T18:58:04.481Z","response":"1st","certainty":"high","char":"A","transposition":-2,"order":["swapped","shifted"],"probe_pitches":[7,5,3,7,-2,3,0,7],"shifted_pitches":[7,5,3,7,-1,3,0,7],"swapped_pitches":[7,5,3,-2,7,3,0,7],"shift_direction":1,"question_num":141,"has_decoy":false},{"rt":410.69999998807907,"stimulus":"[A] option 1, [L] option 2, [G] neither","key_press":76,"name":"choice","trial_type":"html-keyboard-response","trial_index":175,"time_elapsed":832603,"internal_node_id":"0.0-175.0","subject":"S1C0838","sona":"41724","block":5,"time":"2021-09-18T18:58:04.481Z","response":"2nd","certainty":"high","char":"L","transposition":0,"order":["shifted","swapped"],"probe_pitches":[6,8,6,10,1,3,8,1],"shifted_pitches":[6,8,6,9,1,3,8,1],"swapped_pitches":[6,8,6,1,10,3,8,1],"shift_direction":-1,"question_num":151,"has_decoy":false},{"rt":446.7999999523163,"stimulus":"[A] option 1, [L] option 2, [G] neither","key_press":65,"name":"choice","trial_type":"html-keyboard-response","trial_index":186,"time_elapsed":848730,"internal_node_id":"0.0-186.0","subject":"S1C0838","sona":"41724","block":5,"time":"2021-09-18T18:58:04.481Z","response":"1st","certainty":"high","char":"A","transposition":-1,"order":["swapped","shifted"],"probe_pitches":[2,7,5,6,8,-2,3,10],"shifted_pitches":[2,7,5,6,9,-2,3,10],"swapped_pitches":[2,7,5,8,6,-2,3,10],"shift_direction":1,"question_num":161,"has_decoy":false},{"rt":730.8000000119209,"stimulus":"[A] option 1, [L] option 2, [G] neither","key_press":76,"name":"choice","trial_type":"html-keyboard-response","trial_index":197,"time_elapsed":865745,"internal_node_id":"0.0-197.0","subject":"S1C0838","sona":"41724","block":5,"time":"2021-09-18T18:58:04.481Z","response":"2nd","certainty":"high","char":"L","transposition":0,"order":["shifted","swapped"],"probe_pitches":[3,-1,0,6,9,-1,1,10],"shifted_pitches":[3,-1,0,6,8,-1,1,10],"swapped_pitches":[3,-1,0,9,6,-1,1,10],"shift_direction":-1,"question_num":171,"has_decoy":false},{"rt":354.5,"stimulus":"[A] option 1, [L] option 2, [G] neither","key_press":76,"name":"choice","trial_type":"html-keyboard-response","trial_index":208,"time_elapsed":881238,"internal_node_id":"0.0-208.0","subject":"S1C0838","sona":"41724","block":5,"time":"2021-09-18T18:58:04.481Z","response":"2nd","certainty":"high","char":"L","transposition":-2,"order":["shifted","swapped"],"probe_pitches":[10,4,2,9,0,3,8,9],"shifted_pitches":[10,4,2,9,1,3,8,9],"swapped_pitches":[10,4,2,0,9,3,8,9],"shift_direction":1,"question_num":181,"has_decoy":false},{"rt":1588,"stimulus":"[A] option 1, [L] option 2, [G] neither","key_press":65,"name":"choice","trial_type":"html-keyboard-response","trial_index":219,"time_elapsed":897671,"internal_node_id":"0.0-219.0","subject":"S1C0838","sona":"41724","block":5,"time":"2021-09-18T18:58:04.481Z","response":"1st","certainty":"high","char":"A","transposition":2,"order":["swapped","shifted"],"probe_pitches":[1,-1,5,8,9,1,4,-2],"shifted_pitches":[1,-1,5,7,9,1,4,-2],"swapped_pitches":[1,-1,5,9,8,1,4,-2],"shift_direction":-1,"question_num":191,"has_decoy":false}]