[{"rt":1724.800000011921,"stimulus":"[A] option 1, [L] option 2, [G] neither","key_press":65,"name":"choice","trial_type":"html-keyboard-response","trial_index":10,"time_elapsed":19919,"internal_node_id":"0.0-10.0","subject":"S1C0838","sona":"41724","block":2,"time":"2021-09-18T18:22:48.125Z","response":"1st","certainty":"high","char":"A","transposition":-1,"order":["shifted","swapped"],"probe_pitches":[4,7,3,9,8,1,11,3],"shifted_pitches":[4,7,3,10,8,1,11,3],"swapped_pitches":[4,7,3,8,9,1,11,3],"shift_direction":1,"question_num":1,"has_decoy":false},{"rt":773.1000000238419,"stimulus":"[A] option 1, [L] option 2, [G] neither","key_press":65,"name":"choice","trial_type":"html-keyboard-response","trial_index":21,"time_elapsed":37107,"internal_node_id":"0.0-21.0","subject":"S1C0838","sona":"41724","block":2,"time":"2021-09-18T18:22:48.125Z","response":"1st","certainty":"high","char":"A","transposition":-1,"order":["swapped","shifted"],"probe_pitches":[8,11,8,6,11,1,11,4],"shifted_pitches":[8,11,8,7,11,1,11,4],"swapped_pitches":[8,11,8,11,6,1,11,4],"shift_direction":1,"question_num":11,"has_decoy":false},{"rt":2842.199999988079,"stimulus":"[A] option 1, [L] option 2, [G] neither","key_press":76,"name":"choice","trial_type":"html-keyboard-response","trial_index":32,"time_elapsed":54998,"internal_node_id":"0.0-32.0","subject":"S1C0838","sona":"41724","block":2,"time":"2021-09-18T18:22:48.125Z","response":"2nd","certainty":"high","char":"L","transposition":0,"order":["shifted","swapped"],"probe_pitches":[10,7,11,10,9,4,10,6],"shifted_pitches":[10,7,11,10,8,4,10,6],"swapped_pitches":[10,7,11,9,10,4,10,6],"shift_direction":-1,"question_num":21,"has_decoy":false},{"rt":661,"stimulus":"[A] option 1, [L] option 2, [G] neither","key_press":76,"name":"choice","trial_type":"html-keyboard-response","trial_index":43,"time_elapsed":70345,"internal_node_id":"0.0-43.0","subject":"S1C0838","sona":"41724","block":2,"time":"2021-09-18T18:22:48.125Z","response":"2nd","certainty":"high","char":"L","transposition":-3,"order":["shifted","swapped"],"probe_pitches":[1,3,8,11,6,-1,8,6],"shifted_pitches":[1,3,8,10,6,-1,8,6],"swapped_pitches":[1,3,8,6,11,-1,8,6],"shift_direction":-1,"question_num":31,"has_decoy":false},{"rt":1417.300000011921,"stimulus":"[A] option 1, [L] option 2, [G] neither","key_press":76,"name":"choice","trial_type":"html-keyboard-response","trial_index":54,"time_elapsed":86573,"internal_node_id":"0.0-54.0","subject":"S1C0838","sona":"41724","block":2,"time":"2021-09-18T18:22:48.125Z","response":"2nd","certainty":"high","char":"L","transposition":3,"order":["swapped","shifted"],"probe_pitches":[-1,4,11,9,1,6,11,6],"shifted_pitches":[-1,4,11,8,1,6,11,6],"swapped_pitches":[-1,4,11,1,9,6,11,6],"shift_direction":-1,"question_num":41,"has_decoy":false},{"rt":1124.300000011921,"stimulus":"[A] option 1, [L] option 2, [G] neither","key_press":76,"name":"choice","trial_type":"html-keyboard-response","trial_index":65,"time_elapsed":102473,"internal_node_id":"0.0-65.0","subject":"S1C0838","sona":"41724","block":2,"time":"2021-09-18T18:22:48.125Z","response":"2nd","certainty":"high","char":"L","transposition":-2,"order":["shifted","swapped"],"probe_pitches":[8,3,1,6,11,3,6,11],"shifted_pitches":[8,3,1,5,11,3,6,11],"swapped_pitches":[8,3,1,11,6,3,6,11],"shift_direction":-1,"question_num":51,"has_decoy":false},{"rt":5883.800000011921,"stimulus":"[A] option 1, [L] option 2, [G] neither","key_press":76,"name":"choice","trial_type":"html-keyboard-response","trial_index":76,"time_elapsed":123927,"internal_node_id":"0.0-76.0","subject":"S1C0838","sona":"41724","block":2,"time":"2021-09-18T18:22:48.125Z","response":"2nd","certainty":"high","char":"L","transposition":2,"order":["swapped","shifted"],"probe_pitches":[11,7,12,7,8,2,1,8],"shifted_pitches":[11,7,12,7,9,2,1,8],"swapped_pitches":[11,7,12,8,7,2,1,8],"shift_direction":1,"question_num":61,"has_decoy":false},{"rt":852.0999999642372,"stimulus":"[A] option 1, [L] option 2, [G] neither","key_press":65,"name":"choice","trial_type":"html-keyboard-response","trial_index":87,"time_elapsed":139686,"internal_node_id":"0.0-87.0","subject":"S1C0838","sona":"41724","block":2,"time":"2021-09-18T18:22:48.125Z","response":"1st","certainty":"high","char":"A","transposition":-3,"order":["swapped","shifted"],"probe_pitches":[11,9,11,4,2,9,11,6],"shifted_pitches":[11,9,11,4,3,9,11,6],"swapped_pitches":[11,9,11,2,4,9,11,6],"shift_direction":1,"question_num":71,"has_decoy":false},{"rt":3578.800000011921,"stimulus":"[A] option 1, [L] option 2, [G] neither","key_press":65,"name":"choice","trial_type":"html-keyboard-response","trial_index":98,"time_elapsed":157984,"internal_node_id":"0.0-98.0","subject":"S1C0838","sona":"41724","block":2,"time":"2021-09-18T18:22:48.125Z","response":"1st","certainty":"high","char":"A","transposition":-3,"order":["swapped","shifted"],"probe_pitches":[2,3,10,4,5,8,4,1],"shifted_pitches":[2,3,10,4,6,8,4,1],"swapped_pitches":[2,3,10,5,4,8,4,1],"shift_direction":1,"question_num":81,"has_decoy":false},{"rt":1422.8999999761581,"stimulus":"[A] option 1, [L] option 2, [G] neither","key_press":76,"name":"choice","trial_type":"html-keyboard-response","trial_index":109,"time_elapsed":173989,"internal_node_id":"0.0-109.0","subject":"S1C0838","sona":"41724","block":2,"time":"2021-09-18T18:22:48.125Z","response":"2nd","certainty":"high","char":"L","transposition":-2,"order":["shifted","swapped"],"probe_pitches":[10,11,13,6,2,12,6,13],"shifted_pitches":[10,11,13,6,3,12,6,13],"swapped_pitches":[10,11,13,2,6,12,6,13],"shift_direction":1,"question_num":91,"has_decoy":false},{"rt":1021.0999999642372,"stimulus":"[A] option 1, [L] option 2, [G] neither","key_press":76,"name":"choice","trial_type":"html-keyboard-response","trial_index":120,"time_elapsed":189637,"internal_node_id":"0.0-120.0","subject":"S1C0838","sona":"41724","block":2,"time":"2021-09-18T18:22:48.125Z","response":"2nd","certainty":"high","char":"L","transposition":-3,"order":["shifted","swapped"],"probe_pitches":[13,10,4,6,11,1,8,2],"shifted_pitches":[13,10,4,7,11,1,8,2],"swapped_pitches":[13,10,4,11,6,1,8,2],"shift_direction":1,"question_num":101,"has_decoy":false},{"rt":958.8999999761581,"stimulus":"[A] option 1, [L] option 2, [G] neither","key_press":65,"name":"choice","trial_type":"html-keyboard-response","trial_index":131,"time_elapsed":205314,"internal_node_id":"0.0-131.0","subject":"S1C0838","sona":"41724","block":2,"time":"2021-09-18T18:22:48.125Z","response":"1st","certainty":"high","char":"A","transposition":-1,"order":["swapped","shifted"],"probe_pitches":[10,9,10,6,2,11,3,7],"shifted_pitches":[10,9,10,5,2,11,3,7],"swapped_pitches":[10,9,10,2,6,11,3,7],"shift_direction":-1,"question_num":111,"has_decoy":false},{"rt":2503.300000011921,"stimulus":"[A] option 1, [L] option 2, [G] neither","key_press":65,"name":"choice","trial_type":"html-keyboard-response","trial_index":142,"time_elapsed":224327,"internal_node_id":"0.0-142.0","subject":"S1C0838","sona":"41724","block":2,"time":"2021-09-18T18:22:48.125Z","response":"1st","certainty":"high","char":"A","transposition":-2,"order":["swapped","shifted"],"probe_pitches":[1,3,8,12,6,8,10,1],"shifted_pitches":[1,3,8,11,6,8,10,1],"swapped_pitches":[1,3,8,6,12,8,10,1],"shift_direction":-1,"question_num":121,"has_decoy":false},{"rt":657.5,"stimulus":"[A] option 1, [L] option 2, [G] neither","key_press":76,"name":"choice","trial_type":"html-keyboard-response","trial_index":153,"time_elapsed":239923,"internal_node_id":"0.0-153.0","subject":"S1C0838","sona":"41724","block":2,"time":"2021-09-18T18:22:48.125Z","response":"2nd","certainty":"high","char":"L","transposition":2,"order":["shifted","swapped"],"probe_pitches":[2,-1,2,4,7,-1,9,4],"shifted_pitches":[2,-1,2,4,6,-1,9,4],"swapped_pitches":[2,-1,2,7,4,-1,9,4],"shift_direction":-1,"question_num":131,"has_decoy":false},{"rt":793.8000000119209,"stimulus":"[A] option 1, [L] option 2, [G] neither","key_press":65,"name":"choice","trial_type":"html-keyboard-response","trial_index":164,"time_elapsed":255758,"internal_node_id":"0.0-164.0","subject":"S1C0838","sona":"41724","block":2,"time":"2021-09-18T18:22:48.125Z","response":"1st","certainty":"high","char":"A","transposition":-2,"order":["swapped","shifted"],"probe_pitches":[6,9,2,4,11,9,2,11],"shifted_pitches":[6,9,2,4,12,9,2,11],"swapped_pitches":[6,9,2,11,4,9,2,11],"shift_direction":1,"question_num":141,"has_decoy":false},{"rt":4259.600000023842,"stimulus":"[A] option 1, [L] option 2, [G] neither","key_press":76,"name":"choice","trial_type":"html-keyboard-response","trial_index":175,"time_elapsed":276215,"internal_node_id":"0.0-175.0","subject":"S1C0838","sona":"41724","block":2,"time":"2021-09-18T18:22:48.125Z","response":"2nd","certainty":"high","char":"L","transposition":3,"order":["swapped","shifted"],"probe_pitches":[8,3,2,1,6,4,8,1],"shifted_pitches":[8,3,2,0,6,4,8,1],"swapped_pitches":[8,3,2,6,1,4,8,1],"shift_direction":-1,"question_num":151,"has_decoy":false},{"rt":794.1000000238419,"stimulus":"[A] option 1, [L] option 2, [G] neither","key_press":65,"name":"choice","trial_type":"html-keyboard-response","trial_index":186,"time_elapsed":291638,"internal_node_id":"0.0-186.0","subject":"S1C0838","sona":"41724","block":2,"time":"2021-09-18T18:22:48.125Z","response":"1st","certainty":"high","char":"A","transposition":0,"order":["swapped","shifted"],"probe_pitches":[1,4,8,6,1,8,11,1],"shifted_pitches":[1,4,8,6,0,8,11,1],"swapped_pitches":[1,4,8,1,6,8,11,1],"shift_direction":-1,"question_num":161,"has_decoy":false},{"rt":2378,"stimulus":"[A] option 1, [L] option 2, [G] neither","key_press":76,"name":"choice","trial_type":"html-keyboard-response","trial_index":197,"time_elapsed":308823,"internal_node_id":"0.0-197.0","subject":"S1C0838","sona":"41724","block":2,"time":"2021-09-18T18:22:48.125Z","response":"2nd","certainty":"high","char":"L","transposition":1,"order":["shifted","swapped"],"probe_pitches":[11,10,6,12,5,13,6,12],"shifted_pitches":[11,10,6,12,4,13,6,12],"swapped_pitches":[11,10,6,5,12,13,6,12],"shift_direction":-1,"question_num":171,"has_decoy":false},{"rt":579.7000000476837,"stimulus":"[A] option 1, [L] option 2, [G] neither","key_press":76,"name":"choice","trial_type":"html-keyboard-response","trial_index":208,"time_elapsed":324343,"internal_node_id":"0.0-208.0","subject":"S1C0838","sona":"41724","block":2,"time":"2021-09-18T18:22:48.125Z","response":"2nd","certainty":"high","char":"L","transposition":1,"order":["shifted","swapped"],"probe_pitches":[11,7,9,4,11,7,9,2],"shifted_pitches":[11,7,9,5,11,7,9,2],"swapped_pitches":[11,7,9,11,4,7,9,2],"shift_direction":1,"question_num":181,"has_decoy":false},{"rt":800.1999999880791,"stimulus":"[A] option 1, [L] option 2, [G] neither","key_press":65,"name":"choice","trial_type":"html-keyboard-response","trial_index":219,"time_elapsed":339975,"internal_node_id":"0.0-219.0","subject":"S1C0838","sona":"41724","block":2,"time":"2021-09-18T18:22:48.125Z","response":"1st","certainty":"high","char":"A","transposition":-1,"order":["shifted","swapped"],"probe_pitches":[1,6,9,6,4,-1,9,-1],"shifted_pitches":[1,6,9,6,5,-1,9,-1],"swapped_pitches":[1,6,9,4,6,-1,9,-1],"shift_direction":1,"question_num":191,"has_decoy":false}]