[{"rt":795.9000000357628,"stimulus":"[A] option 1, [L] option 2, [G] neither","key_press":65,"name":"choice","trial_type":"html-keyboard-response","trial_index":10,"time_elapsed":72826,"internal_node_id":"0.0-10.0","subject":"S1C0838","sona":"41724","block":3,"time":"2021-09-18T18:31:19.045Z","response":"1st","certainty":"high","char":"A","transposition":-3,"order":["swapped","shifted"],"probe_pitches":[3,8,10,5,8,12,3,5],"shifted_pitches":[3,8,10,5,7,12,3,5],"swapped_pitches":[3,8,10,8,5,12,3,5],"shift_direction":-1,"question_num":1,"has_decoy":false},{"rt":1057.800000011921,"stimulus":"[A] option 1, [L] option 2, [G] neither","key_press":76,"name":"choice","trial_type":"html-keyboard-response","trial_index":21,"time_elapsed":88819,"internal_node_id":"0.0-21.0","subject":"S1C0838","sona":"41724","block":3,"time":"2021-09-18T18:31:19.045Z","response":"2nd","certainty":"high","char":"L","transposition":-2,"order":["shifted","swapped"],"probe_pitches":[9,10,5,6,10,9,2,6],"shifted_pitches":[9,10,5,6,11,9,2,6],"swapped_pitches":[9,10,5,10,6,9,2,6],"shift_direction":1,"question_num":11,"has_decoy":false},{"rt":427.4000000357628,"stimulus":"[A] option 1, [L] option 2, [G] neither","key_press":76,"name":"choice","trial_type":"html-keyboard-response","trial_index":32,"time_elapsed":107717,"internal_node_id":"0.0-32.0","subject":"S1C0838","sona":"41724","block":3,"time":"2021-09-18T18:31:19.045Z","response":"2nd","certainty":"high","char":"L","transposition":-2,"order":["shifted","swapped"],"probe_pitches":[11,9,12,11,5,0,7,11],"shifted_pitches":[11,9,12,11,6,0,7,11],"swapped_pitches":[11,9,12,5,11,0,7,11],"shift_direction":1,"question_num":21,"has_decoy":false},{"rt":1183.3999999761581,"stimulus":"[A] option 1, [L] option 2, [G] neither","key_press":76,"name":"choice","trial_type":"html-keyboard-response","trial_index":43,"time_elapsed":153103,"internal_node_id":"0.0-43.0","subject":"S1C0838","sona":"41724","block":3,"time":"2021-09-18T18:31:19.045Z","response":"2nd","certainty":"high","char":"L","transposition":-2,"order":["shifted","swapped"],"probe_pitches":[7,10,5,0,3,5,7,0],"shifted_pitches":[7,10,5,0,2,5,7,0],"swapped_pitches":[7,10,5,3,0,5,7,0],"shift_direction":-1,"question_num":31,"has_decoy":false},{"rt":543.6000000238419,"stimulus":"[A] option 1, [L] option 2, [G] neither","key_press":65,"name":"choice","trial_type":"html-keyboard-response","trial_index":54,"time_elapsed":168665,"internal_node_id":"0.0-54.0","subject":"S1C0838","sona":"41724","block":3,"time":"2021-09-18T18:31:19.045Z","response":"1st","certainty":"high","char":"A","transposition":-1,"order":["swapped","shifted"],"probe_pitches":[3,8,3,5,9,2,7,12],"shifted_pitches":[3,8,3,5,10,2,7,12],"swapped_pitches":[3,8,3,9,5,2,7,12],"shift_direction":1,"question_num":41,"has_decoy":false},{"rt":883.8000000119209,"stimulus":"[A] option 1, [L] option 2, [G] neither","key_press":76,"name":"choice","trial_type":"html-keyboard-response","trial_index":65,"time_elapsed":185633,"internal_node_id":"0.0-65.0","subject":"S1C0838","sona":"41724","block":3,"time":"2021-09-18T18:31:19.045Z","response":"2nd","certainty":"high","char":"L","transposition":1,"order":["shifted","swapped"],"probe_pitches":[10,7,10,12,9,7,9,11],"shifted_pitches":[10,7,10,12,8,7,9,11],"swapped_pitches":[10,7,10,9,12,7,9,11],"shift_direction":-1,"question_num":51,"has_decoy":false},{"rt":793.9000000357628,"stimulus":"[A] option 1, [L] option 2, [G] neither","key_press":76,"name":"choice","trial_type":"html-keyboard-response","trial_index":76,"time_elapsed":201384,"internal_node_id":"0.0-76.0","subject":"S1C0838","sona":"41724","block":3,"time":"2021-09-18T18:31:19.045Z","response":"2nd","certainty":"high","char":"L","transposition":2,"order":["shifted","swapped"],"probe_pitches":[8,5,3,10,8,5,0,10],"shifted_pitches":[8,5,3,10,9,5,0,10],"swapped_pitches":[8,5,3,8,10,5,0,10],"shift_direction":1,"question_num":61,"has_decoy":false},{"rt":1742.5999999642372,"stimulus":"[A] option 1, [L] option 2, [G] neither","key_press":65,"name":"choice","trial_type":"html-keyboard-response","trial_index":87,"time_elapsed":217962,"internal_node_id":"0.0-87.0","subject":"S1C0838","sona":"41724","block":3,"time":"2021-09-18T18:31:19.045Z","response":"1st","certainty":"high","char":"A","transposition":0,"order":["swapped","shifted"],"probe_pitches":[9,4,2,7,12,2,0,9],"shifted_pitches":[9,4,2,8,12,2,0,9],"swapped_pitches":[9,4,2,12,7,2,0,9],"shift_direction":1,"question_num":71,"has_decoy":false},{"rt":437.19999998807907,"stimulus":"[A] option 1, [L] option 2, [G] neither","key_press":76,"name":"choice","trial_type":"html-keyboard-response","trial_index":98,"time_elapsed":233137,"internal_node_id":"0.0-98.0","subject":"S1C0838","sona":"41724","block":3,"time":"2021-09-18T18:31:19.045Z","response":"2nd","certainty":"high","char":"L","transposition":-3,"order":["shifted","swapped"],"probe_pitches":[1,7,11,4,10,8,9,6],"shifted_pitches":[1,7,11,5,10,8,9,6],"swapped_pitches":[1,7,11,10,4,8,9,6],"shift_direction":1,"question_num":81,"has_decoy":false},{"rt":834.0999999642372,"stimulus":"[A] option 1, [L] option 2, [G] neither","key_press":65,"name":"choice","trial_type":"html-keyboard-response","trial_index":109,"time_elapsed":284983,"internal_node_id":"0.0-109.0","subject":"S1C0838","sona":"41724","block":3,"time":"2021-09-18T18:31:19.045Z","response":"1st","certainty":"high","char":"A","transposition":-1,"order":["swapped","shifted"],"probe_pitches":[9,10,7,3,9,1,9,3],"shifted_pitches":[9,10,7,4,9,1,9,3],"swapped_pitches":[9,10,7,9,3,1,9,3],"shift_direction":1,"question_num":91,"has_decoy":false},{"rt":525.2999999523163,"stimulus":"[A] option 1, [L] option 2, [G] neither","key_press":65,"name":"choice","trial_type":"html-keyboard-response","trial_index":120,"time_elapsed":300576,"internal_node_id":"0.0-120.0","subject":"S1C0838","sona":"41724","block":3,"time":"2021-09-18T18:31:19.045Z","response":"1st","certainty":"high","char":"A","transposition":-1,"order":["swapped","shifted"],"probe_pitches":[0,2,0,7,12,2,9,5],"shifted_pitches":[0,2,0,7,13,2,9,5],"swapped_pitches":[0,2,0,12,7,2,9,5],"shift_direction":1,"question_num":101,"has_decoy":false},{"rt":611.3999999761581,"stimulus":"[A] option 1, [L] option 2, [G] neither","key_press":76,"name":"choice","trial_type":"html-keyboard-response","trial_index":131,"time_elapsed":315720,"internal_node_id":"0.0-131.0","subject":"S1C0838","sona":"41724","block":3,"time":"2021-09-18T18:31:19.045Z","response":"2nd","certainty":"high","char":"L","transposition":3,"order":["shifted","swapped"],"probe_pitches":[5,3,5,12,3,5,6,12],"shifted_pitches":[5,3,5,12,2,5,6,12],"swapped_pitches":[5,3,5,3,12,5,6,12],"shift_direction":-1,"question_num":111,"has_decoy":false},{"rt":519.3000000119209,"stimulus":"[A] option 1, [L] option 2, [G] neither","key_press":65,"name":"choice","trial_type":"html-keyboard-response","trial_index":142,"time_elapsed":331300,"internal_node_id":"0.0-142.0","subject":"S1C0838","sona":"41724","block":3,"time":"2021-09-18T18:31:19.045Z","response":"1st","certainty":"high","char":"A","transposition":2,"order":["swapped","shifted"],"probe_pitches":[12,9,10,8,5,11,5,12],"shifted_pitches":[12,9,10,7,5,11,5,12],"swapped_pitches":[12,9,10,5,8,11,5,12],"shift_direction":-1,"question_num":121,"has_decoy":false},{"rt":1217,"stimulus":"[A] option 1, [L] option 2, [G] neither","key_press":65,"name":"choice","trial_type":"html-keyboard-response","trial_index":153,"time_elapsed":347308,"internal_node_id":"0.0-153.0","subject":"S1C0838","sona":"41724","block":3,"time":"2021-09-18T18:31:19.045Z","response":"1st","certainty":"high","char":"A","transposition":1,"order":["swapped","shifted"],"probe_pitches":[10,7,5,0,3,12,5,10],"shifted_pitches":[10,7,5,1,3,12,5,10],"swapped_pitches":[10,7,5,3,0,12,5,10],"shift_direction":1,"question_num":131,"has_decoy":false},{"rt":1800.1000000238419,"stimulus":"[A] option 1, [L] option 2, [G] neither","key_press":76,"name":"choice","trial_type":"html-keyboard-response","trial_index":164,"time_elapsed":364010,"internal_node_id":"0.0-164.0","subject":"S1C0838","sona":"41724","block":3,"time":"2021-09-18T18:31:19.045Z","response":"2nd","certainty":"high","char":"L","transposition":3,"order":["shifted","swapped"],"probe_pitches":[7,5,2,0,9,5,0,9],"shifted_pitches":[7,5,2,0,10,5,0,9],"swapped_pitches":[7,5,2,9,0,5,0,9],"shift_direction":1,"question_num":141,"has_decoy":false},{"rt":2286.899999976158,"stimulus":"[A] option 1, [L] option 2, [G] neither","key_press":65,"name":"choice","trial_type":"html-keyboard-response","trial_index":175,"time_elapsed":383847,"internal_node_id":"0.0-175.0","subject":"S1C0838","sona":"41724","block":3,"time":"2021-09-18T18:31:19.045Z","response":"1st","certainty":"high","char":"A","transposition":-3,"order":["shifted","swapped"],"probe_pitches":[0,5,12,7,2,0,10,7],"shifted_pitches":[0,5,12,6,2,0,10,7],"swapped_pitches":[0,5,12,2,7,0,10,7],"shift_direction":-1,"question_num":151,"has_decoy":false},{"rt":812.3000000119209,"stimulus":"[A] option 1, [L] option 2, [G] neither","key_press":65,"name":"choice","trial_type":"html-keyboard-response","trial_index":186,"time_elapsed":400412,"internal_node_id":"0.0-186.0","subject":"S1C0838","sona":"41724","block":3,"time":"2021-09-18T18:31:19.045Z","response":"1st","certainty":"high","char":"A","transposition":-2,"order":["swapped","shifted"],"probe_pitches":[10,5,12,7,0,2,5,7],"shifted_pitches":[10,5,12,6,0,2,5,7],"swapped_pitches":[10,5,12,0,7,2,5,7],"shift_direction":-1,"question_num":161,"has_decoy":false},{"rt":1085.699999988079,"stimulus":"[A] option 1, [L] option 2, [G] neither","key_press":76,"name":"choice","trial_type":"html-keyboard-response","trial_index":197,"time_elapsed":416806,"internal_node_id":"0.0-197.0","subject":"S1C0838","sona":"41724","block":3,"time":"2021-09-18T18:31:19.045Z","response":"2nd","certainty":"high","char":"L","transposition":-1,"order":["shifted","swapped"],"probe_pitches":[12,7,4,9,2,0,2,7],"shifted_pitches":[12,7,4,8,2,0,2,7],"swapped_pitches":[12,7,4,2,9,0,2,7],"shift_direction":-1,"question_num":171,"has_decoy":false},{"rt":1322.5,"stimulus":"[A] option 1, [L] option 2, [G] neither","key_press":65,"name":"choice","trial_type":"html-keyboard-response","trial_index":208,"time_elapsed":433244,"internal_node_id":"0.0-208.0","subject":"S1C0838","sona":"41724","block":3,"time":"2021-09-18T18:31:19.045Z","response":"1st","certainty":"high","char":"A","transposition":-3,"order":["swapped","shifted"],"probe_pitches":[6,5,10,4,0,7,10,1],"shifted_pitches":[6,5,10,3,0,7,10,1],"swapped_pitches":[6,5,10,0,4,7,10,1],"shift_direction":-1,"question_num":181,"has_decoy":false},{"rt":965.3000000119209,"stimulus":"[A] option 1, [L] option 2, [G] neither","key_press":65,"name":"choice","trial_type":"html-keyboard-response","trial_index":219,"time_elapsed":454065,"internal_node_id":"0.0-219.0","subject":"S1C0838","sona":"41724","block":3,"time":"2021-09-18T18:31:19.045Z","response":"1st","certainty":"high","char":"A","transposition":0,"order":["swapped","shifted"],"probe_pitches":[3,2,7,10,5,0,6,7],"shifted_pitches":[3,2,7,9,5,0,6,7],"swapped_pitches":[3,2,7,5,10,0,6,7],"shift_direction":-1,"question_num":191,"has_decoy":false}]