[{"rt":5990.599999964237,"stimulus":"[A] option 1, [L] option 2, [G] neither","key_press":65,"name":"choice","trial_type":"html-keyboard-response","trial_index":15,"time_elapsed":147310,"internal_node_id":"0.0-15.0","response":"1st","certainty":"high","char":"A","transposition":3,"order":["swapped","shifted"],"probe_pitches":[5,6,5,-1,3,6,-1,1],"shifted_pitches":[5,6,5,-1,4,6,-1,1],"swapped_pitches":[5,6,5,3,-1,6,-1,1],"shift_direction":1,"question_num":1,"has_decoy":false,"subject":"S1C0838","sona":"41724","block":1,"time":"2021-09-18T18:16:28.741Z"},{"rt":3841.199999988079,"stimulus":"[A] option 1, [L] option 2, [G] neither","key_press":76,"name":"choice","trial_type":"html-keyboard-response","trial_index":26,"time_elapsed":167762,"internal_node_id":"0.0-26.0","response":"2nd","certainty":"high","char":"L","transposition":2,"order":["shifted","swapped"],"probe_pitches":[-3,2,9,4,-2,7,9,6],"shifted_pitches":[-3,2,9,3,-2,7,9,6],"swapped_pitches":[-3,2,9,-2,4,7,9,6],"shift_direction":-1,"question_num":11,"has_decoy":false,"subject":"S1C0838","sona":"41724","block":1,"time":"2021-09-18T18:16:28.741Z"},{"rt":4220.5,"stimulus":"[A] option 1, [L] option 2, [G] neither","key_press":76,"name":"choice","trial_type":"html-keyboard-response","trial_index":37,"time_elapsed":188351,"internal_node_id":"0.0-37.0","response":"2nd","certainty":"high","char":"L","transposition":0,"order":["swapped","shifted"],"probe_pitches":[15,10,15,12,10,3,8,5],"shifted_pitches":[15,10,15,11,10,3,8,5],"swapped_pitches":[15,10,15,10,12,3,8,5],"shift_direction":-1,"question_num":21,"has_decoy":false,"subject":"S1C0838","sona":"41724","block":1,"time":"2021-09-18T18:16:28.741Z"},{"rt":980.8000000119209,"stimulus":"[A] option 1, [L] option 2, [G] neither","key_press":65,"name":"choice","trial_type":"html-keyboard-response","trial_index":48,"time_elapsed":205151,"internal_node_id":"0.0-48.0","response":"1st","certainty":"high","char":"A","transposition":-1,"order":["shifted","swapped"],"probe_pitches":[10,6,13,15,6,8,15,13],"shifted_pitches":[10,6,13,14,6,8,15,13],"swapped_pitches":[10,6,13,6,15,8,15,13],"shift_direction":-1,"question_num":31,"has_decoy":false,"subject":"S1C0838","sona":"41724","block":1,"time":"2021-09-18T18:16:28.741Z"},{"rt":1455.4000000357628,"stimulus":"[A] option 1, [L] option 2, [G] neither","key_press":76,"name":"choice","trial_type":"html-keyboard-response","trial_index":59,"time_elapsed":221963,"internal_node_id":"0.0-59.0","response":"2nd","certainty":"high","char":"L","transposition":1,"order":["shifted","swapped"],"probe_pitches":[10,5,7,12,3,5,3,15],"shifted_pitches":[10,5,7,12,4,5,3,15],"swapped_pitches":[10,5,7,3,12,5,3,15],"shift_direction":1,"question_num":41,"has_decoy":false,"subject":"S1C0838","sona":"41724","block":1,"time":"2021-09-18T18:16:28.741Z"},{"rt":4530.300000011921,"stimulus":"[A] option 1, [L] option 2, [G] neither","key_press":76,"name":"choice","trial_type":"html-keyboard-response","trial_index":70,"time_elapsed":241941,"internal_node_id":"0.0-70.0","response":"2nd","certainty":"high","char":"L","transposition":-3,"order":["shifted","swapped"],"probe_pitches":[9,5,0,1,3,7,-1,4],"shifted_pitches":[9,5,0,2,3,7,-1,4],"swapped_pitches":[9,5,0,3,1,7,-1,4],"shift_direction":1,"question_num":51,"has_decoy":false,"subject":"S1C0838","sona":"41724","block":1,"time":"2021-09-18T18:16:28.741Z"},{"rt":3908.899999976158,"stimulus":"[A] option 1, [L] option 2, [G] neither","key_press":71,"name":"choice","trial_type":"html-keyboard-response","trial_index":81,"time_elapsed":261137,"internal_node_id":"0.0-81.0","response":"neither","certainty":"high","char":"G","transposition":-2,"order":["shifted","swapped"],"probe_pitches":[10,12,15,8,3,10,12,5],"shifted_pitches":[10,12,15,7,3,10,12,5],"swapped_pitches":[10,12,15,3,8,10,12,5],"shift_direction":-1,"question_num":61,"has_decoy":false,"subject":"S1C0838","sona":"41724","block":1,"time":"2021-09-18T18:16:28.741Z"},{"rt":873.6000000238419,"stimulus":"[A] option 1, [L] option 2, [G] neither","key_press":65,"name":"choice","trial_type":"html-keyboard-response","trial_index":92,"time_elapsed":277202,"internal_node_id":"0.0-92.0","response":"1st","certainty":"high","char":"A","transposition":-3,"order":["swapped","shifted"],"probe_pitches":[4,6,3,6,1,-2,-3,3],"shifted_pitches":[4,6,3,5,1,-2,-3,3],"swapped_pitches":[4,6,3,1,6,-2,-3,3],"shift_direction":-1,"question_num":71,"has_decoy":false,"subject":"S1C0838","sona":"41724","block":1,"time":"2021-09-18T18:16:28.741Z"},{"rt":1012.9000000357628,"stimulus":"[A] option 1, [L] option 2, [G] neither","key_press":65,"name":"choice","trial_type":"html-keyboard-response","trial_index":103,"time_elapsed":293442,"internal_node_id":"0.0-103.0","response":"1st","certainty":"high","char":"A","transposition":-1,"order":["swapped","shifted"],"probe_pitches":[7,4,7,1,-3,5,1,-1],"shifted_pitches":[7,4,7,0,-3,5,1,-1],"swapped_pitches":[7,4,7,-3,1,5,1,-1],"shift_direction":-1,"question_num":81,"has_decoy":false,"subject":"S1C0838","sona":"41724","block":1,"time":"2021-09-18T18:16:28.741Z"},{"rt":4933,"stimulus":"[A] option 1, [L] option 2, [G] neither","key_press":76,"name":"choice","trial_type":"html-keyboard-response","trial_index":114,"time_elapsed":313621,"internal_node_id":"0.0-114.0","response":"2nd","certainty":"high","char":"L","transposition":-1,"order":["swapped","shifted"],"probe_pitches":[8,13,15,13,11,3,13,6],"shifted_pitches":[8,13,15,14,11,3,13,6],"swapped_pitches":[8,13,15,11,13,3,13,6],"shift_direction":1,"question_num":91,"has_decoy":false,"subject":"S1C0838","sona":"41724","block":1,"time":"2021-09-18T18:16:28.741Z"},{"rt":1916.800000011921,"stimulus":"[A] option 1, [L] option 2, [G] neither","key_press":76,"name":"choice","trial_type":"html-keyboard-response","trial_index":125,"time_elapsed":330746,"internal_node_id":"0.0-125.0","response":"2nd","certainty":"high","char":"L","transposition":-1,"order":["shifted","swapped"],"probe_pitches":[-3,-2,-3,4,8,1,-2,5],"shifted_pitches":[-3,-2,-3,4,7,1,-2,5],"swapped_pitches":[-3,-2,-3,8,4,1,-2,5],"shift_direction":-1,"question_num":101,"has_decoy":false,"subject":"S1C0838","sona":"41724","block":1,"time":"2021-09-18T18:16:28.741Z"},{"rt":746.8000000119209,"stimulus":"[A] option 1, [L] option 2, [G] neither","key_press":76,"name":"choice","trial_type":"html-keyboard-response","trial_index":136,"time_elapsed":347676,"internal_node_id":"0.0-136.0","response":"2nd","certainty":"high","char":"L","transposition":3,"order":["shifted","swapped"],"probe_pitches":[5,7,10,12,7,3,5,12],"shifted_pitches":[5,7,10,12,8,3,5,12],"swapped_pitches":[5,7,10,7,12,3,5,12],"shift_direction":1,"question_num":111,"has_decoy":false,"subject":"S1C0838","sona":"41724","block":1,"time":"2021-09-18T18:16:28.741Z"},{"rt":3833.7999999523163,"stimulus":"[A] option 1, [L] option 2, [G] neither","key_press":76,"name":"choice","trial_type":"html-keyboard-response","trial_index":147,"time_elapsed":368683,"internal_node_id":"0.0-147.0","response":"2nd","certainty":"high","char":"L","transposition":0,"order":["shifted","swapped"],"probe_pitches":[8,7,4,-1,5,3,0,-1],"shifted_pitches":[8,7,4,-1,6,3,0,-1],"swapped_pitches":[8,7,4,5,-1,3,0,-1],"shift_direction":1,"question_num":121,"has_decoy":false,"subject":"S1C0838","sona":"41724","block":1,"time":"2021-09-18T18:16:28.741Z"},{"rt":856,"stimulus":"[A] option 1, [L] option 2, [G] neither","key_press":65,"name":"choice","trial_type":"html-keyboard-response","trial_index":158,"time_elapsed":384486,"internal_node_id":"0.0-158.0","response":"1st","certainty":"high","char":"A","transposition":-2,"order":["swapped","shifted"],"probe_pitches":[9,8,1,-2,4,9,5,7],"shifted_pitches":[9,8,1,-1,4,9,5,7],"swapped_pitches":[9,8,1,4,-2,9,5,7],"shift_direction":1,"question_num":131,"has_decoy":false,"subject":"S1C0838","sona":"41724","block":1,"time":"2021-09-18T18:16:28.741Z"},{"rt":1518.9000000357628,"stimulus":"[A] option 1, [L] option 2, [G] neither","key_press":71,"name":"choice","trial_type":"html-keyboard-response","trial_index":169,"time_elapsed":401249,"internal_node_id":"0.0-169.0","response":"neither","certainty":"high","char":"G","transposition":1,"order":["swapped","shifted"],"probe_pitches":[3,-1,-3,-1,0,8,6,-3],"shifted_pitches":[3,-1,-3,-1,1,8,6,-3],"swapped_pitches":[3,-1,-3,0,-1,8,6,-3],"shift_direction":1,"question_num":141,"has_decoy":false,"subject":"S1C0838","sona":"41724","block":1,"time":"2021-09-18T18:16:28.741Z"},{"rt":1345.699999988079,"stimulus":"[A] option 1, [L] option 2, [G] neither","key_press":76,"name":"choice","trial_type":"html-keyboard-response","trial_index":180,"time_elapsed":418305,"internal_node_id":"0.0-180.0","response":"2nd","certainty":"high","char":"L","transposition":-2,"order":["shifted","swapped"],"probe_pitches":[-2,2,6,3,9,0,-2,-3],"shifted_pitches":[-2,2,6,3,8,0,-2,-3],"swapped_pitches":[-2,2,6,9,3,0,-2,-3],"shift_direction":-1,"question_num":151,"has_decoy":false,"subject":"S1C0838","sona":"41724","block":1,"time":"2021-09-18T18:16:28.741Z"},{"rt":590.8999999761581,"stimulus":"[A] option 1, [L] option 2, [G] neither","key_press":65,"name":"choice","trial_type":"html-keyboard-response","trial_index":191,"time_elapsed":433810,"internal_node_id":"0.0-191.0","response":"1st","certainty":"high","char":"A","transposition":-2,"order":["swapped","shifted"],"probe_pitches":[10,5,3,5,10,8,13,15],"shifted_pitches":[10,5,3,5,11,8,13,15],"swapped_pitches":[10,5,3,10,5,8,13,15],"shift_direction":1,"question_num":161,"has_decoy":false,"subject":"S1C0838","sona":"41724","block":1,"time":"2021-09-18T18:16:28.741Z"},{"rt":641.8000000119209,"stimulus":"[A] option 1, [L] option 2, [G] neither","key_press":65,"name":"choice","trial_type":"html-keyboard-response","trial_index":202,"time_elapsed":449231,"internal_node_id":"0.0-202.0","response":"1st","certainty":"high","char":"A","transposition":2,"order":["swapped","shifted"],"probe_pitches":[15,13,10,15,8,5,8,15],"shifted_pitches":[15,13,10,15,7,5,8,15],"swapped_pitches":[15,13,10,8,15,5,8,15],"shift_direction":-1,"question_num":171,"has_decoy":false,"subject":"S1C0838","sona":"41724","block":1,"time":"2021-09-18T18:16:28.741Z"},{"rt":1025,"stimulus":"[A] option 1, [L] option 2, [G] neither","key_press":71,"name":"choice","trial_type":"html-keyboard-response","trial_index":213,"time_elapsed":465174,"internal_node_id":"0.0-213.0","response":"neither","certainty":"high","char":"G","transposition":-3,"order":["shifted","swapped"],"probe_pitches":[3,6,3,8,10,13,15,6],"shifted_pitches":[3,6,3,9,10,13,15,6],"swapped_pitches":[3,6,3,10,8,13,15,6],"shift_direction":1,"question_num":181,"has_decoy":false,"subject":"S1C0838","sona":"41724","block":1,"time":"2021-09-18T18:16:28.741Z"},{"rt":969.3000000119209,"stimulus":"[A] option 1, [L] option 2, [G] neither","key_press":65,"name":"choice","trial_type":"html-keyboard-response","trial_index":224,"time_elapsed":481378,"internal_node_id":"0.0-224.0","response":"1st","certainty":"high","char":"A","transposition":-3,"order":["swapped","shifted"],"probe_pitches":[15,13,8,6,11,15,6,11],"shifted_pitches":[15,13,8,6,10,15,6,11],"swapped_pitches":[15,13,8,11,6,15,6,11],"shift_direction":-1,"question_num":191,"has_decoy":false,"subject":"S1C0838","sona":"41724","block":1,"time":"2021-09-18T18:16:28.741Z"}]