[{"rt":259.60000002384186,"stimulus":"[A] option 1, [L] option 2, [G] neither","key_press":76,"name":"choice","trial_type":"html-keyboard-response","trial_index":10,"time_elapsed":20622,"internal_node_id":"0.0-10.0","subject":"S1C1226","sona":"41728","block":6,"time":"2021-09-17T20:12:51.859Z","response":"2nd","certainty":"high","char":"L","transposition":-3,"order":["shifted","swapped"],"probe_pitches":[5,8,5,8,3,8,1,3,10,-2,10,8],"shifted_pitches":[5,8,5,8,3,7,1,3,10,-2,10,8],"swapped_pitches":[5,8,5,8,3,1,8,3,10,-2,10,8],"shift_direction":-1,"question_num":1,"has_decoy":false},{"rt":401.7000000476837,"stimulus":"[A] option 1, [L] option 2, [G] neither","key_press":76,"name":"choice","trial_type":"html-keyboard-response","trial_index":21,"time_elapsed":39297,"internal_node_id":"0.0-21.0","subject":"S1C1226","sona":"41728","block":6,"time":"2021-09-17T20:12:51.859Z","response":"2nd","certainty":"high","char":"L","transposition":0,"order":["swapped","shifted"],"probe_pitches":[1,-2,1,8,1,6,-2,3,10,8,10,6],"shifted_pitches":[1,-2,1,8,1,7,-2,3,10,8,10,6],"swapped_pitches":[1,-2,1,8,1,-2,6,3,10,8,10,6],"shift_direction":1,"question_num":11,"has_decoy":false},{"rt":1529.8999999761581,"stimulus":"[A] option 1, [L] option 2, [G] neither","key_press":76,"name":"choice","trial_type":"html-keyboard-response","trial_index":32,"time_elapsed":59273,"internal_node_id":"0.0-32.0","subject":"S1C1226","sona":"41728","block":6,"time":"2021-09-17T20:12:51.859Z","response":"2nd","certainty":"high","char":"L","transposition":-3,"order":["shifted","swapped"],"probe_pitches":[9,5,9,7,6,9,-1,2,5,1,6,4],"shifted_pitches":[9,5,9,7,6,8,-1,2,5,1,6,4],"swapped_pitches":[9,5,9,7,6,-1,9,2,5,1,6,4],"shift_direction":-1,"question_num":21,"has_decoy":false},{"rt":3063.0999999046326,"stimulus":"[A] option 1, [L] option 2, [G] neither","key_press":65,"name":"choice","trial_type":"html-keyboard-response","trial_index":43,"time_elapsed":91296,"internal_node_id":"0.0-43.0","subject":"S1C1226","sona":"41728","block":6,"time":"2021-09-17T20:12:51.859Z","response":"1st","certainty":"high","char":"A","transposition":1,"order":["swapped","shifted"],"probe_pitches":[-2,0,-2,0,5,7,0,3,5,0,7,3],"shifted_pitches":[-2,0,-2,0,5,7,-1,3,5,0,7,3],"swapped_pitches":[-2,0,-2,0,5,0,7,3,5,0,7,3],"shift_direction":-1,"question_num":31,"has_decoy":false},{"rt":3214.7999999523163,"stimulus":"[A] option 1, [L] option 2, [G] neither","key_press":65,"name":"choice","trial_type":"html-keyboard-response","trial_index":54,"time_elapsed":122071,"internal_node_id":"0.0-54.0","subject":"S1C1226","sona":"41728","block":6,"time":"2021-09-17T20:12:51.859Z","response":"1st","certainty":"high","char":"A","transposition":2,"order":["shifted","swapped"],"probe_pitches":[10,5,8,0,3,0,-2,5,8,-2,3,0],"shifted_pitches":[10,5,8,0,3,0,-1,5,8,-2,3,0],"swapped_pitches":[10,5,8,0,3,-2,0,5,8,-2,3,0],"shift_direction":1,"question_num":41,"has_decoy":false},{"rt":7625.399999976158,"stimulus":"[A] option 1, [L] option 2, [G] neither","key_press":65,"name":"choice","trial_type":"html-keyboard-response","trial_index":65,"time_elapsed":148081,"internal_node_id":"0.0-65.0","subject":"S1C1226","sona":"41728","block":6,"time":"2021-09-17T20:12:51.859Z","response":"1st","certainty":"high","char":"A","transposition":-2,"order":["swapped","shifted"],"probe_pitches":[10,6,1,-2,3,-2,1,3,10,6,8,1],"shifted_pitches":[10,6,1,-2,3,-1,1,3,10,6,8,1],"swapped_pitches":[10,6,1,-2,3,1,-2,3,10,6,8,1],"shift_direction":1,"question_num":51,"has_decoy":false},{"rt":16644.100000023842,"stimulus":"[A] option 1, [L] option 2, [G] neither","key_press":65,"name":"choice","trial_type":"html-keyboard-response","trial_index":76,"time_elapsed":188656,"internal_node_id":"0.0-76.0","subject":"S1C1226","sona":"41728","block":6,"time":"2021-09-17T20:12:51.859Z","response":"1st","certainty":"high","char":"A","transposition":-1,"order":["swapped","shifted"],"probe_pitches":[10,7,2,7,11,9,4,1,6,11,4,10],"shifted_pitches":[10,7,2,7,11,9,5,1,6,11,4,10],"swapped_pitches":[10,7,2,7,11,4,9,1,6,11,4,10],"shift_direction":1,"question_num":61,"has_decoy":false},{"rt":1072.5,"stimulus":"[A] option 1, [L] option 2, [G] neither","key_press":65,"name":"choice","trial_type":"html-keyboard-response","trial_index":87,"time_elapsed":208673,"internal_node_id":"0.0-87.0","subject":"S1C1226","sona":"41728","block":6,"time":"2021-09-17T20:12:51.859Z","response":"1st","certainty":"high","char":"A","transposition":-2,"order":["shifted","swapped"],"probe_pitches":[1,5,11,9,11,1,6,10,6,-1,2,3],"shifted_pitches":[1,5,11,9,11,1,7,10,6,-1,2,3],"swapped_pitches":[1,5,11,9,11,6,1,10,6,-1,2,3],"shift_direction":1,"question_num":71,"has_decoy":false},{"rt":1446.7999999523163,"stimulus":"[A] option 1, [L] option 2, [G] neither","key_press":76,"name":"choice","trial_type":"html-keyboard-response","trial_index":98,"time_elapsed":230204,"internal_node_id":"0.0-98.0","subject":"S1C1226","sona":"41728","block":6,"time":"2021-09-17T20:12:51.859Z","response":"2nd","certainty":"high","char":"L","transposition":-3,"order":["shifted","swapped"],"probe_pitches":[-2,3,-2,3,5,3,0,-2,10,8,3,8],"shifted_pitches":[-2,3,-2,3,5,2,0,-2,10,8,3,8],"swapped_pitches":[-2,3,-2,3,5,0,3,-2,10,8,3,8],"shift_direction":-1,"question_num":81,"has_decoy":false},{"rt":475.09999990463257,"stimulus":"[A] option 1, [L] option 2, [G] neither","key_press":65,"name":"choice","trial_type":"html-keyboard-response","trial_index":109,"time_elapsed":249274,"internal_node_id":"0.0-109.0","subject":"S1C1226","sona":"41728","block":6,"time":"2021-09-17T20:12:51.859Z","response":"1st","certainty":"high","char":"A","transposition":-2,"order":["shifted","swapped"],"probe_pitches":[10,5,2,7,3,5,11,7,-1,0,3,11],"shifted_pitches":[10,5,2,7,3,4,11,7,-1,0,3,11],"swapped_pitches":[10,5,2,7,3,11,5,7,-1,0,3,11],"shift_direction":-1,"question_num":91,"has_decoy":false},{"rt":3408.7000000476837,"stimulus":"[A] option 1, [L] option 2, [G] neither","key_press":76,"name":"choice","trial_type":"html-keyboard-response","trial_index":120,"time_elapsed":270997,"internal_node_id":"0.0-120.0","subject":"S1C1226","sona":"41728","block":6,"time":"2021-09-17T20:12:51.859Z","response":"2nd","certainty":"high","char":"L","transposition":-1,"order":["swapped","shifted"],"probe_pitches":[10,7,0,7,10,0,7,10,5,2,-2,5],"shifted_pitches":[10,7,0,7,10,0,8,10,5,2,-2,5],"swapped_pitches":[10,7,0,7,10,7,0,10,5,2,-2,5],"shift_direction":1,"question_num":101,"has_decoy":false},{"rt":3277.600000023842,"stimulus":"[A] option 1, [L] option 2, [G] neither","key_press":65,"name":"choice","trial_type":"html-keyboard-response","trial_index":131,"time_elapsed":294207,"internal_node_id":"0.0-131.0","subject":"S1C1226","sona":"41728","block":6,"time":"2021-09-17T20:12:51.859Z","response":"1st","certainty":"high","char":"A","transposition":2,"order":["swapped","shifted"],"probe_pitches":[0,-1,3,9,7,4,0,2,4,7,0,3],"shifted_pitches":[0,-1,3,9,7,4,1,2,4,7,0,3],"swapped_pitches":[0,-1,3,9,7,0,4,2,4,7,0,3],"shift_direction":1,"question_num":111,"has_decoy":false},{"rt":1174,"stimulus":"[A] option 1, [L] option 2, [G] neither","key_press":65,"name":"choice","trial_type":"html-keyboard-response","trial_index":142,"time_elapsed":349065,"internal_node_id":"0.0-142.0","subject":"S1C1226","sona":"41728","block":6,"time":"2021-09-17T20:12:51.859Z","response":"1st","certainty":"high","char":"A","transposition":-2,"order":["swapped","shifted"],"probe_pitches":[0,5,3,7,-2,7,10,3,10,0,-2,7],"shifted_pitches":[0,5,3,7,-2,6,10,3,10,0,-2,7],"swapped_pitches":[0,5,3,7,-2,10,7,3,10,0,-2,7],"shift_direction":-1,"question_num":121,"has_decoy":false},{"rt":914.5,"stimulus":"[A] option 1, [L] option 2, [G] neither","key_press":76,"name":"choice","trial_type":"html-keyboard-response","trial_index":153,"time_elapsed":371296,"internal_node_id":"0.0-153.0","subject":"S1C1226","sona":"41728","block":6,"time":"2021-09-17T20:12:51.859Z","response":"2nd","certainty":"high","char":"L","transposition":-1,"order":["swapped","shifted"],"probe_pitches":[0,2,0,4,0,5,9,10,0,9,-1,5],"shifted_pitches":[0,2,0,4,0,6,9,10,0,9,-1,5],"swapped_pitches":[0,2,0,4,0,9,5,10,0,9,-1,5],"shift_direction":1,"question_num":131,"has_decoy":false},{"rt":1092.8999999761581,"stimulus":"[A] option 1, [L] option 2, [G] neither","key_press":65,"name":"choice","trial_type":"html-keyboard-response","trial_index":164,"time_elapsed":390781,"internal_node_id":"0.0-164.0","subject":"S1C1226","sona":"41728","block":6,"time":"2021-09-17T20:12:51.859Z","response":"1st","certainty":"high","char":"A","transposition":1,"order":["shifted","swapped"],"probe_pitches":[11,5,8,6,9,11,3,-1,7,4,0,-1],"shifted_pitches":[11,5,8,6,9,10,3,-1,7,4,0,-1],"swapped_pitches":[11,5,8,6,9,3,11,-1,7,4,0,-1],"shift_direction":-1,"question_num":141,"has_decoy":false},{"rt":838.5,"stimulus":"[A] option 1, [L] option 2, [G] neither","key_press":76,"name":"choice","trial_type":"html-keyboard-response","trial_index":175,"time_elapsed":410019,"internal_node_id":"0.0-175.0","subject":"S1C1226","sona":"41728","block":6,"time":"2021-09-17T20:12:51.859Z","response":"2nd","certainty":"high","char":"L","transposition":3,"order":["shifted","swapped"],"probe_pitches":[4,0,4,5,4,3,11,-1,9,0,8,11],"shifted_pitches":[4,0,4,5,4,2,11,-1,9,0,8,11],"swapped_pitches":[4,0,4,5,4,11,3,-1,9,0,8,11],"shift_direction":-1,"question_num":151,"has_decoy":false},{"rt":253.10000002384186,"stimulus":"[A] option 1, [L] option 2, [G] neither","key_press":76,"name":"choice","trial_type":"html-keyboard-response","trial_index":186,"time_elapsed":428622,"internal_node_id":"0.0-186.0","subject":"S1C1226","sona":"41728","block":6,"time":"2021-09-17T20:12:51.859Z","response":"2nd","certainty":"high","char":"L","transposition":-3,"order":["swapped","shifted"],"probe_pitches":[5,8,1,9,7,6,4,5,1,7,6,8],"shifted_pitches":[5,8,1,9,7,6,3,5,1,7,6,8],"swapped_pitches":[5,8,1,9,7,4,6,5,1,7,6,8],"shift_direction":-1,"question_num":161,"has_decoy":false},{"rt":1027.6999999284744,"stimulus":"[A] option 1, [L] option 2, [G] neither","key_press":65,"name":"choice","trial_type":"html-keyboard-response","trial_index":197,"time_elapsed":448410,"internal_node_id":"0.0-197.0","subject":"S1C1226","sona":"41728","block":6,"time":"2021-09-17T20:12:51.859Z","response":"1st","certainty":"high","char":"A","transposition":-1,"order":["shifted","swapped"],"probe_pitches":[10,7,10,5,2,5,-2,10,0,-2,2,10],"shifted_pitches":[10,7,10,5,2,5,-3,10,0,-2,2,10],"swapped_pitches":[10,7,10,5,2,-2,5,10,0,-2,2,10],"shift_direction":-1,"question_num":171,"has_decoy":false},{"rt":1483,"stimulus":"[A] option 1, [L] option 2, [G] neither","key_press":76,"name":"choice","trial_type":"html-keyboard-response","trial_index":208,"time_elapsed":468849,"internal_node_id":"0.0-208.0","subject":"S1C1226","sona":"41728","block":6,"time":"2021-09-17T20:12:51.859Z","response":"2nd","certainty":"high","char":"L","transposition":0,"order":["swapped","shifted"],"probe_pitches":[-1,1,4,-1,3,0,8,3,7,3,4,10],"shifted_pitches":[-1,1,4,-1,3,0,9,3,7,3,4,10],"swapped_pitches":[-1,1,4,-1,3,8,0,3,7,3,4,10],"shift_direction":1,"question_num":181,"has_decoy":false},{"rt":391.60000002384186,"stimulus":"[A] option 1, [L] option 2, [G] neither","key_press":65,"name":"choice","trial_type":"html-keyboard-response","trial_index":219,"time_elapsed":489218,"internal_node_id":"0.0-219.0","subject":"S1C1226","sona":"41728","block":6,"time":"2021-09-17T20:12:51.859Z","response":"1st","certainty":"high","char":"A","transposition":3,"order":["shifted","swapped"],"probe_pitches":[-2,1,3,10,3,-2,5,3,5,3,5,8],"shifted_pitches":[-2,1,3,10,3,-2,6,3,5,3,5,8],"swapped_pitches":[-2,1,3,10,3,5,-2,3,5,3,5,8],"shift_direction":1,"question_num":191,"has_decoy":false}]