[{"rt":399.60000002384186,"stimulus":"[A] option 1, [L] option 2, [G] neither","key_press":65,"name":"choice","trial_type":"html-keyboard-response","trial_index":10,"time_elapsed":30936,"internal_node_id":"0.0-10.0","subject":"S1C1226","sona":"41728","block":5,"time":"2021-09-17T20:04:39.626Z","response":"1st","certainty":"high","char":"A","transposition":3,"order":["shifted","swapped"],"probe_pitches":[5,6,0,4,8,5,1,11,6,1,9,8],"shifted_pitches":[5,6,0,4,8,5,2,11,6,1,9,8],"swapped_pitches":[5,6,0,4,8,1,5,11,6,1,9,8],"shift_direction":1,"question_num":1,"has_decoy":false},{"rt":4240.799999952316,"stimulus":"[A] option 1, [L] option 2, [G] neither","key_press":76,"name":"choice","trial_type":"html-keyboard-response","trial_index":21,"time_elapsed":53587,"internal_node_id":"0.0-21.0","subject":"S1C1226","sona":"41728","block":5,"time":"2021-09-17T20:04:39.626Z","response":"2nd","certainty":"high","char":"L","transposition":-2,"order":["swapped","shifted"],"probe_pitches":[1,-2,1,-2,6,-2,8,3,-2,8,-2,8],"shifted_pitches":[1,-2,1,-2,6,-2,7,3,-2,8,-2,8],"swapped_pitches":[1,-2,1,-2,6,8,-2,3,-2,8,-2,8],"shift_direction":-1,"question_num":11,"has_decoy":false},{"rt":466.5,"stimulus":"[A] option 1, [L] option 2, [G] neither","key_press":76,"name":"choice","trial_type":"html-keyboard-response","trial_index":32,"time_elapsed":73022,"internal_node_id":"0.0-32.0","subject":"S1C1226","sona":"41728","block":5,"time":"2021-09-17T20:04:39.626Z","response":"2nd","certainty":"high","char":"L","transposition":-2,"order":["swapped","shifted"],"probe_pitches":[0,5,3,10,3,0,5,10,8,3,-2,10],"shifted_pitches":[0,5,3,10,3,0,6,10,8,3,-2,10],"swapped_pitches":[0,5,3,10,3,5,0,10,8,3,-2,10],"shift_direction":1,"question_num":21,"has_decoy":false},{"rt":347.39999997615814,"stimulus":"[A] option 1, [L] option 2, [G] neither","key_press":65,"name":"choice","trial_type":"html-keyboard-response","trial_index":43,"time_elapsed":92658,"internal_node_id":"0.0-43.0","subject":"S1C1226","sona":"41728","block":5,"time":"2021-09-17T20:04:39.626Z","response":"1st","certainty":"high","char":"A","transposition":1,"order":["shifted","swapped"],"probe_pitches":[-2,1,-2,3,8,-2,5,3,5,1,3,10],"shifted_pitches":[-2,1,-2,3,8,-1,5,3,5,1,3,10],"swapped_pitches":[-2,1,-2,3,8,5,-2,3,5,1,3,10],"shift_direction":1,"question_num":31,"has_decoy":false},{"rt":382.2000000476837,"stimulus":"[A] option 1, [L] option 2, [G] neither","key_press":76,"name":"choice","trial_type":"html-keyboard-response","trial_index":54,"time_elapsed":111348,"internal_node_id":"0.0-54.0","subject":"S1C1226","sona":"41728","block":5,"time":"2021-09-17T20:04:39.626Z","response":"2nd","certainty":"high","char":"L","transposition":0,"order":["swapped","shifted"],"probe_pitches":[5,10,7,5,3,0,5,7,5,10,7,10],"shifted_pitches":[5,10,7,5,3,1,5,7,5,10,7,10],"swapped_pitches":[5,10,7,5,3,5,0,7,5,10,7,10],"shift_direction":1,"question_num":41,"has_decoy":false},{"rt":1036.2999999523163,"stimulus":"[A] option 1, [L] option 2, [G] neither","key_press":76,"name":"choice","trial_type":"html-keyboard-response","trial_index":65,"time_elapsed":130722,"internal_node_id":"0.0-65.0","subject":"S1C1226","sona":"41728","block":5,"time":"2021-09-17T20:04:39.626Z","response":"2nd","certainty":"high","char":"L","transposition":0,"order":["swapped","shifted"],"probe_pitches":[1,3,6,2,6,9,-1,2,1,5,0,7],"shifted_pitches":[1,3,6,2,6,8,-1,2,1,5,0,7],"swapped_pitches":[1,3,6,2,6,-1,9,2,1,5,0,7],"shift_direction":-1,"question_num":51,"has_decoy":false},{"rt":731.4000000953674,"stimulus":"[A] option 1, [L] option 2, [G] neither","key_press":76,"name":"choice","trial_type":"html-keyboard-response","trial_index":76,"time_elapsed":150065,"internal_node_id":"0.0-76.0","subject":"S1C1226","sona":"41728","block":5,"time":"2021-09-17T20:04:39.626Z","response":"2nd","certainty":"high","char":"L","transposition":-3,"order":["swapped","shifted"],"probe_pitches":[-2,3,-2,5,3,8,-2,0,3,-2,0,3],"shifted_pitches":[-2,3,-2,5,3,8,-1,0,3,-2,0,3],"swapped_pitches":[-2,3,-2,5,3,-2,8,0,3,-2,0,3],"shift_direction":1,"question_num":61,"has_decoy":false},{"rt":454.5,"stimulus":"[A] option 1, [L] option 2, [G] neither","key_press":76,"name":"choice","trial_type":"html-keyboard-response","trial_index":87,"time_elapsed":170483,"internal_node_id":"0.0-87.0","subject":"S1C1226","sona":"41728","block":5,"time":"2021-09-17T20:04:39.626Z","response":"2nd","certainty":"high","char":"L","transposition":-1,"order":["shifted","swapped"],"probe_pitches":[7,3,2,3,11,7,8,2,11,-1,8,2],"shifted_pitches":[7,3,2,3,11,6,8,2,11,-1,8,2],"swapped_pitches":[7,3,2,3,11,8,7,2,11,-1,8,2],"shift_direction":-1,"question_num":71,"has_decoy":false},{"rt":287.59999990463257,"stimulus":"[A] option 1, [L] option 2, [G] neither","key_press":76,"name":"choice","trial_type":"html-keyboard-response","trial_index":98,"time_elapsed":189833,"internal_node_id":"0.0-98.0","subject":"S1C1226","sona":"41728","block":5,"time":"2021-09-17T20:04:39.626Z","response":"2nd","certainty":"high","char":"L","transposition":-2,"order":["swapped","shifted"],"probe_pitches":[0,-1,6,-1,8,6,9,4,-1,1,8,7],"shifted_pitches":[0,-1,6,-1,8,6,10,4,-1,1,8,7],"swapped_pitches":[0,-1,6,-1,8,9,6,4,-1,1,8,7],"shift_direction":1,"question_num":81,"has_decoy":false},{"rt":4055.899999976158,"stimulus":"[A] option 1, [L] option 2, [G] neither","key_press":65,"name":"choice","trial_type":"html-keyboard-response","trial_index":109,"time_elapsed":212251,"internal_node_id":"0.0-109.0","subject":"S1C1226","sona":"41728","block":5,"time":"2021-09-17T20:04:39.626Z","response":"1st","certainty":"high","char":"A","transposition":2,"order":["shifted","swapped"],"probe_pitches":[7,6,8,7,10,2,4,0,11,9,11,0],"shifted_pitches":[7,6,8,7,10,2,5,0,11,9,11,0],"swapped_pitches":[7,6,8,7,10,4,2,0,11,9,11,0],"shift_direction":1,"question_num":91,"has_decoy":false},{"rt":546.4000000953674,"stimulus":"[A] option 1, [L] option 2, [G] neither","key_press":76,"name":"choice","trial_type":"html-keyboard-response","trial_index":120,"time_elapsed":231163,"internal_node_id":"0.0-120.0","subject":"S1C1226","sona":"41728","block":5,"time":"2021-09-17T20:04:39.626Z","response":"2nd","certainty":"high","char":"L","transposition":-3,"order":["shifted","swapped"],"probe_pitches":[8,10,3,8,3,-2,6,1,10,6,1,3],"shifted_pitches":[8,10,3,8,3,-2,7,1,10,6,1,3],"swapped_pitches":[8,10,3,8,3,6,-2,1,10,6,1,3],"shift_direction":1,"question_num":101,"has_decoy":false},{"rt":675.2000000476837,"stimulus":"[A] option 1, [L] option 2, [G] neither","key_press":76,"name":"choice","trial_type":"html-keyboard-response","trial_index":131,"time_elapsed":293360,"internal_node_id":"0.0-131.0","subject":"S1C1226","sona":"41728","block":5,"time":"2021-09-17T20:04:39.626Z","response":"2nd","certainty":"high","char":"L","transposition":-3,"order":["swapped","shifted"],"probe_pitches":[-1,0,3,2,10,2,6,4,5,11,5,9],"shifted_pitches":[-1,0,3,2,10,1,6,4,5,11,5,9],"swapped_pitches":[-1,0,3,2,10,6,2,4,5,11,5,9],"shift_direction":-1,"question_num":111,"has_decoy":false},{"rt":969.6999999284744,"stimulus":"[A] option 1, [L] option 2, [G] neither","key_press":65,"name":"choice","trial_type":"html-keyboard-response","trial_index":142,"time_elapsed":320918,"internal_node_id":"0.0-142.0","subject":"S1C1226","sona":"41728","block":5,"time":"2021-09-17T20:04:39.626Z","response":"1st","certainty":"high","char":"A","transposition":-1,"order":["shifted","swapped"],"probe_pitches":[7,5,-2,3,0,10,5,0,10,-2,10,7],"shifted_pitches":[7,5,-2,3,0,9,5,0,10,-2,10,7],"swapped_pitches":[7,5,-2,3,0,5,10,0,10,-2,10,7],"shift_direction":-1,"question_num":121,"has_decoy":false},{"rt":8753.899999976158,"stimulus":"[A] option 1, [L] option 2, [G] neither","key_press":76,"name":"choice","trial_type":"html-keyboard-response","trial_index":153,"time_elapsed":427634,"internal_node_id":"0.0-153.0","subject":"S1C1226","sona":"41728","block":5,"time":"2021-09-17T20:04:39.626Z","response":"2nd","certainty":"high","char":"L","transposition":1,"order":["swapped","shifted"],"probe_pitches":[-1,5,11,8,-1,4,9,-1,4,9,10,4],"shifted_pitches":[-1,5,11,8,-1,3,9,-1,4,9,10,4],"swapped_pitches":[-1,5,11,8,-1,9,4,-1,4,9,10,4],"shift_direction":-1,"question_num":131,"has_decoy":false},{"rt":2209.899999976158,"stimulus":"[A] option 1, [L] option 2, [G] neither","key_press":65,"name":"choice","trial_type":"html-keyboard-response","trial_index":164,"time_elapsed":470086,"internal_node_id":"0.0-164.0","subject":"S1C1226","sona":"41728","block":5,"time":"2021-09-17T20:04:39.626Z","response":"1st","certainty":"high","char":"A","transposition":3,"order":["shifted","swapped"],"probe_pitches":[7,10,7,5,2,7,0,10,0,7,2,7],"shifted_pitches":[7,10,7,5,2,6,0,10,0,7,2,7],"swapped_pitches":[7,10,7,5,2,0,7,10,0,7,2,7],"shift_direction":-1,"question_num":141,"has_decoy":false},{"rt":482.5,"stimulus":"[A] option 1, [L] option 2, [G] neither","key_press":76,"name":"choice","trial_type":"html-keyboard-response","trial_index":175,"time_elapsed":490790,"internal_node_id":"0.0-175.0","subject":"S1C1226","sona":"41728","block":5,"time":"2021-09-17T20:04:39.626Z","response":"2nd","certainty":"high","char":"L","transposition":2,"order":["shifted","swapped"],"probe_pitches":[8,5,1,-2,1,8,10,3,5,8,5,10],"shifted_pitches":[8,5,1,-2,1,8,9,3,5,8,5,10],"swapped_pitches":[8,5,1,-2,1,10,8,3,5,8,5,10],"shift_direction":-1,"question_num":151,"has_decoy":false},{"rt":477.90000009536743,"stimulus":"[A] option 1, [L] option 2, [G] neither","key_press":76,"name":"choice","trial_type":"html-keyboard-response","trial_index":186,"time_elapsed":609922,"internal_node_id":"0.0-186.0","subject":"S1C1226","sona":"41728","block":5,"time":"2021-09-17T20:04:39.626Z","response":"2nd","certainty":"high","char":"L","transposition":-1,"order":["shifted","swapped"],"probe_pitches":[6,3,0,7,11,8,0,11,5,11,8,6],"shifted_pitches":[6,3,0,7,11,9,0,11,5,11,8,6],"swapped_pitches":[6,3,0,7,11,0,8,11,5,11,8,6],"shift_direction":1,"question_num":161,"has_decoy":false},{"rt":542.8999999761581,"stimulus":"[A] option 1, [L] option 2, [G] neither","key_press":76,"name":"choice","trial_type":"html-keyboard-response","trial_index":197,"time_elapsed":637660,"internal_node_id":"0.0-197.0","subject":"S1C1226","sona":"41728","block":5,"time":"2021-09-17T20:04:39.626Z","response":"2nd","certainty":"high","char":"L","transposition":-1,"order":["swapped","shifted"],"probe_pitches":[5,0,2,5,-2,2,7,-2,2,-2,10,2],"shifted_pitches":[5,0,2,5,-2,1,7,-2,2,-2,10,2],"swapped_pitches":[5,0,2,5,-2,7,2,-2,2,-2,10,2],"shift_direction":-1,"question_num":171,"has_decoy":false},{"rt":1301.6000000238419,"stimulus":"[A] option 1, [L] option 2, [G] neither","key_press":65,"name":"choice","trial_type":"html-keyboard-response","trial_index":208,"time_elapsed":759210,"internal_node_id":"0.0-208.0","subject":"S1C1226","sona":"41728","block":5,"time":"2021-09-17T20:04:39.626Z","response":"1st","certainty":"high","char":"A","transposition":-3,"order":["swapped","shifted"],"probe_pitches":[0,3,10,8,0,1,5,9,8,-1,6,11],"shifted_pitches":[0,3,10,8,0,1,4,9,8,-1,6,11],"swapped_pitches":[0,3,10,8,0,5,1,9,8,-1,6,11],"shift_direction":-1,"question_num":181,"has_decoy":false},{"rt":1078.7999999523163,"stimulus":"[A] option 1, [L] option 2, [G] neither","key_press":65,"name":"choice","trial_type":"html-keyboard-response","trial_index":219,"time_elapsed":781316,"internal_node_id":"0.0-219.0","subject":"S1C1226","sona":"41728","block":5,"time":"2021-09-17T20:04:39.626Z","response":"1st","certainty":"high","char":"A","transposition":-2,"order":["shifted","swapped"],"probe_pitches":[2,4,-1,4,10,2,6,-1,3,9,10,8],"shifted_pitches":[2,4,-1,4,10,2,7,-1,3,9,10,8],"swapped_pitches":[2,4,-1,4,10,6,2,-1,3,9,10,8],"shift_direction":1,"question_num":191,"has_decoy":false}]