[{"rt":434.8000000715256,"stimulus":"[A] option 1, [L] option 2, [G] neither","key_press":76,"name":"choice","trial_type":"html-keyboard-response","trial_index":10,"time_elapsed":19211,"internal_node_id":"0.0-10.0","subject":"S1C1226","sona":"41728","block":3,"time":"2021-09-17T19:38:32.670Z","response":"2nd","certainty":"high","char":"L","transposition":-3,"order":["shifted","swapped"],"probe_pitches":[-1,5,8,9,10,0,3,-1,7,6,8,0],"shifted_pitches":[-1,5,8,9,10,1,3,-1,7,6,8,0],"swapped_pitches":[-1,5,8,9,10,3,0,-1,7,6,8,0],"shift_direction":1,"question_num":1,"has_decoy":false},{"rt":2978.1999999284744,"stimulus":"[A] option 1, [L] option 2, [G] neither","key_press":65,"name":"choice","trial_type":"html-keyboard-response","trial_index":21,"time_elapsed":42489,"internal_node_id":"0.0-21.0","subject":"S1C1226","sona":"41728","block":3,"time":"2021-09-17T19:38:32.670Z","response":"1st","certainty":"high","char":"A","transposition":3,"order":["swapped","shifted"],"probe_pitches":[3,2,3,1,4,5,0,9,10,0,8,-1],"shifted_pitches":[3,2,3,1,4,6,0,9,10,0,8,-1],"swapped_pitches":[3,2,3,1,4,0,5,9,10,0,8,-1],"shift_direction":1,"question_num":11,"has_decoy":false},{"rt":1503.7000000476837,"stimulus":"[A] option 1, [L] option 2, [G] neither","key_press":76,"name":"choice","trial_type":"html-keyboard-response","trial_index":32,"time_elapsed":63158,"internal_node_id":"0.0-32.0","subject":"S1C1226","sona":"41728","block":3,"time":"2021-09-17T19:38:32.670Z","response":"2nd","certainty":"high","char":"L","transposition":0,"order":["shifted","swapped"],"probe_pitches":[10,5,1,8,1,3,-2,10,8,10,3,10],"shifted_pitches":[10,5,1,8,1,3,-3,10,8,10,3,10],"swapped_pitches":[10,5,1,8,1,-2,3,10,8,10,3,10],"shift_direction":-1,"question_num":21,"has_decoy":false},{"rt":256.3000000715256,"stimulus":"[A] option 1, [L] option 2, [G] neither","key_press":76,"name":"choice","trial_type":"html-keyboard-response","trial_index":43,"time_elapsed":83868,"internal_node_id":"0.0-43.0","subject":"S1C1226","sona":"41728","block":3,"time":"2021-09-17T19:38:32.670Z","response":"2nd","certainty":"high","char":"L","transposition":-2,"order":["shifted","swapped"],"probe_pitches":[7,2,5,2,0,7,5,2,0,2,-2,10],"shifted_pitches":[7,2,5,2,0,6,5,2,0,2,-2,10],"swapped_pitches":[7,2,5,2,0,5,7,2,0,2,-2,10],"shift_direction":-1,"question_num":31,"has_decoy":false},{"rt":393.2999999523163,"stimulus":"[A] option 1, [L] option 2, [G] neither","key_press":65,"name":"choice","trial_type":"html-keyboard-response","trial_index":54,"time_elapsed":674461,"internal_node_id":"0.0-54.0","subject":"S1C1226","sona":"41728","block":3,"time":"2021-09-17T19:38:32.670Z","response":"1st","certainty":"high","char":"A","transposition":-1,"order":["shifted","swapped"],"probe_pitches":[2,-2,2,7,-2,0,7,5,10,7,0,10],"shifted_pitches":[2,-2,2,7,-2,0,8,5,10,7,0,10],"swapped_pitches":[2,-2,2,7,-2,7,0,5,10,7,0,10],"shift_direction":1,"question_num":41,"has_decoy":false},{"rt":728.3999999761581,"stimulus":"[A] option 1, [L] option 2, [G] neither","key_press":65,"name":"choice","trial_type":"html-keyboard-response","trial_index":65,"time_elapsed":693793,"internal_node_id":"0.0-65.0","subject":"S1C1226","sona":"41728","block":3,"time":"2021-09-17T19:38:32.670Z","response":"1st","certainty":"high","char":"A","transposition":-2,"order":["shifted","swapped"],"probe_pitches":[5,9,2,10,1,3,5,10,3,1,-2,7],"shifted_pitches":[5,9,2,10,1,3,4,10,3,1,-2,7],"swapped_pitches":[5,9,2,10,1,5,3,10,3,1,-2,7],"shift_direction":-1,"question_num":51,"has_decoy":false},{"rt":1536.6000000238419,"stimulus":"[A] option 1, [L] option 2, [G] neither","key_press":76,"name":"choice","trial_type":"html-keyboard-response","trial_index":76,"time_elapsed":713662,"internal_node_id":"0.0-76.0","subject":"S1C1226","sona":"41728","block":3,"time":"2021-09-17T19:38:32.670Z","response":"2nd","certainty":"high","char":"L","transposition":-1,"order":["swapped","shifted"],"probe_pitches":[5,0,3,5,8,0,3,5,0,10,5,10],"shifted_pitches":[5,0,3,5,8,1,3,5,0,10,5,10],"swapped_pitches":[5,0,3,5,8,3,0,5,0,10,5,10],"shift_direction":1,"question_num":61,"has_decoy":false},{"rt":12339.700000047684,"stimulus":"[A] option 1, [L] option 2, [G] neither","key_press":65,"name":"choice","trial_type":"html-keyboard-response","trial_index":87,"time_elapsed":745136,"internal_node_id":"0.0-87.0","subject":"S1C1226","sona":"41728","block":3,"time":"2021-09-17T19:38:32.670Z","response":"1st","certainty":"high","char":"A","transposition":-3,"order":["swapped","shifted"],"probe_pitches":[0,-2,5,6,-2,0,2,-2,-1,4,-2,7],"shifted_pitches":[0,-2,5,6,-2,0,3,-2,-1,4,-2,7],"swapped_pitches":[0,-2,5,6,-2,2,0,-2,-1,4,-2,7],"shift_direction":1,"question_num":71,"has_decoy":false},{"rt":2251.3000000715256,"stimulus":"[A] option 1, [L] option 2, [G] neither","key_press":76,"name":"choice","trial_type":"html-keyboard-response","trial_index":98,"time_elapsed":766796,"internal_node_id":"0.0-98.0","subject":"S1C1226","sona":"41728","block":3,"time":"2021-09-17T19:38:32.670Z","response":"2nd","certainty":"high","char":"L","transposition":1,"order":["shifted","swapped"],"probe_pitches":[-2,3,9,10,3,-1,6,10,9,-2,10,2],"shifted_pitches":[-2,3,9,10,3,-1,5,10,9,-2,10,2],"swapped_pitches":[-2,3,9,10,3,6,-1,10,9,-2,10,2],"shift_direction":-1,"question_num":81,"has_decoy":false},{"rt":3864.899999976158,"stimulus":"[A] option 1, [L] option 2, [G] neither","key_press":65,"name":"choice","trial_type":"html-keyboard-response","trial_index":109,"time_elapsed":788767,"internal_node_id":"0.0-109.0","subject":"S1C1226","sona":"41728","block":3,"time":"2021-09-17T19:38:32.670Z","response":"1st","certainty":"high","char":"A","transposition":3,"order":["swapped","shifted"],"probe_pitches":[-2,1,8,3,-2,3,8,6,3,8,-2,10],"shifted_pitches":[-2,1,8,3,-2,4,8,6,3,8,-2,10],"swapped_pitches":[-2,1,8,3,-2,8,3,6,3,8,-2,10],"shift_direction":1,"question_num":91,"has_decoy":false},{"rt":4146.800000071526,"stimulus":"[A] option 1, [L] option 2, [G] neither","key_press":65,"name":"choice","trial_type":"html-keyboard-response","trial_index":120,"time_elapsed":811752,"internal_node_id":"0.0-120.0","subject":"S1C1226","sona":"41728","block":3,"time":"2021-09-17T19:38:32.670Z","response":"1st","certainty":"high","char":"A","transposition":0,"order":["swapped","shifted"],"probe_pitches":[0,1,5,-2,-1,0,1,9,-2,1,4,7],"shifted_pitches":[0,1,5,-2,-1,0,2,9,-2,1,4,7],"swapped_pitches":[0,1,5,-2,-1,1,0,9,-2,1,4,7],"shift_direction":1,"question_num":101,"has_decoy":false},{"rt":2537.8000000715256,"stimulus":"[A] option 1, [L] option 2, [G] neither","key_press":76,"name":"choice","trial_type":"html-keyboard-response","trial_index":131,"time_elapsed":832558,"internal_node_id":"0.0-131.0","subject":"S1C1226","sona":"41728","block":3,"time":"2021-09-17T19:38:32.670Z","response":"2nd","certainty":"high","char":"L","transposition":-3,"order":["shifted","swapped"],"probe_pitches":[7,5,10,3,-2,0,10,3,5,-2,3,0],"shifted_pitches":[7,5,10,3,-2,-1,10,3,5,-2,3,0],"swapped_pitches":[7,5,10,3,-2,10,0,3,5,-2,3,0],"shift_direction":-1,"question_num":111,"has_decoy":false},{"rt":2763.1999999284744,"stimulus":"[A] option 1, [L] option 2, [G] neither","key_press":76,"name":"choice","trial_type":"html-keyboard-response","trial_index":142,"time_elapsed":853466,"internal_node_id":"0.0-142.0","subject":"S1C1226","sona":"41728","block":3,"time":"2021-09-17T19:38:32.670Z","response":"2nd","certainty":"high","char":"L","transposition":1,"order":["shifted","swapped"],"probe_pitches":[10,7,5,10,3,0,10,3,7,-2,3,-2],"shifted_pitches":[10,7,5,10,3,-1,10,3,7,-2,3,-2],"swapped_pitches":[10,7,5,10,3,10,0,3,7,-2,3,-2],"shift_direction":-1,"question_num":121,"has_decoy":false},{"rt":2137.399999976158,"stimulus":"[A] option 1, [L] option 2, [G] neither","key_press":65,"name":"choice","trial_type":"html-keyboard-response","trial_index":153,"time_elapsed":873954,"internal_node_id":"0.0-153.0","subject":"S1C1226","sona":"41728","block":3,"time":"2021-09-17T19:38:32.670Z","response":"1st","certainty":"high","char":"A","transposition":-1,"order":["shifted","swapped"],"probe_pitches":[0,-1,1,5,-1,4,6,10,-2,4,-1,10],"shifted_pitches":[0,-1,1,5,-1,4,7,10,-2,4,-1,10],"swapped_pitches":[0,-1,1,5,-1,6,4,10,-2,4,-1,10],"shift_direction":1,"question_num":131,"has_decoy":false},{"rt":4896.899999976158,"stimulus":"[A] option 1, [L] option 2, [G] neither","key_press":76,"name":"choice","trial_type":"html-keyboard-response","trial_index":164,"time_elapsed":898356,"internal_node_id":"0.0-164.0","subject":"S1C1226","sona":"41728","block":3,"time":"2021-09-17T19:38:32.670Z","response":"2nd","certainty":"high","char":"L","transposition":-3,"order":["swapped","shifted"],"probe_pitches":[1,3,-2,3,5,8,-2,10,-2,3,8,10],"shifted_pitches":[1,3,-2,3,5,8,-1,10,-2,3,8,10],"swapped_pitches":[1,3,-2,3,5,-2,8,10,-2,3,8,10],"shift_direction":1,"question_num":141,"has_decoy":false},{"rt":970.1999999284744,"stimulus":"[A] option 1, [L] option 2, [G] neither","key_press":76,"name":"choice","trial_type":"html-keyboard-response","trial_index":175,"time_elapsed":917596,"internal_node_id":"0.0-175.0","subject":"S1C1226","sona":"41728","block":3,"time":"2021-09-17T19:38:32.670Z","response":"2nd","certainty":"high","char":"L","transposition":-2,"order":["swapped","shifted"],"probe_pitches":[7,2,9,2,5,9,-2,3,10,7,10,7],"shifted_pitches":[7,2,9,2,5,8,-2,3,10,7,10,7],"swapped_pitches":[7,2,9,2,5,-2,9,3,10,7,10,7],"shift_direction":-1,"question_num":151,"has_decoy":false},{"rt":1646.6000000238419,"stimulus":"[A] option 1, [L] option 2, [G] neither","key_press":76,"name":"choice","trial_type":"html-keyboard-response","trial_index":186,"time_elapsed":938406,"internal_node_id":"0.0-186.0","subject":"S1C1226","sona":"41728","block":3,"time":"2021-09-17T19:38:32.670Z","response":"2nd","certainty":"high","char":"L","transposition":2,"order":["swapped","shifted"],"probe_pitches":[1,6,8,10,3,1,10,8,3,8,3,8],"shifted_pitches":[1,6,8,10,3,1,11,8,3,8,3,8],"swapped_pitches":[1,6,8,10,3,10,1,8,3,8,3,8],"shift_direction":1,"question_num":161,"has_decoy":false},{"rt":2071.899999976158,"stimulus":"[A] option 1, [L] option 2, [G] neither","key_press":65,"name":"choice","trial_type":"html-keyboard-response","trial_index":197,"time_elapsed":958788,"internal_node_id":"0.0-197.0","subject":"S1C1226","sona":"41728","block":3,"time":"2021-09-17T19:38:32.670Z","response":"1st","certainty":"high","char":"A","transposition":2,"order":["swapped","shifted"],"probe_pitches":[9,5,8,4,7,1,3,9,4,1,9,1],"shifted_pitches":[9,5,8,4,7,0,3,9,4,1,9,1],"swapped_pitches":[9,5,8,4,7,3,1,9,4,1,9,1],"shift_direction":-1,"question_num":171,"has_decoy":false},{"rt":12864.299999952316,"stimulus":"[A] option 1, [L] option 2, [G] neither","key_press":71,"name":"choice","trial_type":"html-keyboard-response","trial_index":208,"time_elapsed":989936,"internal_node_id":"0.0-208.0","subject":"S1C1226","sona":"41728","block":3,"time":"2021-09-17T19:38:32.670Z","response":"neither","certainty":"high","char":"G","transposition":-2,"order":["swapped","shifted"],"probe_pitches":[3,5,-2,0,5,-2,8,5,8,10,3,10],"shifted_pitches":[3,5,-2,0,5,-2,7,5,8,10,3,10],"swapped_pitches":[3,5,-2,0,5,8,-2,5,8,10,3,10],"shift_direction":-1,"question_num":181,"has_decoy":false},{"rt":3352.100000023842,"stimulus":"[A] option 1, [L] option 2, [G] neither","key_press":65,"name":"choice","trial_type":"html-keyboard-response","trial_index":219,"time_elapsed":1012739,"internal_node_id":"0.0-219.0","subject":"S1C1226","sona":"41728","block":3,"time":"2021-09-17T19:38:32.670Z","response":"1st","certainty":"high","char":"A","transposition":-1,"order":["shifted","swapped"],"probe_pitches":[5,10,3,4,0,-2,4,7,-2,3,5,7],"shifted_pitches":[5,10,3,4,0,-3,4,7,-2,3,5,7],"swapped_pitches":[5,10,3,4,0,4,-2,7,-2,3,5,7],"shift_direction":-1,"question_num":191,"has_decoy":false}]