[{"rt":3168.8000000715256,"stimulus":"[A] option 1, [L] option 2, [G] neither","key_press":65,"name":"choice","trial_type":"html-keyboard-response","trial_index":10,"time_elapsed":32383,"internal_node_id":"0.0-10.0","subject":"S1C1226","sona":"41728","block":4,"time":"2021-09-17T19:47:57.262Z","response":"1st","certainty":"high","char":"A","transposition":3,"order":["shifted","swapped"],"probe_pitches":[4,5,10,14,13,3,10,12,8,6,7,5],"shifted_pitches":[4,5,10,14,13,3,9,12,8,6,7,5],"swapped_pitches":[4,5,10,14,13,10,3,12,8,6,7,5],"shift_direction":-1,"question_num":1,"has_decoy":false},{"rt":4309.400000095367,"stimulus":"[A] option 1, [L] option 2, [G] neither","key_press":76,"name":"choice","trial_type":"html-keyboard-response","trial_index":21,"time_elapsed":58802,"internal_node_id":"0.0-21.0","subject":"S1C1226","sona":"41728","block":4,"time":"2021-09-17T19:47:57.262Z","response":"2nd","certainty":"high","char":"L","transposition":-1,"order":["shifted","swapped"],"probe_pitches":[4,9,7,2,11,2,4,9,4,9,7,9],"shifted_pitches":[4,9,7,2,11,3,4,9,4,9,7,9],"swapped_pitches":[4,9,7,2,11,4,2,9,4,9,7,9],"shift_direction":1,"question_num":11,"has_decoy":false},{"rt":2173.1999999284744,"stimulus":"[A] option 1, [L] option 2, [G] neither","key_press":76,"name":"choice","trial_type":"html-keyboard-response","trial_index":32,"time_elapsed":83408,"internal_node_id":"0.0-32.0","subject":"S1C1226","sona":"41728","block":4,"time":"2021-09-17T19:47:57.262Z","response":"2nd","certainty":"high","char":"L","transposition":3,"order":["shifted","swapped"],"probe_pitches":[4,-1,4,6,-1,1,8,6,11,8,-1,1],"shifted_pitches":[4,-1,4,6,-1,1,9,6,11,8,-1,1],"swapped_pitches":[4,-1,4,6,-1,8,1,6,11,8,-1,1],"shift_direction":1,"question_num":21,"has_decoy":false},{"rt":4672.5,"stimulus":"[A] option 1, [L] option 2, [G] neither","key_press":65,"name":"choice","trial_type":"html-keyboard-response","trial_index":43,"time_elapsed":107485,"internal_node_id":"0.0-43.0","subject":"S1C1226","sona":"41728","block":4,"time":"2021-09-17T19:47:57.262Z","response":"1st","certainty":"high","char":"A","transposition":1,"order":["shifted","swapped"],"probe_pitches":[6,11,6,-1,6,-1,4,9,2,-1,11,6],"shifted_pitches":[6,11,6,-1,6,-1,5,9,2,-1,11,6],"swapped_pitches":[6,11,6,-1,6,4,-1,9,2,-1,11,6],"shift_direction":1,"question_num":31,"has_decoy":false},{"rt":418.3000000715256,"stimulus":"[A] option 1, [L] option 2, [G] neither","key_press":76,"name":"choice","trial_type":"html-keyboard-response","trial_index":54,"time_elapsed":127486,"internal_node_id":"0.0-54.0","subject":"S1C1226","sona":"41728","block":4,"time":"2021-09-17T19:47:57.262Z","response":"2nd","certainty":"high","char":"L","transposition":-3,"order":["swapped","shifted"],"probe_pitches":[-1,3,1,-1,1,6,-1,1,11,8,-1,8],"shifted_pitches":[-1,3,1,-1,1,7,-1,1,11,8,-1,8],"swapped_pitches":[-1,3,1,-1,1,-1,6,1,11,8,-1,8],"shift_direction":1,"question_num":41,"has_decoy":false},{"rt":1640.9000000953674,"stimulus":"[A] option 1, [L] option 2, [G] neither","key_press":76,"name":"choice","trial_type":"html-keyboard-response","trial_index":65,"time_elapsed":147486,"internal_node_id":"0.0-65.0","subject":"S1C1226","sona":"41728","block":4,"time":"2021-09-17T19:47:57.262Z","response":"2nd","certainty":"high","char":"L","transposition":-3,"order":["swapped","shifted"],"probe_pitches":[8,13,14,9,2,5,11,3,2,5,4,14],"shifted_pitches":[8,13,14,9,2,5,12,3,2,5,4,14],"swapped_pitches":[8,13,14,9,2,11,5,3,2,5,4,14],"shift_direction":1,"question_num":51,"has_decoy":false},{"rt":1197.6000000238419,"stimulus":"[A] option 1, [L] option 2, [G] neither","key_press":76,"name":"choice","trial_type":"html-keyboard-response","trial_index":76,"time_elapsed":168099,"internal_node_id":"0.0-76.0","subject":"S1C1226","sona":"41728","block":4,"time":"2021-09-17T19:47:57.262Z","response":"2nd","certainty":"high","char":"L","transposition":-1,"order":["swapped","shifted"],"probe_pitches":[-1,1,8,3,6,1,8,3,1,-1,1,8],"shifted_pitches":[-1,1,8,3,6,0,8,3,1,-1,1,8],"swapped_pitches":[-1,1,8,3,6,8,1,3,1,-1,1,8],"shift_direction":-1,"question_num":61,"has_decoy":false},{"rt":1032.7999999523163,"stimulus":"[A] option 1, [L] option 2, [G] neither","key_press":76,"name":"choice","trial_type":"html-keyboard-response","trial_index":87,"time_elapsed":188760,"internal_node_id":"0.0-87.0","subject":"S1C1226","sona":"41728","block":4,"time":"2021-09-17T19:47:57.262Z","response":"2nd","certainty":"high","char":"L","transposition":-2,"order":["shifted","swapped"],"probe_pitches":[6,11,8,4,8,-1,6,1,-1,8,6,1],"shifted_pitches":[6,11,8,4,8,-1,5,1,-1,8,6,1],"swapped_pitches":[6,11,8,4,8,6,-1,1,-1,8,6,1],"shift_direction":-1,"question_num":71,"has_decoy":false},{"rt":7944.299999952316,"stimulus":"[A] option 1, [L] option 2, [G] neither","key_press":76,"name":"choice","trial_type":"html-keyboard-response","trial_index":98,"time_elapsed":219671,"internal_node_id":"0.0-98.0","subject":"S1C1226","sona":"41728","block":4,"time":"2021-09-17T19:47:57.262Z","response":"2nd","certainty":"high","char":"L","transposition":0,"order":["shifted","swapped"],"probe_pitches":[2,7,4,3,10,11,14,10,6,4,7,2],"shifted_pitches":[2,7,4,3,10,11,13,10,6,4,7,2],"swapped_pitches":[2,7,4,3,10,14,11,10,6,4,7,2],"shift_direction":-1,"question_num":81,"has_decoy":false},{"rt":375.7999999523163,"stimulus":"[A] option 1, [L] option 2, [G] neither","key_press":76,"name":"choice","trial_type":"html-keyboard-response","trial_index":109,"time_elapsed":246550,"internal_node_id":"0.0-109.0","subject":"S1C1226","sona":"41728","block":4,"time":"2021-09-17T19:47:57.262Z","response":"2nd","certainty":"high","char":"L","transposition":2,"order":["swapped","shifted"],"probe_pitches":[11,6,4,9,11,6,1,-1,4,11,4,-1],"shifted_pitches":[11,6,4,9,11,6,0,-1,4,11,4,-1],"swapped_pitches":[11,6,4,9,11,1,6,-1,4,11,4,-1],"shift_direction":-1,"question_num":91,"has_decoy":false},{"rt":1053.1000000238419,"stimulus":"[A] option 1, [L] option 2, [G] neither","key_press":65,"name":"choice","trial_type":"html-keyboard-response","trial_index":120,"time_elapsed":266800,"internal_node_id":"0.0-120.0","subject":"S1C1226","sona":"41728","block":4,"time":"2021-09-17T19:47:57.262Z","response":"1st","certainty":"high","char":"A","transposition":-1,"order":["swapped","shifted"],"probe_pitches":[5,9,5,7,13,9,14,3,12,5,6,3],"shifted_pitches":[5,9,5,7,13,8,14,3,12,5,6,3],"swapped_pitches":[5,9,5,7,13,14,9,3,12,5,6,3],"shift_direction":-1,"question_num":101,"has_decoy":false},{"rt":2939.100000023842,"stimulus":"[A] option 1, [L] option 2, [G] neither","key_press":76,"name":"choice","trial_type":"html-keyboard-response","trial_index":131,"time_elapsed":288029,"internal_node_id":"0.0-131.0","subject":"S1C1226","sona":"41728","block":4,"time":"2021-09-17T19:47:57.262Z","response":"2nd","certainty":"high","char":"L","transposition":0,"order":["shifted","swapped"],"probe_pitches":[9,6,-1,4,-1,1,9,11,-1,11,1,11],"shifted_pitches":[9,6,-1,4,-1,0,9,11,-1,11,1,11],"swapped_pitches":[9,6,-1,4,-1,9,1,11,-1,11,1,11],"shift_direction":-1,"question_num":111,"has_decoy":false},{"rt":2544.1999999284744,"stimulus":"[A] option 1, [L] option 2, [G] neither","key_press":76,"name":"choice","trial_type":"html-keyboard-response","trial_index":142,"time_elapsed":308924,"internal_node_id":"0.0-142.0","subject":"S1C1226","sona":"41728","block":4,"time":"2021-09-17T19:47:57.262Z","response":"2nd","certainty":"high","char":"L","transposition":-2,"order":["shifted","swapped"],"probe_pitches":[4,3,4,6,8,10,14,9,14,10,14,6],"shifted_pitches":[4,3,4,6,8,11,14,9,14,10,14,6],"swapped_pitches":[4,3,4,6,8,14,10,9,14,10,14,6],"shift_direction":1,"question_num":121,"has_decoy":false},{"rt":884.6000000238419,"stimulus":"[A] option 1, [L] option 2, [G] neither","key_press":65,"name":"choice","trial_type":"html-keyboard-response","trial_index":153,"time_elapsed":330368,"internal_node_id":"0.0-153.0","subject":"S1C1226","sona":"41728","block":4,"time":"2021-09-17T19:47:57.262Z","response":"1st","certainty":"high","char":"A","transposition":2,"order":["swapped","shifted"],"probe_pitches":[13,8,3,2,3,8,5,9,10,5,4,12],"shifted_pitches":[13,8,3,2,3,7,5,9,10,5,4,12],"swapped_pitches":[13,8,3,2,3,5,8,9,10,5,4,12],"shift_direction":-1,"question_num":131,"has_decoy":false},{"rt":1381.0999999046326,"stimulus":"[A] option 1, [L] option 2, [G] neither","key_press":76,"name":"choice","trial_type":"html-keyboard-response","trial_index":164,"time_elapsed":352224,"internal_node_id":"0.0-164.0","subject":"S1C1226","sona":"41728","block":4,"time":"2021-09-17T19:47:57.262Z","response":"2nd","certainty":"high","char":"L","transposition":-2,"order":["shifted","swapped"],"probe_pitches":[11,5,11,12,14,5,12,3,11,13,10,3],"shifted_pitches":[11,5,11,12,14,4,12,3,11,13,10,3],"swapped_pitches":[11,5,11,12,14,12,5,3,11,13,10,3],"shift_direction":-1,"question_num":141,"has_decoy":false},{"rt":597.6000000238419,"stimulus":"[A] option 1, [L] option 2, [G] neither","key_press":65,"name":"choice","trial_type":"html-keyboard-response","trial_index":175,"time_elapsed":374122,"internal_node_id":"0.0-175.0","subject":"S1C1226","sona":"41728","block":4,"time":"2021-09-17T19:47:57.262Z","response":"1st","certainty":"high","char":"A","transposition":1,"order":["shifted","swapped"],"probe_pitches":[5,4,9,8,4,5,11,7,2,10,3,14],"shifted_pitches":[5,4,9,8,4,6,11,7,2,10,3,14],"swapped_pitches":[5,4,9,8,4,11,5,7,2,10,3,14],"shift_direction":1,"question_num":151,"has_decoy":false},{"rt":2376,"stimulus":"[A] option 1, [L] option 2, [G] neither","key_press":65,"name":"choice","trial_type":"html-keyboard-response","trial_index":186,"time_elapsed":400898,"internal_node_id":"0.0-186.0","subject":"S1C1226","sona":"41728","block":4,"time":"2021-09-17T19:47:57.262Z","response":"1st","certainty":"high","char":"A","transposition":-1,"order":["swapped","shifted"],"probe_pitches":[14,11,8,14,10,11,4,3,8,4,6,11],"shifted_pitches":[14,11,8,14,10,11,5,3,8,4,6,11],"swapped_pitches":[14,11,8,14,10,4,11,3,8,4,6,11],"shift_direction":1,"question_num":161,"has_decoy":false},{"rt":17057.5,"stimulus":"[A] option 1, [L] option 2, [G] neither","key_press":65,"name":"choice","trial_type":"html-keyboard-response","trial_index":197,"time_elapsed":436937,"internal_node_id":"0.0-197.0","subject":"S1C1226","sona":"41728","block":4,"time":"2021-09-17T19:47:57.262Z","response":"1st","certainty":"high","char":"A","transposition":-3,"order":["swapped","shifted"],"probe_pitches":[14,11,9,11,4,13,9,11,7,13,6,13],"shifted_pitches":[14,11,9,11,4,13,10,11,7,13,6,13],"swapped_pitches":[14,11,9,11,4,9,13,11,7,13,6,13],"shift_direction":1,"question_num":171,"has_decoy":false},{"rt":594,"stimulus":"[A] option 1, [L] option 2, [G] neither","key_press":76,"name":"choice","trial_type":"html-keyboard-response","trial_index":208,"time_elapsed":489715,"internal_node_id":"0.0-208.0","subject":"S1C1226","sona":"41728","block":4,"time":"2021-09-17T19:47:57.262Z","response":"2nd","certainty":"high","char":"L","transposition":-2,"order":["swapped","shifted"],"probe_pitches":[4,9,2,-1,2,9,7,-1,9,-1,4,7],"shifted_pitches":[4,9,2,-1,2,8,7,-1,9,-1,4,7],"swapped_pitches":[4,9,2,-1,2,7,9,-1,9,-1,4,7],"shift_direction":-1,"question_num":181,"has_decoy":false},{"rt":432,"stimulus":"[A] option 1, [L] option 2, [G] neither","key_press":76,"name":"choice","trial_type":"html-keyboard-response","trial_index":219,"time_elapsed":509628,"internal_node_id":"0.0-219.0","subject":"S1C1226","sona":"41728","block":4,"time":"2021-09-17T19:47:57.262Z","response":"2nd","certainty":"high","char":"L","transposition":-3,"order":["swapped","shifted"],"probe_pitches":[9,4,2,9,2,6,9,2,6,-1,2,-1],"shifted_pitches":[9,4,2,9,2,6,10,2,6,-1,2,-1],"swapped_pitches":[9,4,2,9,2,9,6,2,6,-1,2,-1],"shift_direction":1,"question_num":191,"has_decoy":false}]