[{"rt":9259.700000047684,"stimulus":"[A] option 1, [L] option 2, [G] neither","key_press":65,"name":"choice","trial_type":"html-keyboard-response","trial_index":15,"time_elapsed":81807,"internal_node_id":"0.0-15.0","response":"1st","certainty":"high","char":"A","transposition":-2,"order":["shifted","swapped"],"probe_pitches":[8,3,1,6,3,6,11,1,11,6,1,3],"shifted_pitches":[8,3,1,6,3,7,11,1,11,6,1,3],"swapped_pitches":[8,3,1,6,3,11,6,1,11,6,1,3],"shift_direction":1,"question_num":1,"has_decoy":false,"subject":"S1C1226","sona":"41728","block":1,"time":"2021-09-17T19:09:06.058Z"},{"rt":2353.2000000476837,"stimulus":"[A] option 1, [L] option 2, [G] neither","key_press":65,"name":"choice","trial_type":"html-keyboard-response","trial_index":26,"time_elapsed":104371,"internal_node_id":"0.0-26.0","response":"1st","certainty":"high","char":"A","transposition":3,"order":["swapped","shifted"],"probe_pitches":[3,7,0,4,2,0,10,-1,11,7,10,7],"shifted_pitches":[3,7,0,4,2,0,9,-1,11,7,10,7],"swapped_pitches":[3,7,0,4,2,10,0,-1,11,7,10,7],"shift_direction":-1,"question_num":11,"has_decoy":false,"subject":"S1C1226","sona":"41728","block":1,"time":"2021-09-17T19:09:06.058Z"},{"rt":1671.6000000238419,"stimulus":"[A] option 1, [L] option 2, [G] neither","key_press":76,"name":"choice","trial_type":"html-keyboard-response","trial_index":37,"time_elapsed":127837,"internal_node_id":"0.0-37.0","response":"2nd","certainty":"high","char":"L","transposition":2,"order":["shifted","swapped"],"probe_pitches":[0,6,3,8,0,8,3,5,11,5,1,2],"shifted_pitches":[0,6,3,8,0,8,4,5,11,5,1,2],"swapped_pitches":[0,6,3,8,0,3,8,5,11,5,1,2],"shift_direction":1,"question_num":21,"has_decoy":false,"subject":"S1C1226","sona":"41728","block":1,"time":"2021-09-17T19:09:06.058Z"},{"rt":832.8000000715256,"stimulus":"[A] option 1, [L] option 2, [G] neither","key_press":76,"name":"choice","trial_type":"html-keyboard-response","trial_index":48,"time_elapsed":149585,"internal_node_id":"0.0-48.0","response":"2nd","certainty":"high","char":"L","transposition":-3,"order":["swapped","shifted"],"probe_pitches":[9,8,2,6,0,4,11,7,0,9,1,7],"shifted_pitches":[9,8,2,6,0,5,11,7,0,9,1,7],"swapped_pitches":[9,8,2,6,0,11,4,7,0,9,1,7],"shift_direction":1,"question_num":31,"has_decoy":false,"subject":"S1C1226","sona":"41728","block":1,"time":"2021-09-17T19:09:06.058Z"},{"rt":4838.5,"stimulus":"[A] option 1, [L] option 2, [G] neither","key_press":71,"name":"choice","trial_type":"html-keyboard-response","trial_index":59,"time_elapsed":173019,"internal_node_id":"0.0-59.0","response":"neither","certainty":"high","char":"G","transposition":1,"order":["swapped","shifted"],"probe_pitches":[9,6,1,4,1,4,11,6,-1,4,1,9],"shifted_pitches":[9,6,1,4,1,5,11,6,-1,4,1,9],"swapped_pitches":[9,6,1,4,1,11,4,6,-1,4,1,9],"shift_direction":1,"question_num":41,"has_decoy":false,"subject":"S1C1226","sona":"41728","block":1,"time":"2021-09-17T19:09:06.058Z"},{"rt":1638.6000000238419,"stimulus":"[A] option 1, [L] option 2, [G] neither","key_press":76,"name":"choice","trial_type":"html-keyboard-response","trial_index":70,"time_elapsed":194215,"internal_node_id":"0.0-70.0","response":"2nd","certainty":"high","char":"L","transposition":2,"order":["swapped","shifted"],"probe_pitches":[1,4,11,4,6,-1,8,6,1,-1,4,11],"shifted_pitches":[1,4,11,4,6,-2,8,6,1,-1,4,11],"swapped_pitches":[1,4,11,4,6,8,-1,6,1,-1,4,11],"shift_direction":-1,"question_num":51,"has_decoy":false,"subject":"S1C1226","sona":"41728","block":1,"time":"2021-09-17T19:09:06.058Z"},{"rt":1468.2000000476837,"stimulus":"[A] option 1, [L] option 2, [G] neither","key_press":65,"name":"choice","trial_type":"html-keyboard-response","trial_index":81,"time_elapsed":214032,"internal_node_id":"0.0-81.0","response":"1st","certainty":"high","char":"A","transposition":-3,"order":["swapped","shifted"],"probe_pitches":[7,2,7,0,2,4,7,9,-1,5,9,-1],"shifted_pitches":[7,2,7,0,2,3,7,9,-1,5,9,-1],"swapped_pitches":[7,2,7,0,2,7,4,9,-1,5,9,-1],"shift_direction":-1,"question_num":61,"has_decoy":false,"subject":"S1C1226","sona":"41728","block":1,"time":"2021-09-17T19:09:06.058Z"},{"rt":468.90000009536743,"stimulus":"[A] option 1, [L] option 2, [G] neither","key_press":76,"name":"choice","trial_type":"html-keyboard-response","trial_index":92,"time_elapsed":233085,"internal_node_id":"0.0-92.0","response":"2nd","certainty":"high","char":"L","transposition":-2,"order":["shifted","swapped"],"probe_pitches":[7,10,11,10,2,4,7,9,7,6,9,6],"shifted_pitches":[7,10,11,10,2,4,8,9,7,6,9,6],"swapped_pitches":[7,10,11,10,2,7,4,9,7,6,9,6],"shift_direction":1,"question_num":71,"has_decoy":false,"subject":"S1C1226","sona":"41728","block":1,"time":"2021-09-17T19:09:06.058Z"},{"rt":1441.6999999284744,"stimulus":"[A] option 1, [L] option 2, [G] neither","key_press":76,"name":"choice","trial_type":"html-keyboard-response","trial_index":103,"time_elapsed":253039,"internal_node_id":"0.0-103.0","response":"2nd","certainty":"high","char":"L","transposition":0,"order":["swapped","shifted"],"probe_pitches":[2,4,-1,4,9,-1,7,2,9,7,4,9],"shifted_pitches":[2,4,-1,4,9,-1,6,2,9,7,4,9],"swapped_pitches":[2,4,-1,4,9,7,-1,2,9,7,4,9],"shift_direction":-1,"question_num":81,"has_decoy":false,"subject":"S1C1226","sona":"41728","block":1,"time":"2021-09-17T19:09:06.058Z"},{"rt":903.5,"stimulus":"[A] option 1, [L] option 2, [G] neither","key_press":65,"name":"choice","trial_type":"html-keyboard-response","trial_index":114,"time_elapsed":272687,"internal_node_id":"0.0-114.0","response":"1st","certainty":"high","char":"A","transposition":-2,"order":["swapped","shifted"],"probe_pitches":[8,5,2,9,3,2,7,10,4,1,4,2],"shifted_pitches":[8,5,2,9,3,2,6,10,4,1,4,2],"swapped_pitches":[8,5,2,9,3,7,2,10,4,1,4,2],"shift_direction":-1,"question_num":91,"has_decoy":false,"subject":"S1C1226","sona":"41728","block":1,"time":"2021-09-17T19:09:06.058Z"},{"rt":426.1999999284744,"stimulus":"[A] option 1, [L] option 2, [G] neither","key_press":76,"name":"choice","trial_type":"html-keyboard-response","trial_index":125,"time_elapsed":291713,"internal_node_id":"0.0-125.0","response":"2nd","certainty":"high","char":"L","transposition":-3,"order":["swapped","shifted"],"probe_pitches":[11,8,4,6,1,6,-1,8,4,1,8,-1],"shifted_pitches":[11,8,4,6,1,5,-1,8,4,1,8,-1],"swapped_pitches":[11,8,4,6,1,-1,6,8,4,1,8,-1],"shift_direction":-1,"question_num":101,"has_decoy":false,"subject":"S1C1226","sona":"41728","block":1,"time":"2021-09-17T19:09:06.058Z"},{"rt":369.89999997615814,"stimulus":"[A] option 1, [L] option 2, [G] neither","key_press":76,"name":"choice","trial_type":"html-keyboard-response","trial_index":136,"time_elapsed":311662,"internal_node_id":"0.0-136.0","response":"2nd","certainty":"high","char":"L","transposition":0,"order":["shifted","swapped"],"probe_pitches":[4,9,3,5,-1,6,11,10,2,0,2,3],"shifted_pitches":[4,9,3,5,-1,7,11,10,2,0,2,3],"swapped_pitches":[4,9,3,5,-1,11,6,10,2,0,2,3],"shift_direction":1,"question_num":111,"has_decoy":false,"subject":"S1C1226","sona":"41728","block":1,"time":"2021-09-17T19:09:06.058Z"},{"rt":340.7999999523163,"stimulus":"[A] option 1, [L] option 2, [G] neither","key_press":76,"name":"choice","trial_type":"html-keyboard-response","trial_index":147,"time_elapsed":330576,"internal_node_id":"0.0-147.0","response":"2nd","certainty":"high","char":"L","transposition":-3,"order":["swapped","shifted"],"probe_pitches":[9,7,11,9,11,2,9,7,2,9,4,9],"shifted_pitches":[9,7,11,9,11,2,10,7,2,9,4,9],"swapped_pitches":[9,7,11,9,11,9,2,7,2,9,4,9],"shift_direction":1,"question_num":121,"has_decoy":false,"subject":"S1C1226","sona":"41728","block":1,"time":"2021-09-17T19:09:06.058Z"},{"rt":435.10000002384186,"stimulus":"[A] option 1, [L] option 2, [G] neither","key_press":65,"name":"choice","trial_type":"html-keyboard-response","trial_index":158,"time_elapsed":350424,"internal_node_id":"0.0-158.0","response":"1st","certainty":"high","char":"A","transposition":1,"order":["shifted","swapped"],"probe_pitches":[3,-1,4,10,3,0,-1,4,2,6,0,5],"shifted_pitches":[3,-1,4,10,3,1,-1,4,2,6,0,5],"swapped_pitches":[3,-1,4,10,3,-1,0,4,2,6,0,5],"shift_direction":1,"question_num":131,"has_decoy":false,"subject":"S1C1226","sona":"41728","block":1,"time":"2021-09-17T19:09:06.058Z"},{"rt":583.6000000238419,"stimulus":"[A] option 1, [L] option 2, [G] neither","key_press":76,"name":"choice","trial_type":"html-keyboard-response","trial_index":169,"time_elapsed":369383,"internal_node_id":"0.0-169.0","response":"2nd","certainty":"high","char":"L","transposition":3,"order":["shifted","swapped"],"probe_pitches":[4,6,9,6,4,11,1,4,9,4,9,-1],"shifted_pitches":[4,6,9,6,4,11,2,4,9,4,9,-1],"swapped_pitches":[4,6,9,6,4,1,11,4,9,4,9,-1],"shift_direction":1,"question_num":141,"has_decoy":false,"subject":"S1C1226","sona":"41728","block":1,"time":"2021-09-17T19:09:06.058Z"},{"rt":417,"stimulus":"[A] option 1, [L] option 2, [G] neither","key_press":76,"name":"choice","trial_type":"html-keyboard-response","trial_index":180,"time_elapsed":389066,"internal_node_id":"0.0-180.0","response":"2nd","certainty":"high","char":"L","transposition":-1,"order":["shifted","swapped"],"probe_pitches":[-1,2,9,6,4,6,9,11,9,11,6,11],"shifted_pitches":[-1,2,9,6,4,6,8,11,9,11,6,11],"swapped_pitches":[-1,2,9,6,4,9,6,11,9,11,6,11],"shift_direction":-1,"question_num":151,"has_decoy":false,"subject":"S1C1226","sona":"41728","block":1,"time":"2021-09-17T19:09:06.058Z"},{"rt":687.2000000476837,"stimulus":"[A] option 1, [L] option 2, [G] neither","key_press":76,"name":"choice","trial_type":"html-keyboard-response","trial_index":191,"time_elapsed":408686,"internal_node_id":"0.0-191.0","response":"2nd","certainty":"high","char":"L","transposition":-2,"order":["shifted","swapped"],"probe_pitches":[6,1,8,6,11,8,3,11,-1,11,6,-1],"shifted_pitches":[6,1,8,6,11,8,4,11,-1,11,6,-1],"swapped_pitches":[6,1,8,6,11,3,8,11,-1,11,6,-1],"shift_direction":1,"question_num":161,"has_decoy":false,"subject":"S1C1226","sona":"41728","block":1,"time":"2021-09-17T19:09:06.058Z"},{"rt":886.6999999284744,"stimulus":"[A] option 1, [L] option 2, [G] neither","key_press":65,"name":"choice","trial_type":"html-keyboard-response","trial_index":202,"time_elapsed":430649,"internal_node_id":"0.0-202.0","response":"1st","certainty":"high","char":"A","transposition":-1,"order":["swapped","shifted"],"probe_pitches":[1,7,6,11,5,1,3,10,11,5,0,1],"shifted_pitches":[1,7,6,11,5,1,2,10,11,5,0,1],"swapped_pitches":[1,7,6,11,5,3,1,10,11,5,0,1],"shift_direction":-1,"question_num":171,"has_decoy":false,"subject":"S1C1226","sona":"41728","block":1,"time":"2021-09-17T19:09:06.058Z"},{"rt":742.5,"stimulus":"[A] option 1, [L] option 2, [G] neither","key_press":65,"name":"choice","trial_type":"html-keyboard-response","trial_index":213,"time_elapsed":449732,"internal_node_id":"0.0-213.0","response":"1st","certainty":"high","char":"A","transposition":-1,"order":["shifted","swapped"],"probe_pitches":[5,1,6,4,5,-1,4,0,9,11,-1,6],"shifted_pitches":[5,1,6,4,5,-2,4,0,9,11,-1,6],"swapped_pitches":[5,1,6,4,5,4,-1,0,9,11,-1,6],"shift_direction":-1,"question_num":181,"has_decoy":false,"subject":"S1C1226","sona":"41728","block":1,"time":"2021-09-17T19:09:06.058Z"},{"rt":770.0999999046326,"stimulus":"[A] option 1, [L] option 2, [G] neither","key_press":65,"name":"choice","trial_type":"html-keyboard-response","trial_index":224,"time_elapsed":472196,"internal_node_id":"0.0-224.0","response":"1st","certainty":"high","char":"A","transposition":-1,"order":["shifted","swapped"],"probe_pitches":[2,-1,4,-1,6,4,-1,6,2,9,2,4],"shifted_pitches":[2,-1,4,-1,6,3,-1,6,2,9,2,4],"swapped_pitches":[2,-1,4,-1,6,-1,4,6,2,9,2,4],"shift_direction":-1,"question_num":191,"has_decoy":false,"subject":"S1C1226","sona":"41728","block":1,"time":"2021-09-17T19:09:06.058Z"}]