[{"rt":1049.8999999761581,"stimulus":"[A] option 1, [L] option 2, [G] neither","key_press":76,"name":"choice","trial_type":"html-keyboard-response","trial_index":10,"time_elapsed":24592,"internal_node_id":"0.0-10.0","subject":"S1C1226","sona":"41728","block":2,"time":"2021-09-17T19:21:37.217Z","response":"2nd","certainty":"high","char":"L","transposition":-2,"order":["swapped","shifted"],"probe_pitches":[9,5,9,5,2,7,9,-3,9,2,0,-3],"shifted_pitches":[9,5,9,5,2,7,10,-3,9,2,0,-3],"swapped_pitches":[9,5,9,5,2,9,7,-3,9,2,0,-3],"shift_direction":1,"question_num":1,"has_decoy":false},{"rt":368.90000009536743,"stimulus":"[A] option 1, [L] option 2, [G] neither","key_press":76,"name":"choice","trial_type":"html-keyboard-response","trial_index":21,"time_elapsed":44588,"internal_node_id":"0.0-21.0","subject":"S1C1226","sona":"41728","block":2,"time":"2021-09-17T19:21:37.217Z","response":"2nd","certainty":"high","char":"L","transposition":-2,"order":["shifted","swapped"],"probe_pitches":[9,6,7,12,6,8,2,7,6,2,1,12],"shifted_pitches":[9,6,7,12,6,8,3,7,6,2,1,12],"swapped_pitches":[9,6,7,12,6,2,8,7,6,2,1,12],"shift_direction":1,"question_num":11,"has_decoy":false},{"rt":1979.5,"stimulus":"[A] option 1, [L] option 2, [G] neither","key_press":71,"name":"choice","trial_type":"html-keyboard-response","trial_index":32,"time_elapsed":65446,"internal_node_id":"0.0-32.0","subject":"S1C1226","sona":"41728","block":2,"time":"2021-09-17T19:21:37.217Z","response":"neither","certainty":"high","char":"G","transposition":3,"order":["swapped","shifted"],"probe_pitches":[1,7,3,7,9,10,1,6,12,4,12,5],"shifted_pitches":[1,7,3,7,9,11,1,6,12,4,12,5],"swapped_pitches":[1,7,3,7,9,1,10,6,12,4,12,5],"shift_direction":1,"question_num":21,"has_decoy":false},{"rt":458.90000009536743,"stimulus":"[A] option 1, [L] option 2, [G] neither","key_press":65,"name":"choice","trial_type":"html-keyboard-response","trial_index":43,"time_elapsed":84794,"internal_node_id":"0.0-43.0","subject":"S1C1226","sona":"41728","block":2,"time":"2021-09-17T19:21:37.217Z","response":"1st","certainty":"high","char":"A","transposition":-3,"order":["shifted","swapped"],"probe_pitches":[1,4,-3,4,-1,4,6,-3,6,1,-1,4],"shifted_pitches":[1,4,-3,4,-1,4,7,-3,6,1,-1,4],"swapped_pitches":[1,4,-3,4,-1,6,4,-3,6,1,-1,4],"shift_direction":1,"question_num":31,"has_decoy":false},{"rt":5173.800000071526,"stimulus":"[A] option 1, [L] option 2, [G] neither","key_press":76,"name":"choice","trial_type":"html-keyboard-response","trial_index":54,"time_elapsed":108687,"internal_node_id":"0.0-54.0","subject":"S1C1226","sona":"41728","block":2,"time":"2021-09-17T19:21:37.217Z","response":"2nd","certainty":"high","char":"L","transposition":-2,"order":["swapped","shifted"],"probe_pitches":[6,4,9,2,9,2,6,-1,6,-3,-1,4],"shifted_pitches":[6,4,9,2,9,3,6,-1,6,-3,-1,4],"swapped_pitches":[6,4,9,2,9,6,2,-1,6,-3,-1,4],"shift_direction":1,"question_num":41,"has_decoy":false},{"rt":538.3000000715256,"stimulus":"[A] option 1, [L] option 2, [G] neither","key_press":65,"name":"choice","trial_type":"html-keyboard-response","trial_index":65,"time_elapsed":128312,"internal_node_id":"0.0-65.0","subject":"S1C1226","sona":"41728","block":2,"time":"2021-09-17T19:21:37.217Z","response":"1st","certainty":"high","char":"A","transposition":0,"order":["shifted","swapped"],"probe_pitches":[4,-1,4,2,-1,-3,4,-1,-3,7,4,-3],"shifted_pitches":[4,-1,4,2,-1,-2,4,-1,-3,7,4,-3],"swapped_pitches":[4,-1,4,2,-1,4,-3,-1,-3,7,4,-3],"shift_direction":1,"question_num":51,"has_decoy":false},{"rt":252.70000004768372,"stimulus":"[A] option 1, [L] option 2, [G] neither","key_press":76,"name":"choice","trial_type":"html-keyboard-response","trial_index":76,"time_elapsed":148543,"internal_node_id":"0.0-76.0","subject":"S1C1226","sona":"41728","block":2,"time":"2021-09-17T19:21:37.217Z","response":"2nd","certainty":"high","char":"L","transposition":1,"order":["shifted","swapped"],"probe_pitches":[3,2,6,7,6,13,7,11,3,12,5,3],"shifted_pitches":[3,2,6,7,6,13,8,11,3,12,5,3],"swapped_pitches":[3,2,6,7,6,7,13,11,3,12,5,3],"shift_direction":1,"question_num":61,"has_decoy":false},{"rt":987.5,"stimulus":"[A] option 1, [L] option 2, [G] neither","key_press":76,"name":"choice","trial_type":"html-keyboard-response","trial_index":87,"time_elapsed":169064,"internal_node_id":"0.0-87.0","subject":"S1C1226","sona":"41728","block":2,"time":"2021-09-17T19:21:37.217Z","response":"2nd","certainty":"high","char":"L","transposition":-3,"order":["swapped","shifted"],"probe_pitches":[-1,-3,4,2,-1,2,4,-3,6,9,6,2],"shifted_pitches":[-1,-3,4,2,-1,2,3,-3,6,9,6,2],"swapped_pitches":[-1,-3,4,2,-1,4,2,-3,6,9,6,2],"shift_direction":-1,"question_num":71,"has_decoy":false},{"rt":8051.199999928474,"stimulus":"[A] option 1, [L] option 2, [G] neither","key_press":65,"name":"choice","trial_type":"html-keyboard-response","trial_index":98,"time_elapsed":195743,"internal_node_id":"0.0-98.0","subject":"S1C1226","sona":"41728","block":2,"time":"2021-09-17T19:21:37.217Z","response":"1st","certainty":"high","char":"A","transposition":1,"order":["shifted","swapped"],"probe_pitches":[7,9,7,0,2,9,0,5,9,-3,7,0],"shifted_pitches":[7,9,7,0,2,9,-1,5,9,-3,7,0],"swapped_pitches":[7,9,7,0,2,0,9,5,9,-3,7,0],"shift_direction":-1,"question_num":81,"has_decoy":false},{"rt":813.8999999761581,"stimulus":"[A] option 1, [L] option 2, [G] neither","key_press":65,"name":"choice","trial_type":"html-keyboard-response","trial_index":109,"time_elapsed":555890,"internal_node_id":"0.0-109.0","subject":"S1C1226","sona":"41728","block":2,"time":"2021-09-17T19:21:37.217Z","response":"1st","certainty":"high","char":"A","transposition":-3,"order":["shifted","swapped"],"probe_pitches":[7,9,13,8,9,6,2,8,6,8,10,4],"shifted_pitches":[7,9,13,8,9,5,2,8,6,8,10,4],"swapped_pitches":[7,9,13,8,9,2,6,8,6,8,10,4],"shift_direction":-1,"question_num":91,"has_decoy":false},{"rt":407,"stimulus":"[A] option 1, [L] option 2, [G] neither","key_press":65,"name":"choice","trial_type":"html-keyboard-response","trial_index":120,"time_elapsed":575514,"internal_node_id":"0.0-120.0","subject":"S1C1226","sona":"41728","block":2,"time":"2021-09-17T19:21:37.217Z","response":"1st","certainty":"high","char":"A","transposition":-1,"order":["shifted","swapped"],"probe_pitches":[9,4,9,2,0,9,4,0,-3,7,-3,9],"shifted_pitches":[9,4,9,2,0,10,4,0,-3,7,-3,9],"swapped_pitches":[9,4,9,2,0,4,9,0,-3,7,-3,9],"shift_direction":1,"question_num":101,"has_decoy":false},{"rt":374,"stimulus":"[A] option 1, [L] option 2, [G] neither","key_press":76,"name":"choice","trial_type":"html-keyboard-response","trial_index":131,"time_elapsed":593918,"internal_node_id":"0.0-131.0","subject":"S1C1226","sona":"41728","block":2,"time":"2021-09-17T19:21:37.217Z","response":"2nd","certainty":"high","char":"L","transposition":3,"order":["swapped","shifted"],"probe_pitches":[-3,0,2,7,0,7,-3,9,2,0,7,4],"shifted_pitches":[-3,0,2,7,0,6,-3,9,2,0,7,4],"swapped_pitches":[-3,0,2,7,0,-3,7,9,2,0,7,4],"shift_direction":-1,"question_num":111,"has_decoy":false},{"rt":413.8000000715256,"stimulus":"[A] option 1, [L] option 2, [G] neither","key_press":76,"name":"choice","trial_type":"html-keyboard-response","trial_index":142,"time_elapsed":612566,"internal_node_id":"0.0-142.0","subject":"S1C1226","sona":"41728","block":2,"time":"2021-09-17T19:21:37.217Z","response":"2nd","certainty":"high","char":"L","transposition":-2,"order":["swapped","shifted"],"probe_pitches":[6,9,2,7,10,11,13,1,4,13,11,13],"shifted_pitches":[6,9,2,7,10,11,12,1,4,13,11,13],"swapped_pitches":[6,9,2,7,10,13,11,1,4,13,11,13],"shift_direction":-1,"question_num":121,"has_decoy":false},{"rt":335.39999997615814,"stimulus":"[A] option 1, [L] option 2, [G] neither","key_press":76,"name":"choice","trial_type":"html-keyboard-response","trial_index":153,"time_elapsed":631457,"internal_node_id":"0.0-153.0","subject":"S1C1226","sona":"41728","block":2,"time":"2021-09-17T19:21:37.217Z","response":"2nd","certainty":"high","char":"L","transposition":2,"order":["swapped","shifted"],"probe_pitches":[4,-1,1,-1,1,-1,-3,6,1,6,9,-3],"shifted_pitches":[4,-1,1,-1,1,-2,-3,6,1,6,9,-3],"swapped_pitches":[4,-1,1,-1,1,-3,-1,6,1,6,9,-3],"shift_direction":-1,"question_num":131,"has_decoy":false},{"rt":368.7000000476837,"stimulus":"[A] option 1, [L] option 2, [G] neither","key_press":65,"name":"choice","trial_type":"html-keyboard-response","trial_index":164,"time_elapsed":650295,"internal_node_id":"0.0-164.0","subject":"S1C1226","sona":"41728","block":2,"time":"2021-09-17T19:21:37.217Z","response":"1st","certainty":"high","char":"A","transposition":0,"order":["shifted","swapped"],"probe_pitches":[7,8,13,11,10,1,5,10,12,7,8,13],"shifted_pitches":[7,8,13,11,10,1,4,10,12,7,8,13],"swapped_pitches":[7,8,13,11,10,5,1,10,12,7,8,13],"shift_direction":-1,"question_num":141,"has_decoy":false},{"rt":410.2000000476837,"stimulus":"[A] option 1, [L] option 2, [G] neither","key_press":76,"name":"choice","trial_type":"html-keyboard-response","trial_index":175,"time_elapsed":669174,"internal_node_id":"0.0-175.0","subject":"S1C1226","sona":"41728","block":2,"time":"2021-09-17T19:21:37.217Z","response":"2nd","certainty":"high","char":"L","transposition":-1,"order":["shifted","swapped"],"probe_pitches":[2,-1,2,-3,-1,7,9,2,9,7,4,-1],"shifted_pitches":[2,-1,2,-3,-1,7,8,2,9,7,4,-1],"swapped_pitches":[2,-1,2,-3,-1,9,7,2,9,7,4,-1],"shift_direction":-1,"question_num":151,"has_decoy":false},{"rt":351.2999999523163,"stimulus":"[A] option 1, [L] option 2, [G] neither","key_press":65,"name":"choice","trial_type":"html-keyboard-response","trial_index":186,"time_elapsed":689445,"internal_node_id":"0.0-186.0","subject":"S1C1226","sona":"41728","block":2,"time":"2021-09-17T19:21:37.217Z","response":"1st","certainty":"high","char":"A","transposition":-1,"order":["swapped","shifted"],"probe_pitches":[7,11,8,13,6,9,3,4,8,1,11,8],"shifted_pitches":[7,11,8,13,6,10,3,4,8,1,11,8],"swapped_pitches":[7,11,8,13,6,3,9,4,8,1,11,8],"shift_direction":1,"question_num":161,"has_decoy":false},{"rt":1307.8999999761581,"stimulus":"[A] option 1, [L] option 2, [G] neither","key_press":76,"name":"choice","trial_type":"html-keyboard-response","trial_index":197,"time_elapsed":709179,"internal_node_id":"0.0-197.0","subject":"S1C1226","sona":"41728","block":2,"time":"2021-09-17T19:21:37.217Z","response":"2nd","certainty":"high","char":"L","transposition":2,"order":["shifted","swapped"],"probe_pitches":[13,9,2,10,2,5,9,8,4,1,2,9],"shifted_pitches":[13,9,2,10,2,6,9,8,4,1,2,9],"swapped_pitches":[13,9,2,10,2,9,5,8,4,1,2,9],"shift_direction":1,"question_num":171,"has_decoy":false},{"rt":433.59999990463257,"stimulus":"[A] option 1, [L] option 2, [G] neither","key_press":65,"name":"choice","trial_type":"html-keyboard-response","trial_index":208,"time_elapsed":728951,"internal_node_id":"0.0-208.0","subject":"S1C1226","sona":"41728","block":2,"time":"2021-09-17T19:21:37.217Z","response":"1st","certainty":"high","char":"A","transposition":-3,"order":["swapped","shifted"],"probe_pitches":[3,4,1,6,7,1,10,13,7,3,10,4],"shifted_pitches":[3,4,1,6,7,1,9,13,7,3,10,4],"swapped_pitches":[3,4,1,6,7,10,1,13,7,3,10,4],"shift_direction":-1,"question_num":181,"has_decoy":false},{"rt":317.7999999523163,"stimulus":"[A] option 1, [L] option 2, [G] neither","key_press":76,"name":"choice","trial_type":"html-keyboard-response","trial_index":219,"time_elapsed":747992,"internal_node_id":"0.0-219.0","subject":"S1C1226","sona":"41728","block":2,"time":"2021-09-17T19:21:37.217Z","response":"2nd","certainty":"high","char":"L","transposition":-1,"order":["swapped","shifted"],"probe_pitches":[6,3,2,5,1,8,2,11,3,2,13,4],"shifted_pitches":[6,3,2,5,1,7,2,11,3,2,13,4],"swapped_pitches":[6,3,2,5,1,2,8,11,3,2,13,4],"shift_direction":-1,"question_num":191,"has_decoy":false}]