[{"rt":377.9000000357628,"stimulus":"[A] option 1, [L] option 2, [G] neither","key_press":65,"name":"choice","trial_type":"html-keyboard-response","trial_index":10,"time_elapsed":22541,"internal_node_id":"0.0-10.0","subject":"S1C1632","sona":"41616","block":6,"time":"2021-09-18T04:22:21.889Z","response":"1st","certainty":"high","char":"A","transposition":0,"order":["shifted","swapped"],"probe_pitches":[10,15,8,13,8,13,7,3,9,5,15,12,6,8,9,15],"shifted_pitches":[10,15,8,13,8,13,7,2,9,5,15,12,6,8,9,15],"swapped_pitches":[10,15,8,13,8,13,7,9,3,5,15,12,6,8,9,15],"shift_direction":-1,"question_num":1,"has_decoy":false},{"rt":977.6999999880791,"stimulus":"[A] option 1, [L] option 2, [G] neither","key_press":65,"name":"choice","trial_type":"html-keyboard-response","trial_index":21,"time_elapsed":45903,"internal_node_id":"0.0-21.0","subject":"S1C1632","sona":"41616","block":6,"time":"2021-09-18T04:22:21.889Z","response":"1st","certainty":"high","char":"A","transposition":-2,"order":["shifted","swapped"],"probe_pitches":[6,4,11,6,11,1,6,13,4,1,4,11,13,4,8,11],"shifted_pitches":[6,4,11,6,11,1,6,13,5,1,4,11,13,4,8,11],"swapped_pitches":[6,4,11,6,11,1,6,4,13,1,4,11,13,4,8,11],"shift_direction":1,"question_num":11,"has_decoy":false},{"rt":4037,"stimulus":"[A] option 1, [L] option 2, [G] neither","key_press":65,"name":"choice","trial_type":"html-keyboard-response","trial_index":32,"time_elapsed":72175,"internal_node_id":"0.0-32.0","subject":"S1C1632","sona":"41616","block":6,"time":"2021-09-18T04:22:21.889Z","response":"1st","certainty":"high","char":"A","transposition":-2,"order":["swapped","shifted"],"probe_pitches":[5,10,9,6,15,13,15,9,14,6,5,9,7,5,12,13],"shifted_pitches":[5,10,9,6,15,13,15,8,14,6,5,9,7,5,12,13],"swapped_pitches":[5,10,9,6,15,13,15,14,9,6,5,9,7,5,12,13],"shift_direction":-1,"question_num":21,"has_decoy":false},{"rt":611.8999999761581,"stimulus":"[A] option 1, [L] option 2, [G] neither","key_press":76,"name":"choice","trial_type":"html-keyboard-response","trial_index":43,"time_elapsed":95146,"internal_node_id":"0.0-43.0","subject":"S1C1632","sona":"41616","block":6,"time":"2021-09-18T04:22:21.889Z","response":"2nd","certainty":"high","char":"L","transposition":2,"order":["swapped","shifted"],"probe_pitches":[13,8,1,5,13,5,3,1,13,5,8,10,13,5,1,5],"shifted_pitches":[13,8,1,5,13,5,3,2,13,5,8,10,13,5,1,5],"swapped_pitches":[13,8,1,5,13,5,3,13,1,5,8,10,13,5,1,5],"shift_direction":1,"question_num":31,"has_decoy":false},{"rt":1142.300000011921,"stimulus":"[A] option 1, [L] option 2, [G] neither","key_press":71,"name":"choice","trial_type":"html-keyboard-response","trial_index":54,"time_elapsed":118671,"internal_node_id":"0.0-54.0","subject":"S1C1632","sona":"41616","block":6,"time":"2021-09-18T04:22:21.889Z","response":"neither","certainty":"high","char":"G","transposition":3,"order":["shifted","swapped"],"probe_pitches":[13,9,11,7,4,13,11,14,5,8,9,7,14,15,4,7],"shifted_pitches":[13,9,11,7,4,13,11,14,6,8,9,7,14,15,4,7],"swapped_pitches":[13,9,11,7,4,13,11,5,14,8,9,7,14,15,4,7],"shift_direction":1,"question_num":41,"has_decoy":false},{"rt":496.69999998807907,"stimulus":"[A] option 1, [L] option 2, [G] neither","key_press":76,"name":"choice","trial_type":"html-keyboard-response","trial_index":65,"time_elapsed":142081,"internal_node_id":"0.0-65.0","subject":"S1C1632","sona":"41616","block":6,"time":"2021-09-18T04:22:21.889Z","response":"2nd","certainty":"high","char":"L","transposition":1,"order":["swapped","shifted"],"probe_pitches":[10,8,3,10,3,10,8,1,13,3,10,13,1,6,10,8],"shifted_pitches":[10,8,3,10,3,10,8,2,13,3,10,13,1,6,10,8],"swapped_pitches":[10,8,3,10,3,10,8,13,1,3,10,13,1,6,10,8],"shift_direction":1,"question_num":51,"has_decoy":false},{"rt":507.39999997615814,"stimulus":"[A] option 1, [L] option 2, [G] neither","key_press":65,"name":"choice","trial_type":"html-keyboard-response","trial_index":76,"time_elapsed":165056,"internal_node_id":"0.0-76.0","subject":"S1C1632","sona":"41616","block":6,"time":"2021-09-18T04:22:21.889Z","response":"1st","certainty":"high","char":"A","transposition":-2,"order":["shifted","swapped"],"probe_pitches":[1,3,6,3,1,6,8,1,13,11,8,11,1,3,6,1],"shifted_pitches":[1,3,6,3,1,6,8,1,12,11,8,11,1,3,6,1],"swapped_pitches":[1,3,6,3,1,6,8,13,1,11,8,11,1,3,6,1],"shift_direction":-1,"question_num":61,"has_decoy":false},{"rt":527.5,"stimulus":"[A] option 1, [L] option 2, [G] neither","key_press":76,"name":"choice","trial_type":"html-keyboard-response","trial_index":87,"time_elapsed":187890,"internal_node_id":"0.0-87.0","subject":"S1C1632","sona":"41616","block":6,"time":"2021-09-18T04:22:21.889Z","response":"2nd","certainty":"high","char":"L","transposition":-3,"order":["swapped","shifted"],"probe_pitches":[9,11,6,11,4,11,13,4,6,11,13,1,9,11,1,9],"shifted_pitches":[9,11,6,11,4,11,13,3,6,11,13,1,9,11,1,9],"swapped_pitches":[9,11,6,11,4,11,13,6,4,11,13,1,9,11,1,9],"shift_direction":-1,"question_num":71,"has_decoy":false},{"rt":583.5,"stimulus":"[A] option 1, [L] option 2, [G] neither","key_press":65,"name":"choice","trial_type":"html-keyboard-response","trial_index":98,"time_elapsed":210882,"internal_node_id":"0.0-98.0","subject":"S1C1632","sona":"41616","block":6,"time":"2021-09-18T04:22:21.889Z","response":"1st","certainty":"high","char":"A","transposition":-3,"order":["shifted","swapped"],"probe_pitches":[7,6,3,4,13,14,7,12,11,4,9,4,12,9,13,7],"shifted_pitches":[7,6,3,4,13,14,7,12,10,4,9,4,12,9,13,7],"swapped_pitches":[7,6,3,4,13,14,7,11,12,4,9,4,12,9,13,7],"shift_direction":-1,"question_num":81,"has_decoy":false},{"rt":1966.6000000238419,"stimulus":"[A] option 1, [L] option 2, [G] neither","key_press":71,"name":"choice","trial_type":"html-keyboard-response","trial_index":109,"time_elapsed":235068,"internal_node_id":"0.0-109.0","subject":"S1C1632","sona":"41616","block":6,"time":"2021-09-18T04:22:21.889Z","response":"neither","certainty":"high","char":"G","transposition":-3,"order":["swapped","shifted"],"probe_pitches":[12,15,8,14,12,3,10,8,6,14,6,11,15,11,5,7],"shifted_pitches":[12,15,8,14,12,3,10,9,6,14,6,11,15,11,5,7],"swapped_pitches":[12,15,8,14,12,3,10,6,8,14,6,11,15,11,5,7],"shift_direction":1,"question_num":91,"has_decoy":false},{"rt":662.1999999880791,"stimulus":"[A] option 1, [L] option 2, [G] neither","key_press":65,"name":"choice","trial_type":"html-keyboard-response","trial_index":120,"time_elapsed":257863,"internal_node_id":"0.0-120.0","subject":"S1C1632","sona":"41616","block":6,"time":"2021-09-18T04:22:21.889Z","response":"1st","certainty":"high","char":"A","transposition":3,"order":["shifted","swapped"],"probe_pitches":[8,11,13,8,13,8,6,1,4,11,6,1,11,8,4,8],"shifted_pitches":[8,11,13,8,13,8,6,1,3,11,6,1,11,8,4,8],"swapped_pitches":[8,11,13,8,13,8,6,4,1,11,6,1,11,8,4,8],"shift_direction":-1,"question_num":101,"has_decoy":false},{"rt":517.1999999880791,"stimulus":"[A] option 1, [L] option 2, [G] neither","key_press":76,"name":"choice","trial_type":"html-keyboard-response","trial_index":131,"time_elapsed":280584,"internal_node_id":"0.0-131.0","subject":"S1C1632","sona":"41616","block":6,"time":"2021-09-18T04:22:21.889Z","response":"2nd","certainty":"high","char":"L","transposition":-3,"order":["swapped","shifted"],"probe_pitches":[8,10,13,5,3,5,13,8,3,13,10,13,3,8,3,13],"shifted_pitches":[8,10,13,5,3,5,13,8,2,13,10,13,3,8,3,13],"swapped_pitches":[8,10,13,5,3,5,13,3,8,13,10,13,3,8,3,13],"shift_direction":-1,"question_num":111,"has_decoy":false},{"rt":697.1999999880791,"stimulus":"[A] option 1, [L] option 2, [G] neither","key_press":65,"name":"choice","trial_type":"html-keyboard-response","trial_index":142,"time_elapsed":303648,"internal_node_id":"0.0-142.0","subject":"S1C1632","sona":"41616","block":6,"time":"2021-09-18T04:22:21.889Z","response":"1st","certainty":"high","char":"A","transposition":-1,"order":["shifted","swapped"],"probe_pitches":[8,10,8,1,8,6,13,1,8,10,1,10,6,1,3,13],"shifted_pitches":[8,10,8,1,8,6,13,2,8,10,1,10,6,1,3,13],"swapped_pitches":[8,10,8,1,8,6,13,8,1,10,1,10,6,1,3,13],"shift_direction":1,"question_num":121,"has_decoy":false},{"rt":920.8000000119209,"stimulus":"[A] option 1, [L] option 2, [G] neither","key_press":65,"name":"choice","trial_type":"html-keyboard-response","trial_index":153,"time_elapsed":326958,"internal_node_id":"0.0-153.0","subject":"S1C1632","sona":"41616","block":6,"time":"2021-09-18T04:22:21.889Z","response":"1st","certainty":"high","char":"A","transposition":-2,"order":["shifted","swapped"],"probe_pitches":[4,10,5,13,4,6,9,3,11,10,8,7,6,4,13,14],"shifted_pitches":[4,10,5,13,4,6,9,3,12,10,8,7,6,4,13,14],"swapped_pitches":[4,10,5,13,4,6,9,11,3,10,8,7,6,4,13,14],"shift_direction":1,"question_num":131,"has_decoy":false},{"rt":994.8999999761581,"stimulus":"[A] option 1, [L] option 2, [G] neither","key_press":71,"name":"choice","trial_type":"html-keyboard-response","trial_index":164,"time_elapsed":350344,"internal_node_id":"0.0-164.0","subject":"S1C1632","sona":"41616","block":6,"time":"2021-09-18T04:22:21.889Z","response":"neither","certainty":"high","char":"G","transposition":2,"order":["swapped","shifted"],"probe_pitches":[10,9,15,12,10,9,11,14,4,12,9,7,13,10,13,3],"shifted_pitches":[10,9,15,12,10,9,11,14,5,12,9,7,13,10,13,3],"swapped_pitches":[10,9,15,12,10,9,11,4,14,12,9,7,13,10,13,3],"shift_direction":1,"question_num":141,"has_decoy":false},{"rt":2285.300000011921,"stimulus":"[A] option 1, [L] option 2, [G] neither","key_press":71,"name":"choice","trial_type":"html-keyboard-response","trial_index":175,"time_elapsed":375138,"internal_node_id":"0.0-175.0","subject":"S1C1632","sona":"41616","block":6,"time":"2021-09-18T04:22:21.889Z","response":"neither","certainty":"high","char":"G","transposition":0,"order":["shifted","swapped"],"probe_pitches":[3,6,8,1,8,13,8,11,3,1,11,6,1,3,13,1],"shifted_pitches":[3,6,8,1,8,13,8,11,2,1,11,6,1,3,13,1],"swapped_pitches":[3,6,8,1,8,13,8,3,11,1,11,6,1,3,13,1],"shift_direction":-1,"question_num":151,"has_decoy":false},{"rt":2187,"stimulus":"[A] option 1, [L] option 2, [G] neither","key_press":71,"name":"choice","trial_type":"html-keyboard-response","trial_index":186,"time_elapsed":401688,"internal_node_id":"0.0-186.0","subject":"S1C1632","sona":"41616","block":6,"time":"2021-09-18T04:22:21.889Z","response":"neither","certainty":"high","char":"G","transposition":-1,"order":["swapped","shifted"],"probe_pitches":[15,14,10,15,6,5,15,5,8,11,12,8,3,6,8,3],"shifted_pitches":[15,14,10,15,6,5,15,5,7,11,12,8,3,6,8,3],"swapped_pitches":[15,14,10,15,6,5,15,8,5,11,12,8,3,6,8,3],"shift_direction":-1,"question_num":161,"has_decoy":false},{"rt":529.0999999642372,"stimulus":"[A] option 1, [L] option 2, [G] neither","key_press":76,"name":"choice","trial_type":"html-keyboard-response","trial_index":197,"time_elapsed":428525,"internal_node_id":"0.0-197.0","subject":"S1C1632","sona":"41616","block":6,"time":"2021-09-18T04:22:21.889Z","response":"2nd","certainty":"high","char":"L","transposition":-1,"order":["swapped","shifted"],"probe_pitches":[11,9,11,6,9,4,1,9,6,4,1,9,11,4,13,11],"shifted_pitches":[11,9,11,6,9,4,1,10,6,4,1,9,11,4,13,11],"swapped_pitches":[11,9,11,6,9,4,1,6,9,4,1,9,11,4,13,11],"shift_direction":1,"question_num":171,"has_decoy":false},{"rt":3134.899999976158,"stimulus":"[A] option 1, [L] option 2, [G] neither","key_press":71,"name":"choice","trial_type":"html-keyboard-response","trial_index":208,"time_elapsed":454623,"internal_node_id":"0.0-208.0","subject":"S1C1632","sona":"41616","block":6,"time":"2021-09-18T04:22:21.889Z","response":"neither","certainty":"high","char":"G","transposition":-1,"order":["shifted","swapped"],"probe_pitches":[15,9,10,14,9,3,6,14,12,6,8,15,3,8,11,3],"shifted_pitches":[15,9,10,14,9,3,6,13,12,6,8,15,3,8,11,3],"swapped_pitches":[15,9,10,14,9,3,6,12,14,6,8,15,3,8,11,3],"shift_direction":-1,"question_num":181,"has_decoy":false},{"rt":1972,"stimulus":"[A] option 1, [L] option 2, [G] neither","key_press":71,"name":"choice","trial_type":"html-keyboard-response","trial_index":219,"time_elapsed":480890,"internal_node_id":"0.0-219.0","subject":"S1C1632","sona":"41616","block":6,"time":"2021-09-18T04:22:21.889Z","response":"neither","certainty":"high","char":"G","transposition":1,"order":["swapped","shifted"],"probe_pitches":[5,3,8,7,14,10,7,10,8,4,10,13,4,12,15,14],"shifted_pitches":[5,3,8,7,14,10,7,11,8,4,10,13,4,12,15,14],"swapped_pitches":[5,3,8,7,14,10,7,8,10,4,10,13,4,12,15,14],"shift_direction":1,"question_num":191,"has_decoy":false}]