[{"rt":11217.5,"stimulus":"[A] option 1, [L] option 2, [G] neither","key_press":76,"name":"choice","trial_type":"html-keyboard-response","trial_index":15,"time_elapsed":145379,"internal_node_id":"0.0-15.0","response":"2nd","certainty":"high","char":"L","transposition":3,"order":["swapped","shifted"],"probe_pitches":[2,-1,2,-3,4,-1,2,-3,-1,6,2,-3,-1,-3,6,4],"shifted_pitches":[2,-1,2,-3,4,-1,2,-4,-1,6,2,-3,-1,-3,6,4],"swapped_pitches":[2,-1,2,-3,4,-1,2,-1,-3,6,2,-3,-1,-3,6,4],"shift_direction":-1,"question_num":1,"has_decoy":false,"subject":"S1C1632","sona":"41616","block":1,"time":"2021-09-18T03:39:32.570Z"},{"rt":4761.900000035763,"stimulus":"[A] option 1, [L] option 2, [G] neither","key_press":76,"name":"choice","trial_type":"html-keyboard-response","trial_index":26,"time_elapsed":179542,"internal_node_id":"0.0-26.0","response":"2nd","certainty":"high","char":"L","transposition":1,"order":["shifted","swapped"],"probe_pitches":[7,9,8,2,3,9,0,10,3,4,3,1,3,12,6,5],"shifted_pitches":[7,9,8,2,3,9,0,11,3,4,3,1,3,12,6,5],"swapped_pitches":[7,9,8,2,3,9,0,3,10,4,3,1,3,12,6,5],"shift_direction":1,"question_num":11,"has_decoy":false,"subject":"S1C1632","sona":"41616","block":1,"time":"2021-09-18T03:39:32.570Z"},{"rt":1931,"stimulus":"[A] option 1, [L] option 2, [G] neither","key_press":65,"name":"choice","trial_type":"html-keyboard-response","trial_index":37,"time_elapsed":205235,"internal_node_id":"0.0-37.0","response":"1st","certainty":"high","char":"A","transposition":-2,"order":["shifted","swapped"],"probe_pitches":[-3,2,9,7,4,7,-3,0,4,2,9,0,9,-3,7,0],"shifted_pitches":[-3,2,9,7,4,7,-3,0,3,2,9,0,9,-3,7,0],"swapped_pitches":[-3,2,9,7,4,7,-3,4,0,2,9,0,9,-3,7,0],"shift_direction":-1,"question_num":21,"has_decoy":false,"subject":"S1C1632","sona":"41616","block":1,"time":"2021-09-18T03:39:32.570Z"},{"rt":1752.2999999523163,"stimulus":"[A] option 1, [L] option 2, [G] neither","key_press":76,"name":"choice","trial_type":"html-keyboard-response","trial_index":48,"time_elapsed":233582,"internal_node_id":"0.0-48.0","response":"2nd","certainty":"high","char":"L","transposition":-1,"order":["swapped","shifted"],"probe_pitches":[10,12,8,12,4,0,3,1,4,3,9,4,12,10,1,6],"shifted_pitches":[10,12,8,12,4,0,3,1,5,3,9,4,12,10,1,6],"swapped_pitches":[10,12,8,12,4,0,3,4,1,3,9,4,12,10,1,6],"shift_direction":1,"question_num":31,"has_decoy":false,"subject":"S1C1632","sona":"41616","block":1,"time":"2021-09-18T03:39:32.570Z"},{"rt":4153,"stimulus":"[A] option 1, [L] option 2, [G] neither","key_press":71,"name":"choice","trial_type":"html-keyboard-response","trial_index":59,"time_elapsed":264362,"internal_node_id":"0.0-59.0","response":"neither","certainty":"high","char":"G","transposition":2,"order":["swapped","shifted"],"probe_pitches":[9,4,1,5,12,3,1,11,4,2,6,3,1,12,2,11],"shifted_pitches":[9,4,1,5,12,3,1,10,4,2,6,3,1,12,2,11],"swapped_pitches":[9,4,1,5,12,3,1,4,11,2,6,3,1,12,2,11],"shift_direction":-1,"question_num":41,"has_decoy":false,"subject":"S1C1632","sona":"41616","block":1,"time":"2021-09-18T03:39:32.570Z"},{"rt":2348.899999976158,"stimulus":"[A] option 1, [L] option 2, [G] neither","key_press":76,"name":"choice","trial_type":"html-keyboard-response","trial_index":70,"time_elapsed":290697,"internal_node_id":"0.0-70.0","response":"2nd","certainty":"high","char":"L","transposition":-2,"order":["swapped","shifted"],"probe_pitches":[5,9,5,-3,2,7,0,9,5,7,-3,9,2,0,5,7],"shifted_pitches":[5,9,5,-3,2,7,0,9,4,7,-3,9,2,0,5,7],"swapped_pitches":[5,9,5,-3,2,7,0,5,9,7,-3,9,2,0,5,7],"shift_direction":-1,"question_num":51,"has_decoy":false,"subject":"S1C1632","sona":"41616","block":1,"time":"2021-09-18T03:39:32.570Z"},{"rt":684.5999999642372,"stimulus":"[A] option 1, [L] option 2, [G] neither","key_press":76,"name":"choice","trial_type":"html-keyboard-response","trial_index":81,"time_elapsed":315262,"internal_node_id":"0.0-81.0","response":"2nd","certainty":"high","char":"L","transposition":-3,"order":["shifted","swapped"],"probe_pitches":[3,2,7,8,1,10,1,10,7,6,7,4,1,10,0,12],"shifted_pitches":[3,2,7,8,1,10,1,9,7,6,7,4,1,10,0,12],"swapped_pitches":[3,2,7,8,1,10,1,7,10,6,7,4,1,10,0,12],"shift_direction":-1,"question_num":61,"has_decoy":false,"subject":"S1C1632","sona":"41616","block":1,"time":"2021-09-18T03:39:32.570Z"},{"rt":1337.3999999761581,"stimulus":"[A] option 1, [L] option 2, [G] neither","key_press":76,"name":"choice","trial_type":"html-keyboard-response","trial_index":92,"time_elapsed":340136,"internal_node_id":"0.0-92.0","response":"2nd","certainty":"high","char":"L","transposition":3,"order":["shifted","swapped"],"probe_pitches":[12,9,5,12,4,5,3,8,11,3,8,0,11,12,0,1],"shifted_pitches":[12,9,5,12,4,5,3,7,11,3,8,0,11,12,0,1],"swapped_pitches":[12,9,5,12,4,5,3,11,8,3,8,0,11,12,0,1],"shift_direction":-1,"question_num":71,"has_decoy":false,"subject":"S1C1632","sona":"41616","block":1,"time":"2021-09-18T03:39:32.570Z"},{"rt":2432.099999964237,"stimulus":"[A] option 1, [L] option 2, [G] neither","key_press":71,"name":"choice","trial_type":"html-keyboard-response","trial_index":103,"time_elapsed":366425,"internal_node_id":"0.0-103.0","response":"neither","certainty":"high","char":"G","transposition":0,"order":["swapped","shifted"],"probe_pitches":[0,2,4,10,2,1,8,6,2,12,4,9,11,2,7,12],"shifted_pitches":[0,2,4,10,2,1,8,6,3,12,4,9,11,2,7,12],"swapped_pitches":[0,2,4,10,2,1,8,2,6,12,4,9,11,2,7,12],"shift_direction":1,"question_num":81,"has_decoy":false,"subject":"S1C1632","sona":"41616","block":1,"time":"2021-09-18T03:39:32.570Z"},{"rt":1713.800000011921,"stimulus":"[A] option 1, [L] option 2, [G] neither","key_press":76,"name":"choice","trial_type":"html-keyboard-response","trial_index":114,"time_elapsed":391295,"internal_node_id":"0.0-114.0","response":"2nd","certainty":"high","char":"L","transposition":0,"order":["swapped","shifted"],"probe_pitches":[4,6,9,6,9,1,6,-1,1,6,-3,9,6,1,-3,6],"shifted_pitches":[4,6,9,6,9,1,6,0,1,6,-3,9,6,1,-3,6],"swapped_pitches":[4,6,9,6,9,1,6,1,-1,6,-3,9,6,1,-3,6],"shift_direction":1,"question_num":91,"has_decoy":false,"subject":"S1C1632","sona":"41616","block":1,"time":"2021-09-18T03:39:32.570Z"},{"rt":1357.5999999642372,"stimulus":"[A] option 1, [L] option 2, [G] neither","key_press":76,"name":"choice","trial_type":"html-keyboard-response","trial_index":125,"time_elapsed":416528,"internal_node_id":"0.0-125.0","response":"2nd","certainty":"high","char":"L","transposition":1,"order":["swapped","shifted"],"probe_pitches":[7,9,7,4,7,4,2,7,0,9,-3,9,-3,7,-3,7],"shifted_pitches":[7,9,7,4,7,4,2,7,-1,9,-3,9,-3,7,-3,7],"swapped_pitches":[7,9,7,4,7,4,2,0,7,9,-3,9,-3,7,-3,7],"shift_direction":-1,"question_num":101,"has_decoy":false,"subject":"S1C1632","sona":"41616","block":1,"time":"2021-09-18T03:39:32.570Z"},{"rt":4009.699999988079,"stimulus":"[A] option 1, [L] option 2, [G] neither","key_press":65,"name":"choice","trial_type":"html-keyboard-response","trial_index":136,"time_elapsed":445017,"internal_node_id":"0.0-136.0","response":"1st","certainty":"high","char":"A","transposition":-3,"order":["shifted","swapped"],"probe_pitches":[7,5,0,5,7,5,9,-3,0,2,5,0,2,9,2,-3],"shifted_pitches":[7,5,0,5,7,5,9,-2,0,2,5,0,2,9,2,-3],"swapped_pitches":[7,5,0,5,7,5,9,0,-3,2,5,0,2,9,2,-3],"shift_direction":1,"question_num":111,"has_decoy":false,"subject":"S1C1632","sona":"41616","block":1,"time":"2021-09-18T03:39:32.570Z"},{"rt":1530.1000000238419,"stimulus":"[A] option 1, [L] option 2, [G] neither","key_press":65,"name":"choice","trial_type":"html-keyboard-response","trial_index":147,"time_elapsed":469273,"internal_node_id":"0.0-147.0","response":"1st","certainty":"high","char":"A","transposition":-3,"order":["shifted","swapped"],"probe_pitches":[9,7,2,-3,-1,7,4,-3,-1,2,9,2,7,2,-3,-1],"shifted_pitches":[9,7,2,-3,-1,7,4,-3,-2,2,9,2,7,2,-3,-1],"swapped_pitches":[9,7,2,-3,-1,7,4,-1,-3,2,9,2,7,2,-3,-1],"shift_direction":-1,"question_num":121,"has_decoy":false,"subject":"S1C1632","sona":"41616","block":1,"time":"2021-09-18T03:39:32.570Z"},{"rt":1743.199999988079,"stimulus":"[A] option 1, [L] option 2, [G] neither","key_press":65,"name":"choice","trial_type":"html-keyboard-response","trial_index":158,"time_elapsed":494327,"internal_node_id":"0.0-158.0","response":"1st","certainty":"high","char":"A","transposition":-1,"order":["shifted","swapped"],"probe_pitches":[4,2,9,2,4,6,4,-1,2,-3,6,4,9,-1,6,-1],"shifted_pitches":[4,2,9,2,4,6,4,-1,3,-3,6,4,9,-1,6,-1],"swapped_pitches":[4,2,9,2,4,6,4,2,-1,-3,6,4,9,-1,6,-1],"shift_direction":1,"question_num":131,"has_decoy":false,"subject":"S1C1632","sona":"41616","block":1,"time":"2021-09-18T03:39:32.570Z"},{"rt":1550.5,"stimulus":"[A] option 1, [L] option 2, [G] neither","key_press":71,"name":"choice","trial_type":"html-keyboard-response","trial_index":169,"time_elapsed":520505,"internal_node_id":"0.0-169.0","response":"neither","certainty":"high","char":"G","transposition":-2,"order":["shifted","swapped"],"probe_pitches":[11,10,9,6,4,1,10,9,7,0,4,11,12,6,0,10],"shifted_pitches":[11,10,9,6,4,1,10,9,8,0,4,11,12,6,0,10],"swapped_pitches":[11,10,9,6,4,1,10,7,9,0,4,11,12,6,0,10],"shift_direction":1,"question_num":141,"has_decoy":false,"subject":"S1C1632","sona":"41616","block":1,"time":"2021-09-18T03:39:32.570Z"},{"rt":1600.8999999761581,"stimulus":"[A] option 1, [L] option 2, [G] neither","key_press":71,"name":"choice","trial_type":"html-keyboard-response","trial_index":180,"time_elapsed":545431,"internal_node_id":"0.0-180.0","response":"neither","certainty":"high","char":"G","transposition":-1,"order":["swapped","shifted"],"probe_pitches":[5,11,10,3,11,9,1,4,3,7,10,5,11,6,9,11],"shifted_pitches":[5,11,10,3,11,9,1,4,2,7,10,5,11,6,9,11],"swapped_pitches":[5,11,10,3,11,9,1,3,4,7,10,5,11,6,9,11],"shift_direction":-1,"question_num":151,"has_decoy":false,"subject":"S1C1632","sona":"41616","block":1,"time":"2021-09-18T03:39:32.570Z"},{"rt":1541,"stimulus":"[A] option 1, [L] option 2, [G] neither","key_press":65,"name":"choice","trial_type":"html-keyboard-response","trial_index":191,"time_elapsed":569818,"internal_node_id":"0.0-191.0","response":"1st","certainty":"high","char":"A","transposition":-2,"order":["swapped","shifted"],"probe_pitches":[8,3,5,12,3,7,8,5,7,12,1,7,11,6,11,8],"shifted_pitches":[8,3,5,12,3,7,8,4,7,12,1,7,11,6,11,8],"swapped_pitches":[8,3,5,12,3,7,8,7,5,12,1,7,11,6,11,8],"shift_direction":-1,"question_num":161,"has_decoy":false,"subject":"S1C1632","sona":"41616","block":1,"time":"2021-09-18T03:39:32.570Z"},{"rt":3268,"stimulus":"[A] option 1, [L] option 2, [G] neither","key_press":76,"name":"choice","trial_type":"html-keyboard-response","trial_index":202,"time_elapsed":595778,"internal_node_id":"0.0-202.0","response":"2nd","certainty":"high","char":"L","transposition":-3,"order":["shifted","swapped"],"probe_pitches":[11,5,8,3,8,5,4,0,5,11,9,11,10,0,8,2],"shifted_pitches":[11,5,8,3,8,5,4,0,6,11,9,11,10,0,8,2],"swapped_pitches":[11,5,8,3,8,5,4,5,0,11,9,11,10,0,8,2],"shift_direction":1,"question_num":171,"has_decoy":false,"subject":"S1C1632","sona":"41616","block":1,"time":"2021-09-18T03:39:32.570Z"},{"rt":1639.5,"stimulus":"[A] option 1, [L] option 2, [G] neither","key_press":71,"name":"choice","trial_type":"html-keyboard-response","trial_index":213,"time_elapsed":620103,"internal_node_id":"0.0-213.0","response":"neither","certainty":"high","char":"G","transposition":-1,"order":["shifted","swapped"],"probe_pitches":[1,4,-1,-3,-1,-3,6,4,1,-1,6,-3,1,6,4,6],"shifted_pitches":[1,4,-1,-3,-1,-3,6,5,1,-1,6,-3,1,6,4,6],"swapped_pitches":[1,4,-1,-3,-1,-3,6,1,4,-1,6,-3,1,6,4,6],"shift_direction":1,"question_num":181,"has_decoy":false,"subject":"S1C1632","sona":"41616","block":1,"time":"2021-09-18T03:39:32.570Z"},{"rt":1156.699999988079,"stimulus":"[A] option 1, [L] option 2, [G] neither","key_press":76,"name":"choice","trial_type":"html-keyboard-response","trial_index":224,"time_elapsed":643761,"internal_node_id":"0.0-224.0","response":"2nd","certainty":"high","char":"L","transposition":2,"order":["swapped","shifted"],"probe_pitches":[7,9,4,-3,4,2,4,-1,2,-3,9,7,9,-3,7,4],"shifted_pitches":[7,9,4,-3,4,2,4,0,2,-3,9,7,9,-3,7,4],"swapped_pitches":[7,9,4,-3,4,2,4,2,-1,-3,9,7,9,-3,7,4],"shift_direction":1,"question_num":191,"has_decoy":false,"subject":"S1C1632","sona":"41616","block":1,"time":"2021-09-18T03:39:32.570Z"}]