[{"rt":1614.199999988079,"stimulus":"[A] option 1, [L] option 2, [G] neither","key_press":71,"name":"choice","trial_type":"html-keyboard-response","trial_index":10,"time_elapsed":24846,"internal_node_id":"0.0-10.0","subject":"S1C1632","sona":"41616","block":4,"time":"2021-09-18T04:06:12.058Z","response":"neither","certainty":"high","char":"G","transposition":-2,"order":["swapped","shifted"],"probe_pitches":[5,4,0,-1,8,5,-1,1,10,4,7,6,-2,10,7,9],"shifted_pitches":[5,4,0,-1,8,5,-1,2,10,4,7,6,-2,10,7,9],"swapped_pitches":[5,4,0,-1,8,5,-1,10,1,4,7,6,-2,10,7,9],"shift_direction":1,"question_num":1,"has_decoy":false},{"rt":1440.7000000476837,"stimulus":"[A] option 1, [L] option 2, [G] neither","key_press":71,"name":"choice","trial_type":"html-keyboard-response","trial_index":21,"time_elapsed":50151,"internal_node_id":"0.0-21.0","subject":"S1C1632","sona":"41616","block":4,"time":"2021-09-18T04:06:12.058Z","response":"neither","certainty":"high","char":"G","transposition":1,"order":["swapped","shifted"],"probe_pitches":[9,4,0,6,7,2,6,5,0,4,10,6,-2,7,4,-1],"shifted_pitches":[9,4,0,6,7,2,6,5,1,4,10,6,-2,7,4,-1],"swapped_pitches":[9,4,0,6,7,2,6,0,5,4,10,6,-2,7,4,-1],"shift_direction":1,"question_num":11,"has_decoy":false},{"rt":884.7999999523163,"stimulus":"[A] option 1, [L] option 2, [G] neither","key_press":71,"name":"choice","trial_type":"html-keyboard-response","trial_index":32,"time_elapsed":80888,"internal_node_id":"0.0-32.0","subject":"S1C1632","sona":"41616","block":4,"time":"2021-09-18T04:06:12.058Z","response":"neither","certainty":"high","char":"G","transposition":0,"order":["shifted","swapped"],"probe_pitches":[3,-2,1,0,5,0,1,7,3,8,9,8,-1,4,7,9],"shifted_pitches":[3,-2,1,0,5,0,1,6,3,8,9,8,-1,4,7,9],"swapped_pitches":[3,-2,1,0,5,0,1,3,7,8,9,8,-1,4,7,9],"shift_direction":-1,"question_num":21,"has_decoy":false},{"rt":547.5,"stimulus":"[A] option 1, [L] option 2, [G] neither","key_press":76,"name":"choice","trial_type":"html-keyboard-response","trial_index":43,"time_elapsed":104367,"internal_node_id":"0.0-43.0","subject":"S1C1632","sona":"41616","block":4,"time":"2021-09-18T04:06:12.058Z","response":"2nd","certainty":"high","char":"L","transposition":-2,"order":["swapped","shifted"],"probe_pitches":[12,7,14,7,10,12,14,10,12,14,5,14,5,2,14,5],"shifted_pitches":[12,7,14,7,10,12,14,10,13,14,5,14,5,2,14,5],"swapped_pitches":[12,7,14,7,10,12,14,12,10,14,5,14,5,2,14,5],"shift_direction":1,"question_num":31,"has_decoy":false},{"rt":659.5,"stimulus":"[A] option 1, [L] option 2, [G] neither","key_press":76,"name":"choice","trial_type":"html-keyboard-response","trial_index":54,"time_elapsed":127502,"internal_node_id":"0.0-54.0","subject":"S1C1632","sona":"41616","block":4,"time":"2021-09-18T04:06:12.058Z","response":"2nd","certainty":"high","char":"L","transposition":3,"order":["swapped","shifted"],"probe_pitches":[5,2,7,2,5,7,9,14,5,12,9,14,5,12,9,12],"shifted_pitches":[5,2,7,2,5,7,9,15,5,12,9,14,5,12,9,12],"swapped_pitches":[5,2,7,2,5,7,9,5,14,12,9,14,5,12,9,12],"shift_direction":1,"question_num":41,"has_decoy":false},{"rt":4933.099999964237,"stimulus":"[A] option 1, [L] option 2, [G] neither","key_press":71,"name":"choice","trial_type":"html-keyboard-response","trial_index":65,"time_elapsed":156066,"internal_node_id":"0.0-65.0","subject":"S1C1632","sona":"41616","block":4,"time":"2021-09-18T04:06:12.058Z","response":"neither","certainty":"high","char":"G","transposition":1,"order":["shifted","swapped"],"probe_pitches":[5,10,7,2,10,12,14,2,5,14,12,10,14,2,7,2],"shifted_pitches":[5,10,7,2,10,12,14,2,4,14,12,10,14,2,7,2],"swapped_pitches":[5,10,7,2,10,12,14,5,2,14,12,10,14,2,7,2],"shift_direction":-1,"question_num":51,"has_decoy":false},{"rt":3828.100000023842,"stimulus":"[A] option 1, [L] option 2, [G] neither","key_press":76,"name":"choice","trial_type":"html-keyboard-response","trial_index":76,"time_elapsed":184406,"internal_node_id":"0.0-76.0","subject":"S1C1632","sona":"41616","block":4,"time":"2021-09-18T04:06:12.058Z","response":"2nd","certainty":"high","char":"L","transposition":3,"order":["shifted","swapped"],"probe_pitches":[0,3,6,1,-2,8,2,6,1,4,-2,1,10,7,8,0],"shifted_pitches":[0,3,6,1,-2,8,2,5,1,4,-2,1,10,7,8,0],"swapped_pitches":[0,3,6,1,-2,8,2,1,6,4,-2,1,10,7,8,0],"shift_direction":-1,"question_num":61,"has_decoy":false},{"rt":1102.2999999523163,"stimulus":"[A] option 1, [L] option 2, [G] neither","key_press":65,"name":"choice","trial_type":"html-keyboard-response","trial_index":87,"time_elapsed":208729,"internal_node_id":"0.0-87.0","subject":"S1C1632","sona":"41616","block":4,"time":"2021-09-18T04:06:12.058Z","response":"1st","certainty":"high","char":"A","transposition":0,"order":["shifted","swapped"],"probe_pitches":[11,9,14,9,2,11,14,4,9,6,9,11,2,9,11,2],"shifted_pitches":[11,9,14,9,2,11,14,5,9,6,9,11,2,9,11,2],"swapped_pitches":[11,9,14,9,2,11,14,9,4,6,9,11,2,9,11,2],"shift_direction":1,"question_num":71,"has_decoy":false},{"rt":946.0999999642372,"stimulus":"[A] option 1, [L] option 2, [G] neither","key_press":65,"name":"choice","trial_type":"html-keyboard-response","trial_index":98,"time_elapsed":232163,"internal_node_id":"0.0-98.0","subject":"S1C1632","sona":"41616","block":4,"time":"2021-09-18T04:06:12.058Z","response":"1st","certainty":"high","char":"A","transposition":2,"order":["shifted","swapped"],"probe_pitches":[2,5,9,12,9,5,7,12,2,14,9,7,5,9,2,5],"shifted_pitches":[2,5,9,12,9,5,7,11,2,14,9,7,5,9,2,5],"swapped_pitches":[2,5,9,12,9,5,7,2,12,14,9,7,5,9,2,5],"shift_direction":-1,"question_num":81,"has_decoy":false},{"rt":2584.899999976158,"stimulus":"[A] option 1, [L] option 2, [G] neither","key_press":71,"name":"choice","trial_type":"html-keyboard-response","trial_index":109,"time_elapsed":261197,"internal_node_id":"0.0-109.0","subject":"S1C1632","sona":"41616","block":4,"time":"2021-09-18T04:06:12.058Z","response":"neither","certainty":"high","char":"G","transposition":-1,"order":["swapped","shifted"],"probe_pitches":[12,14,7,4,7,4,2,9,12,2,12,7,12,4,12,2],"shifted_pitches":[12,14,7,4,7,4,2,9,11,2,12,7,12,4,12,2],"swapped_pitches":[12,14,7,4,7,4,2,12,9,2,12,7,12,4,12,2],"shift_direction":-1,"question_num":91,"has_decoy":false},{"rt":2048.5,"stimulus":"[A] option 1, [L] option 2, [G] neither","key_press":76,"name":"choice","trial_type":"html-keyboard-response","trial_index":120,"time_elapsed":285745,"internal_node_id":"0.0-120.0","subject":"S1C1632","sona":"41616","block":4,"time":"2021-09-18T04:06:12.058Z","response":"2nd","certainty":"high","char":"L","transposition":-2,"order":["swapped","shifted"],"probe_pitches":[14,9,14,11,2,9,7,14,2,7,4,7,4,14,11,9],"shifted_pitches":[14,9,14,11,2,9,7,14,1,7,4,7,4,14,11,9],"swapped_pitches":[14,9,14,11,2,9,7,2,14,7,4,7,4,14,11,9],"shift_direction":-1,"question_num":101,"has_decoy":false},{"rt":2583.5,"stimulus":"[A] option 1, [L] option 2, [G] neither","key_press":71,"name":"choice","trial_type":"html-keyboard-response","trial_index":131,"time_elapsed":310971,"internal_node_id":"0.0-131.0","subject":"S1C1632","sona":"41616","block":4,"time":"2021-09-18T04:06:12.058Z","response":"neither","certainty":"high","char":"G","transposition":-3,"order":["shifted","swapped"],"probe_pitches":[7,12,9,4,9,4,7,2,4,12,14,2,4,9,4,12],"shifted_pitches":[7,12,9,4,9,4,7,1,4,12,14,2,4,9,4,12],"swapped_pitches":[7,12,9,4,9,4,7,4,2,12,14,2,4,9,4,12],"shift_direction":-1,"question_num":111,"has_decoy":false},{"rt":4860.399999976158,"stimulus":"[A] option 1, [L] option 2, [G] neither","key_press":65,"name":"choice","trial_type":"html-keyboard-response","trial_index":142,"time_elapsed":339004,"internal_node_id":"0.0-142.0","subject":"S1C1632","sona":"41616","block":4,"time":"2021-09-18T04:06:12.058Z","response":"1st","certainty":"high","char":"A","transposition":-2,"order":["swapped","shifted"],"probe_pitches":[1,4,-2,6,9,4,-2,9,-1,10,7,8,4,9,6,9],"shifted_pitches":[1,4,-2,6,9,4,-2,9,0,10,7,8,4,9,6,9],"swapped_pitches":[1,4,-2,6,9,4,-2,-1,9,10,7,8,4,9,6,9],"shift_direction":1,"question_num":121,"has_decoy":false},{"rt":1363.300000011921,"stimulus":"[A] option 1, [L] option 2, [G] neither","key_press":71,"name":"choice","trial_type":"html-keyboard-response","trial_index":153,"time_elapsed":363829,"internal_node_id":"0.0-153.0","subject":"S1C1632","sona":"41616","block":4,"time":"2021-09-18T04:06:12.058Z","response":"neither","certainty":"high","char":"G","transposition":-3,"order":["swapped","shifted"],"probe_pitches":[6,4,1,9,7,9,-1,6,4,8,9,7,2,6,-2,0],"shifted_pitches":[6,4,1,9,7,9,-1,6,3,8,9,7,2,6,-2,0],"swapped_pitches":[6,4,1,9,7,9,-1,4,6,8,9,7,2,6,-2,0],"shift_direction":-1,"question_num":131,"has_decoy":false},{"rt":515.4000000357628,"stimulus":"[A] option 1, [L] option 2, [G] neither","key_press":65,"name":"choice","trial_type":"html-keyboard-response","trial_index":164,"time_elapsed":386710,"internal_node_id":"0.0-164.0","subject":"S1C1632","sona":"41616","block":4,"time":"2021-09-18T04:06:12.058Z","response":"1st","certainty":"high","char":"A","transposition":-3,"order":["shifted","swapped"],"probe_pitches":[14,9,6,14,9,6,11,9,2,11,9,11,4,2,4,2],"shifted_pitches":[14,9,6,14,9,6,11,10,2,11,9,11,4,2,4,2],"swapped_pitches":[14,9,6,14,9,6,11,2,9,11,9,11,4,2,4,2],"shift_direction":1,"question_num":141,"has_decoy":false},{"rt":1103.9000000357628,"stimulus":"[A] option 1, [L] option 2, [G] neither","key_press":76,"name":"choice","trial_type":"html-keyboard-response","trial_index":175,"time_elapsed":410246,"internal_node_id":"0.0-175.0","subject":"S1C1632","sona":"41616","block":4,"time":"2021-09-18T04:06:12.058Z","response":"2nd","certainty":"high","char":"L","transposition":-1,"order":["shifted","swapped"],"probe_pitches":[1,4,-2,4,5,1,0,7,3,9,1,4,0,3,-1,1],"shifted_pitches":[1,4,-2,4,5,1,0,8,3,9,1,4,0,3,-1,1],"swapped_pitches":[1,4,-2,4,5,1,0,3,7,9,1,4,0,3,-1,1],"shift_direction":1,"question_num":151,"has_decoy":false},{"rt":464.4000000357628,"stimulus":"[A] option 1, [L] option 2, [G] neither","key_press":76,"name":"choice","trial_type":"html-keyboard-response","trial_index":186,"time_elapsed":433764,"internal_node_id":"0.0-186.0","subject":"S1C1632","sona":"41616","block":4,"time":"2021-09-18T04:06:12.058Z","response":"2nd","certainty":"high","char":"L","transposition":-1,"order":["swapped","shifted"],"probe_pitches":[2,7,9,2,9,14,7,4,11,14,11,7,14,9,4,11],"shifted_pitches":[2,7,9,2,9,14,7,4,12,14,11,7,14,9,4,11],"swapped_pitches":[2,7,9,2,9,14,7,11,4,14,11,7,14,9,4,11],"shift_direction":1,"question_num":161,"has_decoy":false},{"rt":583.4000000357628,"stimulus":"[A] option 1, [L] option 2, [G] neither","key_press":65,"name":"choice","trial_type":"html-keyboard-response","trial_index":197,"time_elapsed":456767,"internal_node_id":"0.0-197.0","subject":"S1C1632","sona":"41616","block":4,"time":"2021-09-18T04:06:12.058Z","response":"1st","certainty":"high","char":"A","transposition":2,"order":["shifted","swapped"],"probe_pitches":[10,8,5,3,8,5,-2,5,0,-2,10,3,0,-2,3,8],"shifted_pitches":[10,8,5,3,8,5,-2,4,0,-2,10,3,0,-2,3,8],"swapped_pitches":[10,8,5,3,8,5,-2,0,5,-2,10,3,0,-2,3,8],"shift_direction":-1,"question_num":171,"has_decoy":false},{"rt":465.19999998807907,"stimulus":"[A] option 1, [L] option 2, [G] neither","key_press":71,"name":"choice","trial_type":"html-keyboard-response","trial_index":208,"time_elapsed":479967,"internal_node_id":"0.0-208.0","subject":"S1C1632","sona":"41616","block":4,"time":"2021-09-18T04:06:12.058Z","response":"neither","certainty":"high","char":"G","transposition":-3,"order":["shifted","swapped"],"probe_pitches":[6,2,1,3,4,8,5,-2,6,-1,0,10,3,9,5,4],"shifted_pitches":[6,2,1,3,4,8,5,-2,7,-1,0,10,3,9,5,4],"swapped_pitches":[6,2,1,3,4,8,5,6,-2,-1,0,10,3,9,5,4],"shift_direction":1,"question_num":181,"has_decoy":false},{"rt":811.6000000238419,"stimulus":"[A] option 1, [L] option 2, [G] neither","key_press":76,"name":"choice","trial_type":"html-keyboard-response","trial_index":219,"time_elapsed":503162,"internal_node_id":"0.0-219.0","subject":"S1C1632","sona":"41616","block":4,"time":"2021-09-18T04:06:12.058Z","response":"2nd","certainty":"high","char":"L","transposition":-1,"order":["swapped","shifted"],"probe_pitches":[0,-1,2,7,3,2,3,-1,10,1,0,1,6,10,8,0],"shifted_pitches":[0,-1,2,7,3,2,3,-1,9,1,0,1,6,10,8,0],"swapped_pitches":[0,-1,2,7,3,2,3,10,-1,1,0,1,6,10,8,0],"shift_direction":-1,"question_num":191,"has_decoy":false}]