[{"rt":1408.300000011921,"stimulus":"[A] option 1, [L] option 2, [G] neither","key_press":65,"name":"choice","trial_type":"html-keyboard-response","trial_index":10,"time_elapsed":26680,"internal_node_id":"0.0-10.0","subject":"S1C1632","sona":"41616","block":2,"time":"2021-09-18T03:47:44.532Z","response":"1st","certainty":"high","char":"A","transposition":-1,"order":["shifted","swapped"],"probe_pitches":[15,13,10,3,8,3,10,6,13,3,13,3,10,3,6,3],"shifted_pitches":[15,13,10,3,8,3,10,7,13,3,13,3,10,3,6,3],"swapped_pitches":[15,13,10,3,8,3,10,13,6,3,13,3,10,3,6,3],"shift_direction":1,"question_num":1,"has_decoy":false},{"rt":2105.300000011921,"stimulus":"[A] option 1, [L] option 2, [G] neither","key_press":76,"name":"choice","trial_type":"html-keyboard-response","trial_index":21,"time_elapsed":51703,"internal_node_id":"0.0-21.0","subject":"S1C1632","sona":"41616","block":2,"time":"2021-09-18T03:47:44.532Z","response":"2nd","certainty":"high","char":"L","transposition":2,"order":["swapped","shifted"],"probe_pitches":[0,6,-1,2,7,2,5,4,8,0,6,10,8,4,7,0],"shifted_pitches":[0,6,-1,2,7,2,5,4,9,0,6,10,8,4,7,0],"swapped_pitches":[0,6,-1,2,7,2,5,8,4,0,6,10,8,4,7,0],"shift_direction":1,"question_num":11,"has_decoy":false},{"rt":588.3000000119209,"stimulus":"[A] option 1, [L] option 2, [G] neither","key_press":76,"name":"choice","trial_type":"html-keyboard-response","trial_index":32,"time_elapsed":74819,"internal_node_id":"0.0-32.0","subject":"S1C1632","sona":"41616","block":2,"time":"2021-09-18T03:47:44.532Z","response":"2nd","certainty":"high","char":"L","transposition":1,"order":["swapped","shifted"],"probe_pitches":[15,12,10,15,10,7,12,3,7,10,12,3,5,15,12,15],"shifted_pitches":[15,12,10,15,10,7,12,3,6,10,12,3,5,15,12,15],"swapped_pitches":[15,12,10,15,10,7,12,7,3,10,12,3,5,15,12,15],"shift_direction":-1,"question_num":21,"has_decoy":false},{"rt":1240.300000011921,"stimulus":"[A] option 1, [L] option 2, [G] neither","key_press":76,"name":"choice","trial_type":"html-keyboard-response","trial_index":43,"time_elapsed":98523,"internal_node_id":"0.0-43.0","subject":"S1C1632","sona":"41616","block":2,"time":"2021-09-18T03:47:44.532Z","response":"2nd","certainty":"high","char":"L","transposition":-3,"order":["shifted","swapped"],"probe_pitches":[7,10,3,0,4,3,10,9,-2,6,0,10,7,4,6,2],"shifted_pitches":[7,10,3,0,4,3,10,8,-2,6,0,10,7,4,6,2],"swapped_pitches":[7,10,3,0,4,3,10,-2,9,6,0,10,7,4,6,2],"shift_direction":-1,"question_num":31,"has_decoy":false},{"rt":1393.3999999761581,"stimulus":"[A] option 1, [L] option 2, [G] neither","key_press":76,"name":"choice","trial_type":"html-keyboard-response","trial_index":54,"time_elapsed":123894,"internal_node_id":"0.0-54.0","subject":"S1C1632","sona":"41616","block":2,"time":"2021-09-18T03:47:44.532Z","response":"2nd","certainty":"high","char":"L","transposition":-2,"order":["swapped","shifted"],"probe_pitches":[10,5,-1,1,8,7,4,10,1,-1,4,9,1,10,7,1],"shifted_pitches":[10,5,-1,1,8,7,4,10,0,-1,4,9,1,10,7,1],"swapped_pitches":[10,5,-1,1,8,7,4,1,10,-1,4,9,1,10,7,1],"shift_direction":-1,"question_num":41,"has_decoy":false},{"rt":1903.4000000357628,"stimulus":"[A] option 1, [L] option 2, [G] neither","key_press":71,"name":"choice","trial_type":"html-keyboard-response","trial_index":65,"time_elapsed":148858,"internal_node_id":"0.0-65.0","subject":"S1C1632","sona":"41616","block":2,"time":"2021-09-18T03:47:44.532Z","response":"neither","certainty":"high","char":"G","transposition":-2,"order":["shifted","swapped"],"probe_pitches":[7,9,6,10,7,1,6,3,5,8,3,-1,2,7,5,-2],"shifted_pitches":[7,9,6,10,7,1,6,3,4,8,3,-1,2,7,5,-2],"swapped_pitches":[7,9,6,10,7,1,6,5,3,8,3,-1,2,7,5,-2],"shift_direction":-1,"question_num":51,"has_decoy":false},{"rt":1339,"stimulus":"[A] option 1, [L] option 2, [G] neither","key_press":76,"name":"choice","trial_type":"html-keyboard-response","trial_index":76,"time_elapsed":172875,"internal_node_id":"0.0-76.0","subject":"S1C1632","sona":"41616","block":2,"time":"2021-09-18T03:47:44.532Z","response":"2nd","certainty":"high","char":"L","transposition":1,"order":["swapped","shifted"],"probe_pitches":[1,-1,4,9,6,2,10,2,6,7,10,1,7,6,10,6],"shifted_pitches":[1,-1,4,9,6,2,10,3,6,7,10,1,7,6,10,6],"swapped_pitches":[1,-1,4,9,6,2,10,6,2,7,10,1,7,6,10,6],"shift_direction":1,"question_num":61,"has_decoy":false},{"rt":1379.5,"stimulus":"[A] option 1, [L] option 2, [G] neither","key_press":71,"name":"choice","trial_type":"html-keyboard-response","trial_index":87,"time_elapsed":197824,"internal_node_id":"0.0-87.0","subject":"S1C1632","sona":"41616","block":2,"time":"2021-09-18T03:47:44.532Z","response":"neither","certainty":"high","char":"G","transposition":-1,"order":["shifted","swapped"],"probe_pitches":[7,2,-2,-1,2,-1,6,2,0,9,5,6,-2,5,9,8],"shifted_pitches":[7,2,-2,-1,2,-1,6,1,0,9,5,6,-2,5,9,8],"swapped_pitches":[7,2,-2,-1,2,-1,6,0,2,9,5,6,-2,5,9,8],"shift_direction":-1,"question_num":71,"has_decoy":false},{"rt":962.8999999761581,"stimulus":"[A] option 1, [L] option 2, [G] neither","key_press":71,"name":"choice","trial_type":"html-keyboard-response","trial_index":98,"time_elapsed":221264,"internal_node_id":"0.0-98.0","subject":"S1C1632","sona":"41616","block":2,"time":"2021-09-18T03:47:44.532Z","response":"neither","certainty":"high","char":"G","transposition":0,"order":["shifted","swapped"],"probe_pitches":[8,7,9,6,0,6,8,-2,1,3,6,5,4,6,10,-1],"shifted_pitches":[8,7,9,6,0,6,8,-2,2,3,6,5,4,6,10,-1],"swapped_pitches":[8,7,9,6,0,6,8,1,-2,3,6,5,4,6,10,-1],"shift_direction":1,"question_num":81,"has_decoy":false},{"rt":1907,"stimulus":"[A] option 1, [L] option 2, [G] neither","key_press":71,"name":"choice","trial_type":"html-keyboard-response","trial_index":109,"time_elapsed":246904,"internal_node_id":"0.0-109.0","subject":"S1C1632","sona":"41616","block":2,"time":"2021-09-18T03:47:44.532Z","response":"neither","certainty":"high","char":"G","transposition":-1,"order":["shifted","swapped"],"probe_pitches":[0,4,8,7,3,5,1,5,8,-2,1,4,-1,-2,10,1],"shifted_pitches":[0,4,8,7,3,5,1,6,8,-2,1,4,-1,-2,10,1],"swapped_pitches":[0,4,8,7,3,5,1,8,5,-2,1,4,-1,-2,10,1],"shift_direction":1,"question_num":91,"has_decoy":false},{"rt":3785.100000023842,"stimulus":"[A] option 1, [L] option 2, [G] neither","key_press":71,"name":"choice","trial_type":"html-keyboard-response","trial_index":120,"time_elapsed":273751,"internal_node_id":"0.0-120.0","subject":"S1C1632","sona":"41616","block":2,"time":"2021-09-18T03:47:44.532Z","response":"neither","certainty":"high","char":"G","transposition":-1,"order":["shifted","swapped"],"probe_pitches":[5,8,12,10,3,10,12,10,3,8,10,5,8,12,8,10],"shifted_pitches":[5,8,12,10,3,10,12,10,4,8,10,5,8,12,8,10],"swapped_pitches":[5,8,12,10,3,10,12,3,10,8,10,5,8,12,8,10],"shift_direction":1,"question_num":101,"has_decoy":false},{"rt":1663.800000011921,"stimulus":"[A] option 1, [L] option 2, [G] neither","key_press":65,"name":"choice","trial_type":"html-keyboard-response","trial_index":131,"time_elapsed":299703,"internal_node_id":"0.0-131.0","subject":"S1C1632","sona":"41616","block":2,"time":"2021-09-18T03:47:44.532Z","response":"1st","certainty":"high","char":"A","transposition":-2,"order":["shifted","swapped"],"probe_pitches":[5,10,8,3,8,15,12,3,5,10,3,8,5,15,8,5],"shifted_pitches":[5,10,8,3,8,15,12,3,4,10,3,8,5,15,8,5],"swapped_pitches":[5,10,8,3,8,15,12,5,3,10,3,8,5,15,8,5],"shift_direction":-1,"question_num":111,"has_decoy":false},{"rt":931.0999999642372,"stimulus":"[A] option 1, [L] option 2, [G] neither","key_press":76,"name":"choice","trial_type":"html-keyboard-response","trial_index":142,"time_elapsed":323667,"internal_node_id":"0.0-142.0","subject":"S1C1632","sona":"41616","block":2,"time":"2021-09-18T03:47:44.532Z","response":"2nd","certainty":"high","char":"L","transposition":0,"order":["shifted","swapped"],"probe_pitches":[3,8,10,15,13,3,13,15,8,3,15,10,13,10,5,8],"shifted_pitches":[3,8,10,15,13,3,13,15,7,3,15,10,13,10,5,8],"swapped_pitches":[3,8,10,15,13,3,13,8,15,3,15,10,13,10,5,8],"shift_direction":-1,"question_num":121,"has_decoy":false},{"rt":517.2999999523163,"stimulus":"[A] option 1, [L] option 2, [G] neither","key_press":76,"name":"choice","trial_type":"html-keyboard-response","trial_index":153,"time_elapsed":347735,"internal_node_id":"0.0-153.0","subject":"S1C1632","sona":"41616","block":2,"time":"2021-09-18T03:47:44.532Z","response":"2nd","certainty":"high","char":"L","transposition":-2,"order":["swapped","shifted"],"probe_pitches":[6,3,8,11,6,8,6,8,3,11,3,13,11,15,6,13],"shifted_pitches":[6,3,8,11,6,8,6,7,3,11,3,13,11,15,6,13],"swapped_pitches":[6,3,8,11,6,8,6,3,8,11,3,13,11,15,6,13],"shift_direction":-1,"question_num":131,"has_decoy":false},{"rt":1336.5,"stimulus":"[A] option 1, [L] option 2, [G] neither","key_press":71,"name":"choice","trial_type":"html-keyboard-response","trial_index":164,"time_elapsed":371507,"internal_node_id":"0.0-164.0","subject":"S1C1632","sona":"41616","block":2,"time":"2021-09-18T03:47:44.532Z","response":"neither","certainty":"high","char":"G","transposition":3,"order":["swapped","shifted"],"probe_pitches":[1,-2,3,1,8,0,6,9,4,1,7,0,6,2,3,-1],"shifted_pitches":[1,-2,3,1,8,0,6,9,5,1,7,0,6,2,3,-1],"swapped_pitches":[1,-2,3,1,8,0,6,4,9,1,7,0,6,2,3,-1],"shift_direction":1,"question_num":141,"has_decoy":false},{"rt":883.2999999523163,"stimulus":"[A] option 1, [L] option 2, [G] neither","key_press":76,"name":"choice","trial_type":"html-keyboard-response","trial_index":175,"time_elapsed":394869,"internal_node_id":"0.0-175.0","subject":"S1C1632","sona":"41616","block":2,"time":"2021-09-18T03:47:44.532Z","response":"2nd","certainty":"high","char":"L","transposition":-3,"order":["swapped","shifted"],"probe_pitches":[0,6,1,5,2,9,1,8,2,9,2,1,-1,5,8,10],"shifted_pitches":[0,6,1,5,2,9,1,7,2,9,2,1,-1,5,8,10],"swapped_pitches":[0,6,1,5,2,9,1,2,8,9,2,1,-1,5,8,10],"shift_direction":-1,"question_num":151,"has_decoy":false},{"rt":518.5,"stimulus":"[A] option 1, [L] option 2, [G] neither","key_press":76,"name":"choice","trial_type":"html-keyboard-response","trial_index":186,"time_elapsed":418043,"internal_node_id":"0.0-186.0","subject":"S1C1632","sona":"41616","block":2,"time":"2021-09-18T03:47:44.532Z","response":"2nd","certainty":"high","char":"L","transposition":3,"order":["swapped","shifted"],"probe_pitches":[10,7,12,5,7,3,7,3,5,10,7,15,3,7,12,5],"shifted_pitches":[10,7,12,5,7,3,7,2,5,10,7,15,3,7,12,5],"swapped_pitches":[10,7,12,5,7,3,7,5,3,10,7,15,3,7,12,5],"shift_direction":-1,"question_num":161,"has_decoy":false},{"rt":801.6999999880791,"stimulus":"[A] option 1, [L] option 2, [G] neither","key_press":76,"name":"choice","trial_type":"html-keyboard-response","trial_index":197,"time_elapsed":441267,"internal_node_id":"0.0-197.0","subject":"S1C1632","sona":"41616","block":2,"time":"2021-09-18T03:47:44.532Z","response":"2nd","certainty":"high","char":"L","transposition":-3,"order":["shifted","swapped"],"probe_pitches":[3,5,8,15,13,5,15,8,10,3,15,5,10,15,3,10],"shifted_pitches":[3,5,8,15,13,5,15,9,10,3,15,5,10,15,3,10],"swapped_pitches":[3,5,8,15,13,5,15,10,8,3,15,5,10,15,3,10],"shift_direction":1,"question_num":171,"has_decoy":false},{"rt":553,"stimulus":"[A] option 1, [L] option 2, [G] neither","key_press":76,"name":"choice","trial_type":"html-keyboard-response","trial_index":208,"time_elapsed":464256,"internal_node_id":"0.0-208.0","subject":"S1C1632","sona":"41616","block":2,"time":"2021-09-18T03:47:44.532Z","response":"2nd","certainty":"high","char":"L","transposition":-3,"order":["swapped","shifted"],"probe_pitches":[6,8,3,8,13,6,10,13,6,3,10,15,10,3,8,13],"shifted_pitches":[6,8,3,8,13,6,10,14,6,3,10,15,10,3,8,13],"swapped_pitches":[6,8,3,8,13,6,10,6,13,3,10,15,10,3,8,13],"shift_direction":1,"question_num":181,"has_decoy":false},{"rt":1746.3999999761581,"stimulus":"[A] option 1, [L] option 2, [G] neither","key_press":76,"name":"choice","trial_type":"html-keyboard-response","trial_index":219,"time_elapsed":488466,"internal_node_id":"0.0-219.0","subject":"S1C1632","sona":"41616","block":2,"time":"2021-09-18T03:47:44.532Z","response":"2nd","certainty":"high","char":"L","transposition":2,"order":["swapped","shifted"],"probe_pitches":[13,11,13,8,15,6,8,6,3,11,13,11,13,3,11,15],"shifted_pitches":[13,11,13,8,15,6,8,6,4,11,13,11,13,3,11,15],"swapped_pitches":[13,11,13,8,15,6,8,3,6,11,13,11,13,3,11,15],"shift_direction":1,"question_num":191,"has_decoy":false}]