[{"rt":598.1999999880791,"stimulus":"[A] option 1, [L] option 2, [G] neither","key_press":71,"name":"choice","trial_type":"html-keyboard-response","trial_index":10,"time_elapsed":24116,"internal_node_id":"0.0-10.0","subject":"S1C1632","sona":"41616","block":3,"time":"2021-09-18T03:57:45.273Z","response":"neither","certainty":"high","char":"G","transposition":2,"order":["shifted","swapped"],"probe_pitches":[-2,0,3,7,10,7,-2,3,0,7,3,10,7,0,5,3],"shifted_pitches":[-2,0,3,7,10,7,-2,2,0,7,3,10,7,0,5,3],"swapped_pitches":[-2,0,3,7,10,7,-2,0,3,7,3,10,7,0,5,3],"shift_direction":-1,"question_num":1,"has_decoy":false},{"rt":1415.4000000357628,"stimulus":"[A] option 1, [L] option 2, [G] neither","key_press":76,"name":"choice","trial_type":"html-keyboard-response","trial_index":21,"time_elapsed":48089,"internal_node_id":"0.0-21.0","subject":"S1C1632","sona":"41616","block":3,"time":"2021-09-18T03:57:45.273Z","response":"2nd","certainty":"high","char":"L","transposition":-1,"order":["swapped","shifted"],"probe_pitches":[8,3,8,3,-2,5,10,-2,1,8,5,3,1,-2,10,1],"shifted_pitches":[8,3,8,3,-2,5,10,-1,1,8,5,3,1,-2,10,1],"swapped_pitches":[8,3,8,3,-2,5,10,1,-2,8,5,3,1,-2,10,1],"shift_direction":1,"question_num":11,"has_decoy":false},{"rt":5307.899999976158,"stimulus":"[A] option 1, [L] option 2, [G] neither","key_press":71,"name":"choice","trial_type":"html-keyboard-response","trial_index":32,"time_elapsed":75867,"internal_node_id":"0.0-32.0","subject":"S1C1632","sona":"41616","block":3,"time":"2021-09-18T03:57:45.273Z","response":"neither","certainty":"high","char":"G","transposition":1,"order":["shifted","swapped"],"probe_pitches":[-2,1,-2,3,6,3,10,-2,1,8,10,-2,8,6,8,-2],"shifted_pitches":[-2,1,-2,3,6,3,10,-2,2,8,10,-2,8,6,8,-2],"swapped_pitches":[-2,1,-2,3,6,3,10,1,-2,8,10,-2,8,6,8,-2],"shift_direction":1,"question_num":21,"has_decoy":false},{"rt":956.3999999761581,"stimulus":"[A] option 1, [L] option 2, [G] neither","key_press":71,"name":"choice","trial_type":"html-keyboard-response","trial_index":43,"time_elapsed":100104,"internal_node_id":"0.0-43.0","subject":"S1C1632","sona":"41616","block":3,"time":"2021-09-18T03:57:45.273Z","response":"neither","certainty":"high","char":"G","transposition":-3,"order":["shifted","swapped"],"probe_pitches":[1,6,1,-2,3,-3,7,4,-1,1,-2,8,7,-2,4,7],"shifted_pitches":[1,6,1,-2,3,-3,7,4,0,1,-2,8,7,-2,4,7],"swapped_pitches":[1,6,1,-2,3,-3,7,-1,4,1,-2,8,7,-2,4,7],"shift_direction":1,"question_num":31,"has_decoy":false},{"rt":626.7000000476837,"stimulus":"[A] option 1, [L] option 2, [G] neither","key_press":76,"name":"choice","trial_type":"html-keyboard-response","trial_index":54,"time_elapsed":123509,"internal_node_id":"0.0-54.0","subject":"S1C1632","sona":"41616","block":3,"time":"2021-09-18T03:57:45.273Z","response":"2nd","certainty":"high","char":"L","transposition":-3,"order":["swapped","shifted"],"probe_pitches":[6,10,8,1,10,3,-2,8,10,6,-2,6,-2,3,1,6],"shifted_pitches":[6,10,8,1,10,3,-2,9,10,6,-2,6,-2,3,1,6],"swapped_pitches":[6,10,8,1,10,3,-2,10,8,6,-2,6,-2,3,1,6],"shift_direction":1,"question_num":41,"has_decoy":false},{"rt":473.19999998807907,"stimulus":"[A] option 1, [L] option 2, [G] neither","key_press":65,"name":"choice","trial_type":"html-keyboard-response","trial_index":65,"time_elapsed":146384,"internal_node_id":"0.0-65.0","subject":"S1C1632","sona":"41616","block":3,"time":"2021-09-18T03:57:45.273Z","response":"1st","certainty":"high","char":"A","transposition":-3,"order":["shifted","swapped"],"probe_pitches":[3,-2,5,10,1,8,10,-2,5,8,10,5,3,10,8,10],"shifted_pitches":[3,-2,5,10,1,8,10,-2,4,8,10,5,3,10,8,10],"swapped_pitches":[3,-2,5,10,1,8,10,5,-2,8,10,5,3,10,8,10],"shift_direction":-1,"question_num":51,"has_decoy":false},{"rt":656.1999999880791,"stimulus":"[A] option 1, [L] option 2, [G] neither","key_press":76,"name":"choice","trial_type":"html-keyboard-response","trial_index":76,"time_elapsed":169595,"internal_node_id":"0.0-76.0","subject":"S1C1632","sona":"41616","block":3,"time":"2021-09-18T03:57:45.273Z","response":"2nd","certainty":"high","char":"L","transposition":2,"order":["swapped","shifted"],"probe_pitches":[3,6,9,6,3,-3,5,9,-3,-1,1,0,5,3,4,0],"shifted_pitches":[3,6,9,6,3,-3,5,9,-4,-1,1,0,5,3,4,0],"swapped_pitches":[3,6,9,6,3,-3,5,-3,9,-1,1,0,5,3,4,0],"shift_direction":-1,"question_num":61,"has_decoy":false},{"rt":2432.599999964237,"stimulus":"[A] option 1, [L] option 2, [G] neither","key_press":76,"name":"choice","trial_type":"html-keyboard-response","trial_index":87,"time_elapsed":194609,"internal_node_id":"0.0-87.0","subject":"S1C1632","sona":"41616","block":3,"time":"2021-09-18T03:57:45.273Z","response":"2nd","certainty":"high","char":"L","transposition":1,"order":["shifted","swapped"],"probe_pitches":[9,4,-2,4,0,4,7,4,6,5,-1,6,0,8,6,-2],"shifted_pitches":[9,4,-2,4,0,4,7,3,6,5,-1,6,0,8,6,-2],"swapped_pitches":[9,4,-2,4,0,4,7,6,4,5,-1,6,0,8,6,-2],"shift_direction":-1,"question_num":71,"has_decoy":false},{"rt":468.39999997615814,"stimulus":"[A] option 1, [L] option 2, [G] neither","key_press":76,"name":"choice","trial_type":"html-keyboard-response","trial_index":98,"time_elapsed":217497,"internal_node_id":"0.0-98.0","subject":"S1C1632","sona":"41616","block":3,"time":"2021-09-18T03:57:45.273Z","response":"2nd","certainty":"high","char":"L","transposition":0,"order":["swapped","shifted"],"probe_pitches":[2,-2,0,7,2,0,2,5,0,-2,0,10,-2,7,2,7],"shifted_pitches":[2,-2,0,7,2,0,2,4,0,-2,0,10,-2,7,2,7],"swapped_pitches":[2,-2,0,7,2,0,2,0,5,-2,0,10,-2,7,2,7],"shift_direction":-1,"question_num":81,"has_decoy":false},{"rt":567.8999999761581,"stimulus":"[A] option 1, [L] option 2, [G] neither","key_press":71,"name":"choice","trial_type":"html-keyboard-response","trial_index":109,"time_elapsed":240504,"internal_node_id":"0.0-109.0","subject":"S1C1632","sona":"41616","block":3,"time":"2021-09-18T03:57:45.273Z","response":"neither","certainty":"high","char":"G","transposition":-1,"order":["swapped","shifted"],"probe_pitches":[1,3,0,-2,6,-2,-3,5,9,-3,2,1,-1,2,7,-2],"shifted_pitches":[1,3,0,-2,6,-2,-3,4,9,-3,2,1,-1,2,7,-2],"swapped_pitches":[1,3,0,-2,6,-2,-3,9,5,-3,2,1,-1,2,7,-2],"shift_direction":-1,"question_num":91,"has_decoy":false},{"rt":4476.100000023842,"stimulus":"[A] option 1, [L] option 2, [G] neither","key_press":71,"name":"choice","trial_type":"html-keyboard-response","trial_index":120,"time_elapsed":267400,"internal_node_id":"0.0-120.0","subject":"S1C1632","sona":"41616","block":3,"time":"2021-09-18T03:57:45.273Z","response":"neither","certainty":"high","char":"G","transposition":-2,"order":["shifted","swapped"],"probe_pitches":[2,5,10,7,-2,0,10,7,0,-2,5,-2,0,5,2,0],"shifted_pitches":[2,5,10,7,-2,0,10,7,-1,-2,5,-2,0,5,2,0],"swapped_pitches":[2,5,10,7,-2,0,10,0,7,-2,5,-2,0,5,2,0],"shift_direction":-1,"question_num":101,"has_decoy":false},{"rt":881.6999999880791,"stimulus":"[A] option 1, [L] option 2, [G] neither","key_press":71,"name":"choice","trial_type":"html-keyboard-response","trial_index":131,"time_elapsed":291010,"internal_node_id":"0.0-131.0","subject":"S1C1632","sona":"41616","block":3,"time":"2021-09-18T03:57:45.273Z","response":"neither","certainty":"high","char":"G","transposition":-1,"order":["swapped","shifted"],"probe_pitches":[-1,-3,1,5,-1,3,4,3,8,4,3,7,4,-3,7,8],"shifted_pitches":[-1,-3,1,5,-1,3,4,2,8,4,3,7,4,-3,7,8],"swapped_pitches":[-1,-3,1,5,-1,3,4,8,3,4,3,7,4,-3,7,8],"shift_direction":-1,"question_num":111,"has_decoy":false},{"rt":418.5,"stimulus":"[A] option 1, [L] option 2, [G] neither","key_press":71,"name":"choice","trial_type":"html-keyboard-response","trial_index":142,"time_elapsed":313934,"internal_node_id":"0.0-142.0","subject":"S1C1632","sona":"41616","block":3,"time":"2021-09-18T03:57:45.273Z","response":"neither","certainty":"high","char":"G","transposition":-1,"order":["shifted","swapped"],"probe_pitches":[3,0,-2,3,-2,5,3,10,-2,8,3,-2,0,8,0,10],"shifted_pitches":[3,0,-2,3,-2,5,3,10,-1,8,3,-2,0,8,0,10],"swapped_pitches":[3,0,-2,3,-2,5,3,-2,10,8,3,-2,0,8,0,10],"shift_direction":1,"question_num":121,"has_decoy":false},{"rt":1978.6000000238419,"stimulus":"[A] option 1, [L] option 2, [G] neither","key_press":65,"name":"choice","trial_type":"html-keyboard-response","trial_index":153,"time_elapsed":338279,"internal_node_id":"0.0-153.0","subject":"S1C1632","sona":"41616","block":3,"time":"2021-09-18T03:57:45.273Z","response":"1st","certainty":"high","char":"A","transposition":-2,"order":["shifted","swapped"],"probe_pitches":[4,5,7,9,0,-3,7,4,0,2,9,7,-2,4,-1,4],"shifted_pitches":[4,5,7,9,0,-3,7,4,1,2,9,7,-2,4,-1,4],"swapped_pitches":[4,5,7,9,0,-3,7,0,4,2,9,7,-2,4,-1,4],"shift_direction":1,"question_num":131,"has_decoy":false},{"rt":612.3999999761581,"stimulus":"[A] option 1, [L] option 2, [G] neither","key_press":76,"name":"choice","trial_type":"html-keyboard-response","trial_index":164,"time_elapsed":361447,"internal_node_id":"0.0-164.0","subject":"S1C1632","sona":"41616","block":3,"time":"2021-09-18T03:57:45.273Z","response":"2nd","certainty":"high","char":"L","transposition":-2,"order":["swapped","shifted"],"probe_pitches":[10,5,10,5,-2,7,5,7,10,5,3,-2,0,10,7,0],"shifted_pitches":[10,5,10,5,-2,7,5,6,10,5,3,-2,0,10,7,0],"swapped_pitches":[10,5,10,5,-2,7,5,10,7,5,3,-2,0,10,7,0],"shift_direction":-1,"question_num":141,"has_decoy":false},{"rt":1980.800000011921,"stimulus":"[A] option 1, [L] option 2, [G] neither","key_press":71,"name":"choice","trial_type":"html-keyboard-response","trial_index":175,"time_elapsed":385954,"internal_node_id":"0.0-175.0","subject":"S1C1632","sona":"41616","block":3,"time":"2021-09-18T03:57:45.273Z","response":"neither","certainty":"high","char":"G","transposition":-3,"order":["shifted","swapped"],"probe_pitches":[3,-2,4,2,3,-2,9,6,4,7,9,-3,8,9,-1,6],"shifted_pitches":[3,-2,4,2,3,-2,9,6,5,7,9,-3,8,9,-1,6],"swapped_pitches":[3,-2,4,2,3,-2,9,4,6,7,9,-3,8,9,-1,6],"shift_direction":1,"question_num":151,"has_decoy":false},{"rt":1279.3999999761581,"stimulus":"[A] option 1, [L] option 2, [G] neither","key_press":71,"name":"choice","trial_type":"html-keyboard-response","trial_index":186,"time_elapsed":409903,"internal_node_id":"0.0-186.0","subject":"S1C1632","sona":"41616","block":3,"time":"2021-09-18T03:57:45.273Z","response":"neither","certainty":"high","char":"G","transposition":-2,"order":["shifted","swapped"],"probe_pitches":[6,5,8,5,8,-2,2,-2,9,5,0,1,-2,6,0,4],"shifted_pitches":[6,5,8,5,8,-2,2,-1,9,5,0,1,-2,6,0,4],"swapped_pitches":[6,5,8,5,8,-2,2,9,-2,5,0,1,-2,6,0,4],"shift_direction":1,"question_num":161,"has_decoy":false},{"rt":991.5,"stimulus":"[A] option 1, [L] option 2, [G] neither","key_press":71,"name":"choice","trial_type":"html-keyboard-response","trial_index":197,"time_elapsed":433680,"internal_node_id":"0.0-197.0","subject":"S1C1632","sona":"41616","block":3,"time":"2021-09-18T03:57:45.273Z","response":"neither","certainty":"high","char":"G","transposition":0,"order":["swapped","shifted"],"probe_pitches":[0,5,-1,4,0,4,1,8,6,0,-2,8,4,5,6,2],"shifted_pitches":[0,5,-1,4,0,4,1,7,6,0,-2,8,4,5,6,2],"swapped_pitches":[0,5,-1,4,0,4,1,6,8,0,-2,8,4,5,6,2],"shift_direction":-1,"question_num":171,"has_decoy":false},{"rt":1990.800000011921,"stimulus":"[A] option 1, [L] option 2, [G] neither","key_press":71,"name":"choice","trial_type":"html-keyboard-response","trial_index":208,"time_elapsed":458657,"internal_node_id":"0.0-208.0","subject":"S1C1632","sona":"41616","block":3,"time":"2021-09-18T03:57:45.273Z","response":"neither","certainty":"high","char":"G","transposition":3,"order":["swapped","shifted"],"probe_pitches":[7,2,-3,0,-1,1,4,-3,5,2,-3,3,9,1,-1,9],"shifted_pitches":[7,2,-3,0,-1,1,4,-3,6,2,-3,3,9,1,-1,9],"swapped_pitches":[7,2,-3,0,-1,1,4,5,-3,2,-3,3,9,1,-1,9],"shift_direction":1,"question_num":181,"has_decoy":false},{"rt":634.3999999761581,"stimulus":"[A] option 1, [L] option 2, [G] neither","key_press":76,"name":"choice","trial_type":"html-keyboard-response","trial_index":219,"time_elapsed":481771,"internal_node_id":"0.0-219.0","subject":"S1C1632","sona":"41616","block":3,"time":"2021-09-18T03:57:45.273Z","response":"2nd","certainty":"high","char":"L","transposition":3,"order":["swapped","shifted"],"probe_pitches":[3,8,10,8,10,5,8,10,-2,5,0,-2,10,-2,10,3],"shifted_pitches":[3,8,10,8,10,5,8,10,-1,5,0,-2,10,-2,10,3],"swapped_pitches":[3,8,10,8,10,5,8,-2,10,5,0,-2,10,-2,10,3],"shift_direction":1,"question_num":191,"has_decoy":false}]