[{"rt":755.5999999642372,"stimulus":"[A] option 1, [L] option 2, [G] neither","key_press":71,"name":"choice","trial_type":"html-keyboard-response","trial_index":10,"time_elapsed":23025,"internal_node_id":"0.0-10.0","subject":"S1C1632","sona":"41616","block":5,"time":"2021-09-18T04:14:16.432Z","response":"neither","certainty":"high","char":"G","transposition":-2,"order":["shifted","swapped"],"probe_pitches":[8,10,5,1,5,1,5,8,1,3,10,5,3,13,10,13],"shifted_pitches":[8,10,5,1,5,1,5,7,1,3,10,5,3,13,10,13],"swapped_pitches":[8,10,5,1,5,1,5,1,8,3,10,5,3,13,10,13],"shift_direction":-1,"question_num":1,"has_decoy":false},{"rt":583.3000000119209,"stimulus":"[A] option 1, [L] option 2, [G] neither","key_press":76,"name":"choice","trial_type":"html-keyboard-response","trial_index":21,"time_elapsed":47439,"internal_node_id":"0.0-21.0","subject":"S1C1632","sona":"41616","block":5,"time":"2021-09-18T04:14:16.432Z","response":"2nd","certainty":"high","char":"L","transposition":0,"order":["swapped","shifted"],"probe_pitches":[11,6,1,6,4,9,11,1,4,13,4,6,11,13,11,4],"shifted_pitches":[11,6,1,6,4,9,11,2,4,13,4,6,11,13,11,4],"swapped_pitches":[11,6,1,6,4,9,11,4,1,13,4,6,11,13,11,4],"shift_direction":1,"question_num":11,"has_decoy":false},{"rt":480.69999998807907,"stimulus":"[A] option 1, [L] option 2, [G] neither","key_press":76,"name":"choice","trial_type":"html-keyboard-response","trial_index":32,"time_elapsed":70318,"internal_node_id":"0.0-32.0","subject":"S1C1632","sona":"41616","block":5,"time":"2021-09-18T04:14:16.432Z","response":"2nd","certainty":"high","char":"L","transposition":1,"order":["swapped","shifted"],"probe_pitches":[13,10,3,6,8,13,8,3,13,1,8,3,13,6,1,13],"shifted_pitches":[13,10,3,6,8,13,8,2,13,1,8,3,13,6,1,13],"swapped_pitches":[13,10,3,6,8,13,8,13,3,1,8,3,13,6,1,13],"shift_direction":-1,"question_num":21,"has_decoy":false},{"rt":458.39999997615814,"stimulus":"[A] option 1, [L] option 2, [G] neither","key_press":76,"name":"choice","trial_type":"html-keyboard-response","trial_index":43,"time_elapsed":93498,"internal_node_id":"0.0-43.0","subject":"S1C1632","sona":"41616","block":5,"time":"2021-09-18T04:14:16.432Z","response":"2nd","certainty":"high","char":"L","transposition":2,"order":["swapped","shifted"],"probe_pitches":[1,5,10,5,1,8,3,13,1,8,3,8,5,13,8,13],"shifted_pitches":[1,5,10,5,1,8,3,13,0,8,3,8,5,13,8,13],"swapped_pitches":[1,5,10,5,1,8,3,1,13,8,3,8,5,13,8,13],"shift_direction":-1,"question_num":31,"has_decoy":false},{"rt":658.8000000119209,"stimulus":"[A] option 1, [L] option 2, [G] neither","key_press":76,"name":"choice","trial_type":"html-keyboard-response","trial_index":54,"time_elapsed":116651,"internal_node_id":"0.0-54.0","subject":"S1C1632","sona":"41616","block":5,"time":"2021-09-18T04:14:16.432Z","response":"2nd","certainty":"high","char":"L","transposition":-3,"order":["swapped","shifted"],"probe_pitches":[11,6,3,11,8,13,8,11,1,13,3,8,3,1,13,8],"shifted_pitches":[11,6,3,11,8,13,8,11,0,13,3,8,3,1,13,8],"swapped_pitches":[11,6,3,11,8,13,8,1,11,13,3,8,3,1,13,8],"shift_direction":-1,"question_num":41,"has_decoy":false},{"rt":516,"stimulus":"[A] option 1, [L] option 2, [G] neither","key_press":76,"name":"choice","trial_type":"html-keyboard-response","trial_index":65,"time_elapsed":139659,"internal_node_id":"0.0-65.0","subject":"S1C1632","sona":"41616","block":5,"time":"2021-09-18T04:14:16.432Z","response":"2nd","certainty":"high","char":"L","transposition":3,"order":["swapped","shifted"],"probe_pitches":[11,8,11,4,6,13,6,13,11,6,4,13,6,4,8,13],"shifted_pitches":[11,8,11,4,6,13,6,14,11,6,4,13,6,4,8,13],"swapped_pitches":[11,8,11,4,6,13,6,11,13,6,4,13,6,4,8,13],"shift_direction":1,"question_num":51,"has_decoy":false},{"rt":573.8999999761581,"stimulus":"[A] option 1, [L] option 2, [G] neither","key_press":71,"name":"choice","trial_type":"html-keyboard-response","trial_index":76,"time_elapsed":162757,"internal_node_id":"0.0-76.0","subject":"S1C1632","sona":"41616","block":5,"time":"2021-09-18T04:14:16.432Z","response":"neither","certainty":"high","char":"G","transposition":-2,"order":["shifted","swapped"],"probe_pitches":[1,6,2,0,4,-2,8,7,6,10,9,3,7,0,-2,2],"shifted_pitches":[1,6,2,0,4,-2,8,7,5,10,9,3,7,0,-2,2],"swapped_pitches":[1,6,2,0,4,-2,8,6,7,10,9,3,7,0,-2,2],"shift_direction":-1,"question_num":61,"has_decoy":false},{"rt":502,"stimulus":"[A] option 1, [L] option 2, [G] neither","key_press":65,"name":"choice","trial_type":"html-keyboard-response","trial_index":87,"time_elapsed":185742,"internal_node_id":"0.0-87.0","subject":"S1C1632","sona":"41616","block":5,"time":"2021-09-18T04:14:16.432Z","response":"1st","certainty":"high","char":"A","transposition":-1,"order":["shifted","swapped"],"probe_pitches":[8,13,8,6,8,11,1,8,6,11,8,4,11,1,11,6],"shifted_pitches":[8,13,8,6,8,11,1,8,7,11,8,4,11,1,11,6],"swapped_pitches":[8,13,8,6,8,11,1,6,8,11,8,4,11,1,11,6],"shift_direction":1,"question_num":71,"has_decoy":false},{"rt":593.7000000476837,"stimulus":"[A] option 1, [L] option 2, [G] neither","key_press":76,"name":"choice","trial_type":"html-keyboard-response","trial_index":98,"time_elapsed":208717,"internal_node_id":"0.0-98.0","subject":"S1C1632","sona":"41616","block":5,"time":"2021-09-18T04:14:16.432Z","response":"2nd","certainty":"high","char":"L","transposition":3,"order":["swapped","shifted"],"probe_pitches":[8,6,2,1,8,6,5,8,4,2,10,4,3,2,6,5],"shifted_pitches":[8,6,2,1,8,6,5,9,4,2,10,4,3,2,6,5],"swapped_pitches":[8,6,2,1,8,6,5,4,8,2,10,4,3,2,6,5],"shift_direction":1,"question_num":81,"has_decoy":false},{"rt":1189.7000000476837,"stimulus":"[A] option 1, [L] option 2, [G] neither","key_press":71,"name":"choice","trial_type":"html-keyboard-response","trial_index":109,"time_elapsed":232277,"internal_node_id":"0.0-109.0","subject":"S1C1632","sona":"41616","block":5,"time":"2021-09-18T04:14:16.432Z","response":"neither","certainty":"high","char":"G","transposition":-1,"order":["swapped","shifted"],"probe_pitches":[5,4,-1,4,3,7,10,1,5,-2,3,8,9,3,-2,0],"shifted_pitches":[5,4,-1,4,3,7,10,2,5,-2,3,8,9,3,-2,0],"swapped_pitches":[5,4,-1,4,3,7,10,5,1,-2,3,8,9,3,-2,0],"shift_direction":1,"question_num":91,"has_decoy":false},{"rt":504.0999999642372,"stimulus":"[A] option 1, [L] option 2, [G] neither","key_press":71,"name":"choice","trial_type":"html-keyboard-response","trial_index":120,"time_elapsed":257343,"internal_node_id":"0.0-120.0","subject":"S1C1632","sona":"41616","block":5,"time":"2021-09-18T04:14:16.432Z","response":"neither","certainty":"high","char":"G","transposition":1,"order":["shifted","swapped"],"probe_pitches":[9,5,10,4,9,7,4,5,10,7,2,4,-2,5,7,2],"shifted_pitches":[9,5,10,4,9,7,4,6,10,7,2,4,-2,5,7,2],"swapped_pitches":[9,5,10,4,9,7,4,10,5,7,2,4,-2,5,7,2],"shift_direction":1,"question_num":101,"has_decoy":false},{"rt":481.39999997615814,"stimulus":"[A] option 1, [L] option 2, [G] neither","key_press":65,"name":"choice","trial_type":"html-keyboard-response","trial_index":131,"time_elapsed":280261,"internal_node_id":"0.0-131.0","subject":"S1C1632","sona":"41616","block":5,"time":"2021-09-18T04:14:16.432Z","response":"1st","certainty":"high","char":"A","transposition":-3,"order":["shifted","swapped"],"probe_pitches":[11,13,6,13,11,3,8,6,1,3,8,11,13,8,11,13],"shifted_pitches":[11,13,6,13,11,3,8,6,0,3,8,11,13,8,11,13],"swapped_pitches":[11,13,6,13,11,3,8,1,6,3,8,11,13,8,11,13],"shift_direction":-1,"question_num":111,"has_decoy":false},{"rt":1268.8999999761581,"stimulus":"[A] option 1, [L] option 2, [G] neither","key_press":71,"name":"choice","trial_type":"html-keyboard-response","trial_index":142,"time_elapsed":303626,"internal_node_id":"0.0-142.0","subject":"S1C1632","sona":"41616","block":5,"time":"2021-09-18T04:14:16.432Z","response":"neither","certainty":"high","char":"G","transposition":-1,"order":["swapped","shifted"],"probe_pitches":[0,-2,3,6,-1,5,2,0,3,1,-2,5,2,3,-1,7],"shifted_pitches":[0,-2,3,6,-1,5,2,0,4,1,-2,5,2,3,-1,7],"swapped_pitches":[0,-2,3,6,-1,5,2,3,0,1,-2,5,2,3,-1,7],"shift_direction":1,"question_num":121,"has_decoy":false},{"rt":1127.5,"stimulus":"[A] option 1, [L] option 2, [G] neither","key_press":71,"name":"choice","trial_type":"html-keyboard-response","trial_index":153,"time_elapsed":327880,"internal_node_id":"0.0-153.0","subject":"S1C1632","sona":"41616","block":5,"time":"2021-09-18T04:14:16.432Z","response":"neither","certainty":"high","char":"G","transposition":2,"order":["swapped","shifted"],"probe_pitches":[6,9,10,4,0,5,10,4,2,5,6,3,7,0,9,3],"shifted_pitches":[6,9,10,4,0,5,10,4,1,5,6,3,7,0,9,3],"swapped_pitches":[6,9,10,4,0,5,10,2,4,5,6,3,7,0,9,3],"shift_direction":-1,"question_num":131,"has_decoy":false},{"rt":2027.800000011921,"stimulus":"[A] option 1, [L] option 2, [G] neither","key_press":71,"name":"choice","trial_type":"html-keyboard-response","trial_index":164,"time_elapsed":352295,"internal_node_id":"0.0-164.0","subject":"S1C1632","sona":"41616","block":5,"time":"2021-09-18T04:14:16.432Z","response":"neither","certainty":"high","char":"G","transposition":-2,"order":["shifted","swapped"],"probe_pitches":[9,5,-1,-2,-1,5,6,1,-1,3,7,8,2,9,10,-1],"shifted_pitches":[9,5,-1,-2,-1,5,6,0,-1,3,7,8,2,9,10,-1],"swapped_pitches":[9,5,-1,-2,-1,5,6,-1,1,3,7,8,2,9,10,-1],"shift_direction":-1,"question_num":141,"has_decoy":false},{"rt":3641.2000000476837,"stimulus":"[A] option 1, [L] option 2, [G] neither","key_press":71,"name":"choice","trial_type":"html-keyboard-response","trial_index":175,"time_elapsed":378773,"internal_node_id":"0.0-175.0","subject":"S1C1632","sona":"41616","block":5,"time":"2021-09-18T04:14:16.432Z","response":"neither","certainty":"high","char":"G","transposition":-3,"order":["shifted","swapped"],"probe_pitches":[0,2,-2,3,2,10,5,9,10,4,-1,5,7,6,7,4],"shifted_pitches":[0,2,-2,3,2,10,5,8,10,4,-1,5,7,6,7,4],"swapped_pitches":[0,2,-2,3,2,10,5,10,9,4,-1,5,7,6,7,4],"shift_direction":-1,"question_num":151,"has_decoy":false},{"rt":3871.800000011921,"stimulus":"[A] option 1, [L] option 2, [G] neither","key_press":71,"name":"choice","trial_type":"html-keyboard-response","trial_index":186,"time_elapsed":407400,"internal_node_id":"0.0-186.0","subject":"S1C1632","sona":"41616","block":5,"time":"2021-09-18T04:14:16.432Z","response":"neither","certainty":"high","char":"G","transposition":0,"order":["shifted","swapped"],"probe_pitches":[1,6,1,9,0,-1,9,10,8,1,-2,2,-2,10,4,0],"shifted_pitches":[1,6,1,9,0,-1,9,10,7,1,-2,2,-2,10,4,0],"swapped_pitches":[1,6,1,9,0,-1,9,8,10,1,-2,2,-2,10,4,0],"shift_direction":-1,"question_num":161,"has_decoy":false},{"rt":1497.0999999642372,"stimulus":"[A] option 1, [L] option 2, [G] neither","key_press":71,"name":"choice","trial_type":"html-keyboard-response","trial_index":197,"time_elapsed":431456,"internal_node_id":"0.0-197.0","subject":"S1C1632","sona":"41616","block":5,"time":"2021-09-18T04:14:16.432Z","response":"neither","certainty":"high","char":"G","transposition":-3,"order":["swapped","shifted"],"probe_pitches":[7,2,-2,6,5,2,-1,-2,2,5,6,5,0,8,4,2],"shifted_pitches":[7,2,-2,6,5,2,-1,-2,3,5,6,5,0,8,4,2],"swapped_pitches":[7,2,-2,6,5,2,-1,2,-2,5,6,5,0,8,4,2],"shift_direction":1,"question_num":171,"has_decoy":false},{"rt":1520.5,"stimulus":"[A] option 1, [L] option 2, [G] neither","key_press":71,"name":"choice","trial_type":"html-keyboard-response","trial_index":208,"time_elapsed":457523,"internal_node_id":"0.0-208.0","subject":"S1C1632","sona":"41616","block":5,"time":"2021-09-18T04:14:16.432Z","response":"neither","certainty":"high","char":"G","transposition":-2,"order":["shifted","swapped"],"probe_pitches":[3,8,3,10,6,10,8,1,13,6,1,3,1,6,3,1],"shifted_pitches":[3,8,3,10,6,10,8,2,13,6,1,3,1,6,3,1],"swapped_pitches":[3,8,3,10,6,10,8,13,1,6,1,3,1,6,3,1],"shift_direction":1,"question_num":181,"has_decoy":false},{"rt":677.9000000357628,"stimulus":"[A] option 1, [L] option 2, [G] neither","key_press":71,"name":"choice","trial_type":"html-keyboard-response","trial_index":219,"time_elapsed":481499,"internal_node_id":"0.0-219.0","subject":"S1C1632","sona":"41616","block":5,"time":"2021-09-18T04:14:16.432Z","response":"neither","certainty":"high","char":"G","transposition":-1,"order":["shifted","swapped"],"probe_pitches":[9,11,6,13,6,11,4,11,6,4,6,9,13,4,9,6],"shifted_pitches":[9,11,6,13,6,11,4,11,7,4,6,9,13,4,9,6],"swapped_pitches":[9,11,6,13,6,11,4,6,11,4,6,9,13,4,9,6],"shift_direction":1,"question_num":191,"has_decoy":false}]