[{"rt":1238,"stimulus":"[A] option 1, [L] option 2, [G] neither","key_press":76,"name":"choice","trial_type":"html-keyboard-response","trial_index":10,"time_elapsed":27881,"internal_node_id":"0.0-10.0","subject":"S1C1222","sona":"41708","block":3,"time":"2021-09-17T02:31:08.759Z","response":"2nd","certainty":"high","char":"L","transposition":0,"order":["swapped","shifted"],"probe_pitches":[5,7,5,2,7,2,0,12,5,10,12,5],"shifted_pitches":[5,7,5,2,7,3,0,12,5,10,12,5],"swapped_pitches":[5,7,5,2,7,0,2,12,5,10,12,5],"shift_direction":1,"question_num":1,"has_decoy":false},{"rt":6669.399999999907,"stimulus":"[A] option 1, [L] option 2, [G] neither","key_press":76,"name":"choice","trial_type":"html-keyboard-response","trial_index":21,"time_elapsed":53195,"internal_node_id":"0.0-21.0","subject":"S1C1222","sona":"41708","block":3,"time":"2021-09-17T02:31:08.759Z","response":"2nd","certainty":"high","char":"L","transposition":-3,"order":["swapped","shifted"],"probe_pitches":[10,11,13,9,3,12,7,4,11,9,4,14],"shifted_pitches":[10,11,13,9,3,12,6,4,11,9,4,14],"swapped_pitches":[10,11,13,9,3,7,12,4,11,9,4,14],"shift_direction":-1,"question_num":11,"has_decoy":false},{"rt":742.5,"stimulus":"[A] option 1, [L] option 2, [G] neither","key_press":65,"name":"choice","trial_type":"html-keyboard-response","trial_index":32,"time_elapsed":72467,"internal_node_id":"0.0-32.0","subject":"S1C1222","sona":"41708","block":3,"time":"2021-09-17T02:31:08.759Z","response":"1st","certainty":"high","char":"A","transposition":3,"order":["shifted","swapped"],"probe_pitches":[8,4,2,5,4,9,11,2,14,8,6,11],"shifted_pitches":[8,4,2,5,4,9,12,2,14,8,6,11],"swapped_pitches":[8,4,2,5,4,11,9,2,14,8,6,11],"shift_direction":1,"question_num":21,"has_decoy":false},{"rt":1586.3999999999069,"stimulus":"[A] option 1, [L] option 2, [G] neither","key_press":65,"name":"choice","trial_type":"html-keyboard-response","trial_index":43,"time_elapsed":92746,"internal_node_id":"0.0-43.0","subject":"S1C1222","sona":"41708","block":3,"time":"2021-09-17T02:31:08.759Z","response":"1st","certainty":"high","char":"A","transposition":-3,"order":["swapped","shifted"],"probe_pitches":[3,5,10,12,10,0,3,12,7,0,3,12],"shifted_pitches":[3,5,10,12,10,0,2,12,7,0,3,12],"swapped_pitches":[3,5,10,12,10,3,0,12,7,0,3,12],"shift_direction":-1,"question_num":31,"has_decoy":false},{"rt":3451.8000000002794,"stimulus":"[A] option 1, [L] option 2, [G] neither","key_press":65,"name":"choice","trial_type":"html-keyboard-response","trial_index":54,"time_elapsed":114573,"internal_node_id":"0.0-54.0","subject":"S1C1222","sona":"41708","block":3,"time":"2021-09-17T02:31:08.759Z","response":"1st","certainty":"high","char":"A","transposition":-3,"order":["shifted","swapped"],"probe_pitches":[11,12,8,9,4,6,10,13,4,14,8,13],"shifted_pitches":[11,12,8,9,4,7,10,13,4,14,8,13],"swapped_pitches":[11,12,8,9,4,10,6,13,4,14,8,13],"shift_direction":1,"question_num":41,"has_decoy":false},{"rt":1007.5,"stimulus":"[A] option 1, [L] option 2, [G] neither","key_press":65,"name":"choice","trial_type":"html-keyboard-response","trial_index":65,"time_elapsed":133968,"internal_node_id":"0.0-65.0","subject":"S1C1222","sona":"41708","block":3,"time":"2021-09-17T02:31:08.759Z","response":"1st","certainty":"high","char":"A","transposition":0,"order":["swapped","shifted"],"probe_pitches":[2,7,5,11,12,9,2,12,2,9,12,5],"shifted_pitches":[2,7,5,11,12,8,2,12,2,9,12,5],"swapped_pitches":[2,7,5,11,12,2,9,12,2,9,12,5],"shift_direction":-1,"question_num":51,"has_decoy":false},{"rt":631.8999999999069,"stimulus":"[A] option 1, [L] option 2, [G] neither","key_press":76,"name":"choice","trial_type":"html-keyboard-response","trial_index":76,"time_elapsed":152979,"internal_node_id":"0.0-76.0","subject":"S1C1222","sona":"41708","block":3,"time":"2021-09-17T02:31:08.759Z","response":"2nd","certainty":"high","char":"L","transposition":-1,"order":["swapped","shifted"],"probe_pitches":[3,2,5,3,6,13,9,11,2,11,2,8],"shifted_pitches":[3,2,5,3,6,13,10,11,2,11,2,8],"swapped_pitches":[3,2,5,3,6,9,13,11,2,11,2,8],"shift_direction":1,"question_num":61,"has_decoy":false},{"rt":1271.6000000000931,"stimulus":"[A] option 1, [L] option 2, [G] neither","key_press":65,"name":"choice","trial_type":"html-keyboard-response","trial_index":87,"time_elapsed":173644,"internal_node_id":"0.0-87.0","subject":"S1C1222","sona":"41708","block":3,"time":"2021-09-17T02:31:08.759Z","response":"1st","certainty":"high","char":"A","transposition":2,"order":["shifted","swapped"],"probe_pitches":[12,10,3,7,3,12,5,7,0,12,3,10],"shifted_pitches":[12,10,3,7,3,12,4,7,0,12,3,10],"swapped_pitches":[12,10,3,7,3,5,12,7,0,12,3,10],"shift_direction":-1,"question_num":71,"has_decoy":false},{"rt":2921.5,"stimulus":"[A] option 1, [L] option 2, [G] neither","key_press":76,"name":"choice","trial_type":"html-keyboard-response","trial_index":98,"time_elapsed":195941,"internal_node_id":"0.0-98.0","subject":"S1C1222","sona":"41708","block":3,"time":"2021-09-17T02:31:08.759Z","response":"2nd","certainty":"high","char":"L","transposition":1,"order":["swapped","shifted"],"probe_pitches":[5,7,12,5,7,5,2,0,7,2,0,9],"shifted_pitches":[5,7,12,5,7,4,2,0,7,2,0,9],"swapped_pitches":[5,7,12,5,7,2,5,0,7,2,0,9],"shift_direction":-1,"question_num":81,"has_decoy":false},{"rt":2193.2000000001863,"stimulus":"[A] option 1, [L] option 2, [G] neither","key_press":65,"name":"choice","trial_type":"html-keyboard-response","trial_index":109,"time_elapsed":217677,"internal_node_id":"0.0-109.0","subject":"S1C1222","sona":"41708","block":3,"time":"2021-09-17T02:31:08.759Z","response":"1st","certainty":"high","char":"A","transposition":-3,"order":["shifted","swapped"],"probe_pitches":[2,7,9,5,12,2,5,12,2,9,0,5],"shifted_pitches":[2,7,9,5,12,3,5,12,2,9,0,5],"swapped_pitches":[2,7,9,5,12,5,2,12,2,9,0,5],"shift_direction":1,"question_num":91,"has_decoy":false},{"rt":1904.3000000002794,"stimulus":"[A] option 1, [L] option 2, [G] neither","key_press":76,"name":"choice","trial_type":"html-keyboard-response","trial_index":120,"time_elapsed":238573,"internal_node_id":"0.0-120.0","subject":"S1C1222","sona":"41708","block":3,"time":"2021-09-17T02:31:08.759Z","response":"2nd","certainty":"high","char":"L","transposition":-2,"order":["swapped","shifted"],"probe_pitches":[3,2,4,12,4,12,13,4,10,7,4,14],"shifted_pitches":[3,2,4,12,4,11,13,4,10,7,4,14],"swapped_pitches":[3,2,4,12,4,13,12,4,10,7,4,14],"shift_direction":-1,"question_num":101,"has_decoy":false},{"rt":1943.7999999998137,"stimulus":"[A] option 1, [L] option 2, [G] neither","key_press":76,"name":"choice","trial_type":"html-keyboard-response","trial_index":131,"time_elapsed":259709,"internal_node_id":"0.0-131.0","subject":"S1C1222","sona":"41708","block":3,"time":"2021-09-17T02:31:08.759Z","response":"2nd","certainty":"high","char":"L","transposition":-2,"order":["swapped","shifted"],"probe_pitches":[0,5,0,7,5,10,12,2,5,10,7,2],"shifted_pitches":[0,5,0,7,5,11,12,2,5,10,7,2],"swapped_pitches":[0,5,0,7,5,12,10,2,5,10,7,2],"shift_direction":1,"question_num":111,"has_decoy":false},{"rt":4510.4000000003725,"stimulus":"[A] option 1, [L] option 2, [G] neither","key_press":65,"name":"choice","trial_type":"html-keyboard-response","trial_index":142,"time_elapsed":282526,"internal_node_id":"0.0-142.0","subject":"S1C1222","sona":"41708","block":3,"time":"2021-09-17T02:31:08.759Z","response":"1st","certainty":"high","char":"A","transposition":1,"order":["shifted","swapped"],"probe_pitches":[2,5,8,14,7,3,8,6,2,5,12,6],"shifted_pitches":[2,5,8,14,7,4,8,6,2,5,12,6],"swapped_pitches":[2,5,8,14,7,8,3,6,2,5,12,6],"shift_direction":1,"question_num":121,"has_decoy":false},{"rt":1229.6000000000931,"stimulus":"[A] option 1, [L] option 2, [G] neither","key_press":65,"name":"choice","trial_type":"html-keyboard-response","trial_index":153,"time_elapsed":302258,"internal_node_id":"0.0-153.0","subject":"S1C1222","sona":"41708","block":3,"time":"2021-09-17T02:31:08.759Z","response":"1st","certainty":"high","char":"A","transposition":3,"order":["shifted","swapped"],"probe_pitches":[12,7,0,2,9,12,2,9,0,4,12,9],"shifted_pitches":[12,7,0,2,9,11,2,9,0,4,12,9],"swapped_pitches":[12,7,0,2,9,2,12,9,0,4,12,9],"shift_direction":-1,"question_num":131,"has_decoy":false},{"rt":1328.8000000002794,"stimulus":"[A] option 1, [L] option 2, [G] neither","key_press":76,"name":"choice","trial_type":"html-keyboard-response","trial_index":164,"time_elapsed":321668,"internal_node_id":"0.0-164.0","subject":"S1C1222","sona":"41708","block":3,"time":"2021-09-17T02:31:08.759Z","response":"2nd","certainty":"high","char":"L","transposition":-2,"order":["shifted","swapped"],"probe_pitches":[8,10,4,7,11,6,12,4,11,7,13,14],"shifted_pitches":[8,10,4,7,11,5,12,4,11,7,13,14],"swapped_pitches":[8,10,4,7,11,12,6,4,11,7,13,14],"shift_direction":-1,"question_num":141,"has_decoy":false},{"rt":938,"stimulus":"[A] option 1, [L] option 2, [G] neither","key_press":65,"name":"choice","trial_type":"html-keyboard-response","trial_index":175,"time_elapsed":341240,"internal_node_id":"0.0-175.0","subject":"S1C1222","sona":"41708","block":3,"time":"2021-09-17T02:31:08.759Z","response":"1st","certainty":"high","char":"A","transposition":-1,"order":["swapped","shifted"],"probe_pitches":[14,12,6,2,7,3,10,13,12,11,12,14],"shifted_pitches":[14,12,6,2,7,3,9,13,12,11,12,14],"swapped_pitches":[14,12,6,2,7,10,3,13,12,11,12,14],"shift_direction":-1,"question_num":151,"has_decoy":false},{"rt":4666.899999999907,"stimulus":"[A] option 1, [L] option 2, [G] neither","key_press":76,"name":"choice","trial_type":"html-keyboard-response","trial_index":186,"time_elapsed":364328,"internal_node_id":"0.0-186.0","subject":"S1C1222","sona":"41708","block":3,"time":"2021-09-17T02:31:08.759Z","response":"2nd","certainty":"high","char":"L","transposition":-2,"order":["shifted","swapped"],"probe_pitches":[5,8,12,5,3,10,8,3,12,5,12,8],"shifted_pitches":[5,8,12,5,3,10,9,3,12,5,12,8],"swapped_pitches":[5,8,12,5,3,8,10,3,12,5,12,8],"shift_direction":1,"question_num":161,"has_decoy":false},{"rt":3725.600000000093,"stimulus":"[A] option 1, [L] option 2, [G] neither","key_press":65,"name":"choice","trial_type":"html-keyboard-response","trial_index":197,"time_elapsed":388080,"internal_node_id":"0.0-197.0","subject":"S1C1222","sona":"41708","block":3,"time":"2021-09-17T02:31:08.759Z","response":"1st","certainty":"high","char":"A","transposition":2,"order":["shifted","swapped"],"probe_pitches":[2,4,8,14,11,5,12,7,6,12,2,10],"shifted_pitches":[2,4,8,14,11,5,13,7,6,12,2,10],"swapped_pitches":[2,4,8,14,11,12,5,7,6,12,2,10],"shift_direction":1,"question_num":171,"has_decoy":false},{"rt":472.39999999990687,"stimulus":"[A] option 1, [L] option 2, [G] neither","key_press":65,"name":"choice","trial_type":"html-keyboard-response","trial_index":208,"time_elapsed":408453,"internal_node_id":"0.0-208.0","subject":"S1C1222","sona":"41708","block":3,"time":"2021-09-17T02:31:08.759Z","response":"1st","certainty":"high","char":"A","transposition":-1,"order":["shifted","swapped"],"probe_pitches":[10,8,3,8,10,5,12,3,10,8,0,5],"shifted_pitches":[10,8,3,8,10,5,13,3,10,8,0,5],"swapped_pitches":[10,8,3,8,10,12,5,3,10,8,0,5],"shift_direction":1,"question_num":181,"has_decoy":false},{"rt":440.60000000009313,"stimulus":"[A] option 1, [L] option 2, [G] neither","key_press":76,"name":"choice","trial_type":"html-keyboard-response","trial_index":219,"time_elapsed":428356,"internal_node_id":"0.0-219.0","subject":"S1C1222","sona":"41708","block":3,"time":"2021-09-17T02:31:08.759Z","response":"2nd","certainty":"high","char":"L","transposition":-1,"order":["swapped","shifted"],"probe_pitches":[4,2,7,4,7,0,2,7,9,4,7,12],"shifted_pitches":[4,2,7,4,7,0,1,7,9,4,7,12],"swapped_pitches":[4,2,7,4,7,2,0,7,9,4,7,12],"shift_direction":-1,"question_num":191,"has_decoy":false}]