[{"rt":2727,"stimulus":"[A] option 1, [L] option 2, [G] neither","key_press":76,"name":"choice","trial_type":"html-keyboard-response","trial_index":10,"time_elapsed":22818,"internal_node_id":"0.0-10.0","subject":"S1C1222","sona":"41708","block":6,"time":"2021-09-17T03:00:37.250Z","response":"2nd","certainty":"high","char":"L","transposition":3,"order":["shifted","swapped"],"probe_pitches":[8,10,12,5,12,8,10,3,0,5,3,10],"shifted_pitches":[8,10,12,5,12,8,9,3,0,5,3,10],"swapped_pitches":[8,10,12,5,12,10,8,3,0,5,3,10],"shift_direction":-1,"question_num":1,"has_decoy":false},{"rt":1258.2000000001863,"stimulus":"[A] option 1, [L] option 2, [G] neither","key_press":65,"name":"choice","trial_type":"html-keyboard-response","trial_index":21,"time_elapsed":43018,"internal_node_id":"0.0-21.0","subject":"S1C1222","sona":"41708","block":6,"time":"2021-09-17T03:00:37.250Z","response":"1st","certainty":"high","char":"A","transposition":-1,"order":["shifted","swapped"],"probe_pitches":[1,5,4,1,2,-1,8,9,6,8,6,-2],"shifted_pitches":[1,5,4,1,2,0,8,9,6,8,6,-2],"swapped_pitches":[1,5,4,1,2,8,-1,9,6,8,6,-2],"shift_direction":1,"question_num":11,"has_decoy":false},{"rt":2923.9000000003725,"stimulus":"[A] option 1, [L] option 2, [G] neither","key_press":76,"name":"choice","trial_type":"html-keyboard-response","trial_index":32,"time_elapsed":64464,"internal_node_id":"0.0-32.0","subject":"S1C1222","sona":"41708","block":6,"time":"2021-09-17T03:00:37.250Z","response":"2nd","certainty":"high","char":"L","transposition":-3,"order":["shifted","swapped"],"probe_pitches":[12,7,5,10,3,0,7,12,3,12,5,12],"shifted_pitches":[12,7,5,10,3,1,7,12,3,12,5,12],"swapped_pitches":[12,7,5,10,3,7,0,12,3,12,5,12],"shift_direction":1,"question_num":21,"has_decoy":false},{"rt":654.4000000003725,"stimulus":"[A] option 1, [L] option 2, [G] neither","key_press":65,"name":"choice","trial_type":"html-keyboard-response","trial_index":43,"time_elapsed":84178,"internal_node_id":"0.0-43.0","subject":"S1C1222","sona":"41708","block":6,"time":"2021-09-17T03:00:37.250Z","response":"1st","certainty":"high","char":"A","transposition":1,"order":["shifted","swapped"],"probe_pitches":[7,2,0,7,12,4,2,9,7,9,7,0],"shifted_pitches":[7,2,0,7,12,4,3,9,7,9,7,0],"swapped_pitches":[7,2,0,7,12,2,4,9,7,9,7,0],"shift_direction":1,"question_num":31,"has_decoy":false},{"rt":419.79999999981374,"stimulus":"[A] option 1, [L] option 2, [G] neither","key_press":65,"name":"choice","trial_type":"html-keyboard-response","trial_index":54,"time_elapsed":103478,"internal_node_id":"0.0-54.0","subject":"S1C1222","sona":"41708","block":6,"time":"2021-09-17T03:00:37.250Z","response":"1st","certainty":"high","char":"A","transposition":0,"order":["swapped","shifted"],"probe_pitches":[12,10,7,5,7,2,5,0,12,0,12,2],"shifted_pitches":[12,10,7,5,7,2,6,0,12,0,12,2],"swapped_pitches":[12,10,7,5,7,5,2,0,12,0,12,2],"shift_direction":1,"question_num":41,"has_decoy":false},{"rt":1418,"stimulus":"[A] option 1, [L] option 2, [G] neither","key_press":65,"name":"choice","trial_type":"html-keyboard-response","trial_index":65,"time_elapsed":123630,"internal_node_id":"0.0-65.0","subject":"S1C1222","sona":"41708","block":6,"time":"2021-09-17T03:00:37.250Z","response":"1st","certainty":"high","char":"A","transposition":-2,"order":["shifted","swapped"],"probe_pitches":[2,5,-1,5,10,8,1,-1,5,-2,0,-1],"shifted_pitches":[2,5,-1,5,10,7,1,-1,5,-2,0,-1],"swapped_pitches":[2,5,-1,5,10,1,8,-1,5,-2,0,-1],"shift_direction":-1,"question_num":51,"has_decoy":false},{"rt":1299.7000000001863,"stimulus":"[A] option 1, [L] option 2, [G] neither","key_press":65,"name":"choice","trial_type":"html-keyboard-response","trial_index":76,"time_elapsed":148882,"internal_node_id":"0.0-76.0","subject":"S1C1222","sona":"41708","block":6,"time":"2021-09-17T03:00:37.250Z","response":"1st","certainty":"high","char":"A","transposition":2,"order":["swapped","shifted"],"probe_pitches":[10,5,0,2,10,7,12,0,2,10,2,0],"shifted_pitches":[10,5,0,2,10,6,12,0,2,10,2,0],"swapped_pitches":[10,5,0,2,10,12,7,0,2,10,2,0],"shift_direction":-1,"question_num":61,"has_decoy":false},{"rt":2322.0999999996275,"stimulus":"[A] option 1, [L] option 2, [G] neither","key_press":65,"name":"choice","trial_type":"html-keyboard-response","trial_index":87,"time_elapsed":169546,"internal_node_id":"0.0-87.0","subject":"S1C1222","sona":"41708","block":6,"time":"2021-09-17T03:00:37.250Z","response":"1st","certainty":"high","char":"A","transposition":-1,"order":["shifted","swapped"],"probe_pitches":[5,0,3,0,5,12,3,10,8,5,0,12],"shifted_pitches":[5,0,3,0,5,13,3,10,8,5,0,12],"swapped_pitches":[5,0,3,0,5,3,12,10,8,5,0,12],"shift_direction":1,"question_num":71,"has_decoy":false},{"rt":774.1000000005588,"stimulus":"[A] option 1, [L] option 2, [G] neither","key_press":65,"name":"choice","trial_type":"html-keyboard-response","trial_index":98,"time_elapsed":188664,"internal_node_id":"0.0-98.0","subject":"S1C1222","sona":"41708","block":6,"time":"2021-09-17T03:00:37.250Z","response":"1st","certainty":"high","char":"A","transposition":-1,"order":["swapped","shifted"],"probe_pitches":[-2,3,0,7,5,8,2,0,6,10,3,10],"shifted_pitches":[-2,3,0,7,5,8,1,0,6,10,3,10],"swapped_pitches":[-2,3,0,7,5,2,8,0,6,10,3,10],"shift_direction":-1,"question_num":81,"has_decoy":false},{"rt":2601.2999999998137,"stimulus":"[A] option 1, [L] option 2, [G] neither","key_press":65,"name":"choice","trial_type":"html-keyboard-response","trial_index":109,"time_elapsed":210576,"internal_node_id":"0.0-109.0","subject":"S1C1222","sona":"41708","block":6,"time":"2021-09-17T03:00:37.250Z","response":"1st","certainty":"high","char":"A","transposition":-2,"order":["shifted","swapped"],"probe_pitches":[3,8,1,-2,0,3,6,9,7,6,-2,10],"shifted_pitches":[3,8,1,-2,0,4,6,9,7,6,-2,10],"swapped_pitches":[3,8,1,-2,0,6,3,9,7,6,-2,10],"shift_direction":1,"question_num":91,"has_decoy":false},{"rt":1014.3999999994412,"stimulus":"[A] option 1, [L] option 2, [G] neither","key_press":76,"name":"choice","trial_type":"html-keyboard-response","trial_index":120,"time_elapsed":229666,"internal_node_id":"0.0-120.0","subject":"S1C1222","sona":"41708","block":6,"time":"2021-09-17T03:00:37.250Z","response":"2nd","certainty":"high","char":"L","transposition":-3,"order":["swapped","shifted"],"probe_pitches":[2,0,7,5,9,7,2,0,2,5,7,2],"shifted_pitches":[2,0,7,5,9,6,2,0,2,5,7,2],"swapped_pitches":[2,0,7,5,9,2,7,0,2,5,7,2],"shift_direction":-1,"question_num":101,"has_decoy":false},{"rt":2281.800000000745,"stimulus":"[A] option 1, [L] option 2, [G] neither","key_press":76,"name":"choice","trial_type":"html-keyboard-response","trial_index":131,"time_elapsed":250709,"internal_node_id":"0.0-131.0","subject":"S1C1222","sona":"41708","block":6,"time":"2021-09-17T03:00:37.250Z","response":"2nd","certainty":"high","char":"L","transposition":-3,"order":["swapped","shifted"],"probe_pitches":[10,5,-2,2,10,7,5,8,5,7,0,9],"shifted_pitches":[10,5,-2,2,10,6,5,8,5,7,0,9],"swapped_pitches":[10,5,-2,2,10,5,7,8,5,7,0,9],"shift_direction":-1,"question_num":111,"has_decoy":false},{"rt":1685.5,"stimulus":"[A] option 1, [L] option 2, [G] neither","key_press":65,"name":"choice","trial_type":"html-keyboard-response","trial_index":142,"time_elapsed":270800,"internal_node_id":"0.0-142.0","subject":"S1C1222","sona":"41708","block":6,"time":"2021-09-17T03:00:37.250Z","response":"1st","certainty":"high","char":"A","transposition":1,"order":["swapped","shifted"],"probe_pitches":[1,3,-1,4,5,8,10,5,10,7,10,-2],"shifted_pitches":[1,3,-1,4,5,8,9,5,10,7,10,-2],"swapped_pitches":[1,3,-1,4,5,10,8,5,10,7,10,-2],"shift_direction":-1,"question_num":121,"has_decoy":false},{"rt":1674.9000000003725,"stimulus":"[A] option 1, [L] option 2, [G] neither","key_press":76,"name":"choice","trial_type":"html-keyboard-response","trial_index":153,"time_elapsed":295743,"internal_node_id":"0.0-153.0","subject":"S1C1222","sona":"41708","block":6,"time":"2021-09-17T03:00:37.250Z","response":"2nd","certainty":"high","char":"L","transposition":-1,"order":["swapped","shifted"],"probe_pitches":[9,5,9,7,9,5,0,12,5,9,7,2],"shifted_pitches":[9,5,9,7,9,4,0,12,5,9,7,2],"swapped_pitches":[9,5,9,7,9,0,5,12,5,9,7,2],"shift_direction":-1,"question_num":131,"has_decoy":false},{"rt":1451.6000000005588,"stimulus":"[A] option 1, [L] option 2, [G] neither","key_press":76,"name":"choice","trial_type":"html-keyboard-response","trial_index":164,"time_elapsed":315823,"internal_node_id":"0.0-164.0","subject":"S1C1222","sona":"41708","block":6,"time":"2021-09-17T03:00:37.250Z","response":"2nd","certainty":"high","char":"L","transposition":3,"order":["swapped","shifted"],"probe_pitches":[6,10,4,5,2,7,10,-1,9,-2,6,4],"shifted_pitches":[6,10,4,5,2,8,10,-1,9,-2,6,4],"swapped_pitches":[6,10,4,5,2,10,7,-1,9,-2,6,4],"shift_direction":1,"question_num":141,"has_decoy":false},{"rt":698.7999999998137,"stimulus":"[A] option 1, [L] option 2, [G] neither","key_press":65,"name":"choice","trial_type":"html-keyboard-response","trial_index":175,"time_elapsed":335837,"internal_node_id":"0.0-175.0","subject":"S1C1222","sona":"41708","block":6,"time":"2021-09-17T03:00:37.250Z","response":"1st","certainty":"high","char":"A","transposition":-2,"order":["swapped","shifted"],"probe_pitches":[12,7,12,7,10,12,3,7,5,7,12,10],"shifted_pitches":[12,7,12,7,10,12,2,7,5,7,12,10],"swapped_pitches":[12,7,12,7,10,3,12,7,5,7,12,10],"shift_direction":-1,"question_num":151,"has_decoy":false},{"rt":833.0999999996275,"stimulus":"[A] option 1, [L] option 2, [G] neither","key_press":76,"name":"choice","trial_type":"html-keyboard-response","trial_index":186,"time_elapsed":355560,"internal_node_id":"0.0-186.0","subject":"S1C1222","sona":"41708","block":6,"time":"2021-09-17T03:00:37.250Z","response":"2nd","certainty":"high","char":"L","transposition":0,"order":["shifted","swapped"],"probe_pitches":[8,6,10,7,9,7,4,9,-2,0,10,8],"shifted_pitches":[8,6,10,7,9,7,5,9,-2,0,10,8],"swapped_pitches":[8,6,10,7,9,4,7,9,-2,0,10,8],"shift_direction":1,"question_num":161,"has_decoy":false},{"rt":581.1999999992549,"stimulus":"[A] option 1, [L] option 2, [G] neither","key_press":65,"name":"choice","trial_type":"html-keyboard-response","trial_index":197,"time_elapsed":374604,"internal_node_id":"0.0-197.0","subject":"S1C1222","sona":"41708","block":6,"time":"2021-09-17T03:00:37.250Z","response":"1st","certainty":"high","char":"A","transposition":-3,"order":["shifted","swapped"],"probe_pitches":[9,4,-2,0,-2,6,1,9,1,-1,3,10],"shifted_pitches":[9,4,-2,0,-2,6,2,9,1,-1,3,10],"swapped_pitches":[9,4,-2,0,-2,1,6,9,1,-1,3,10],"shift_direction":1,"question_num":171,"has_decoy":false},{"rt":637.4000000003725,"stimulus":"[A] option 1, [L] option 2, [G] neither","key_press":65,"name":"choice","trial_type":"html-keyboard-response","trial_index":208,"time_elapsed":393465,"internal_node_id":"0.0-208.0","subject":"S1C1222","sona":"41708","block":6,"time":"2021-09-17T03:00:37.250Z","response":"1st","certainty":"high","char":"A","transposition":-2,"order":["shifted","swapped"],"probe_pitches":[12,9,2,4,12,9,7,12,9,2,4,9],"shifted_pitches":[12,9,2,4,12,9,8,12,9,2,4,9],"swapped_pitches":[12,9,2,4,12,7,9,12,9,2,4,9],"shift_direction":1,"question_num":181,"has_decoy":false},{"rt":997.0999999996275,"stimulus":"[A] option 1, [L] option 2, [G] neither","key_press":76,"name":"choice","trial_type":"html-keyboard-response","trial_index":219,"time_elapsed":413237,"internal_node_id":"0.0-219.0","subject":"S1C1222","sona":"41708","block":6,"time":"2021-09-17T03:00:37.250Z","response":"2nd","certainty":"high","char":"L","transposition":2,"order":["swapped","shifted"],"probe_pitches":[4,0,-1,2,-2,5,4,2,4,-2,8,2],"shifted_pitches":[4,0,-1,2,-2,5,3,2,4,-2,8,2],"swapped_pitches":[4,0,-1,2,-2,4,5,2,4,-2,8,2],"shift_direction":-1,"question_num":191,"has_decoy":false}]