[{"rt":1478.1000000000931,"stimulus":"[A] option 1, [L] option 2, [G] neither","key_press":65,"name":"choice","trial_type":"html-keyboard-response","trial_index":10,"time_elapsed":748555,"internal_node_id":"0.0-10.0","subject":"S1C1222","sona":"41708","block":2,"time":"2021-09-17T02:22:29.791Z","response":"1st","certainty":"high","char":"A","transposition":-3,"order":["shifted","swapped"],"probe_pitches":[10,5,10,4,0,8,-1,2,11,1,2,9],"shifted_pitches":[10,5,10,4,0,7,-1,2,11,1,2,9],"swapped_pitches":[10,5,10,4,0,-1,8,2,11,1,2,9],"shift_direction":-1,"question_num":1,"has_decoy":false},{"rt":623.2999999998137,"stimulus":"[A] option 1, [L] option 2, [G] neither","key_press":76,"name":"choice","trial_type":"html-keyboard-response","trial_index":21,"time_elapsed":767699,"internal_node_id":"0.0-21.0","subject":"S1C1222","sona":"41708","block":2,"time":"2021-09-17T02:22:29.791Z","response":"2nd","certainty":"high","char":"L","transposition":-1,"order":["swapped","shifted"],"probe_pitches":[10,8,12,10,8,5,10,12,5,10,0,3],"shifted_pitches":[10,8,12,10,8,5,11,12,5,10,0,3],"swapped_pitches":[10,8,12,10,8,10,5,12,5,10,0,3],"shift_direction":1,"question_num":11,"has_decoy":false},{"rt":4181.5,"stimulus":"[A] option 1, [L] option 2, [G] neither","key_press":65,"name":"choice","trial_type":"html-keyboard-response","trial_index":32,"time_elapsed":791704,"internal_node_id":"0.0-32.0","subject":"S1C1222","sona":"41708","block":2,"time":"2021-09-17T02:22:29.791Z","response":"1st","certainty":"high","char":"A","transposition":-1,"order":["shifted","swapped"],"probe_pitches":[3,0,3,5,10,0,7,3,0,3,12,3],"shifted_pitches":[3,0,3,5,10,0,8,3,0,3,12,3],"swapped_pitches":[3,0,3,5,10,7,0,3,0,3,12,3],"shift_direction":1,"question_num":21,"has_decoy":false},{"rt":1647.1999999997206,"stimulus":"[A] option 1, [L] option 2, [G] neither","key_press":76,"name":"choice","trial_type":"html-keyboard-response","trial_index":43,"time_elapsed":817244,"internal_node_id":"0.0-43.0","subject":"S1C1222","sona":"41708","block":2,"time":"2021-09-17T02:22:29.791Z","response":"2nd","certainty":"high","char":"L","transposition":-2,"order":["swapped","shifted"],"probe_pitches":[10,5,-1,7,10,9,4,10,5,4,11,4],"shifted_pitches":[10,5,-1,7,10,8,4,10,5,4,11,4],"swapped_pitches":[10,5,-1,7,10,4,9,10,5,4,11,4],"shift_direction":-1,"question_num":31,"has_decoy":false},{"rt":1359.8000000002794,"stimulus":"[A] option 1, [L] option 2, [G] neither","key_press":76,"name":"choice","trial_type":"html-keyboard-response","trial_index":54,"time_elapsed":837030,"internal_node_id":"0.0-54.0","subject":"S1C1222","sona":"41708","block":2,"time":"2021-09-17T02:22:29.791Z","response":"2nd","certainty":"high","char":"L","transposition":-1,"order":["shifted","swapped"],"probe_pitches":[1,-1,1,7,5,4,2,9,5,0,11,1],"shifted_pitches":[1,-1,1,7,5,4,3,9,5,0,11,1],"swapped_pitches":[1,-1,1,7,5,2,4,9,5,0,11,1],"shift_direction":1,"question_num":41,"has_decoy":false},{"rt":5373.100000000093,"stimulus":"[A] option 1, [L] option 2, [G] neither","key_press":76,"name":"choice","trial_type":"html-keyboard-response","trial_index":65,"time_elapsed":860826,"internal_node_id":"0.0-65.0","subject":"S1C1222","sona":"41708","block":2,"time":"2021-09-17T02:22:29.791Z","response":"2nd","certainty":"high","char":"L","transposition":-3,"order":["swapped","shifted"],"probe_pitches":[10,12,10,3,5,12,7,5,7,12,3,12],"shifted_pitches":[10,12,10,3,5,11,7,5,7,12,3,12],"swapped_pitches":[10,12,10,3,5,7,12,5,7,12,3,12],"shift_direction":-1,"question_num":51,"has_decoy":false},{"rt":1094.4000000003725,"stimulus":"[A] option 1, [L] option 2, [G] neither","key_press":65,"name":"choice","trial_type":"html-keyboard-response","trial_index":76,"time_elapsed":880565,"internal_node_id":"0.0-76.0","subject":"S1C1222","sona":"41708","block":2,"time":"2021-09-17T02:22:29.791Z","response":"1st","certainty":"high","char":"A","transposition":-3,"order":["shifted","swapped"],"probe_pitches":[6,9,8,3,11,3,6,1,0,11,6,8],"shifted_pitches":[6,9,8,3,11,2,6,1,0,11,6,8],"swapped_pitches":[6,9,8,3,11,6,3,1,0,11,6,8],"shift_direction":-1,"question_num":61,"has_decoy":false},{"rt":496.60000000009313,"stimulus":"[A] option 1, [L] option 2, [G] neither","key_press":65,"name":"choice","trial_type":"html-keyboard-response","trial_index":87,"time_elapsed":899411,"internal_node_id":"0.0-87.0","subject":"S1C1222","sona":"41708","block":2,"time":"2021-09-17T02:22:29.791Z","response":"1st","certainty":"high","char":"A","transposition":-3,"order":["shifted","swapped"],"probe_pitches":[12,7,12,7,9,7,12,2,7,2,4,9],"shifted_pitches":[12,7,12,7,9,8,12,2,7,2,4,9],"swapped_pitches":[12,7,12,7,9,12,7,2,7,2,4,9],"shift_direction":1,"question_num":71,"has_decoy":false},{"rt":3179.5,"stimulus":"[A] option 1, [L] option 2, [G] neither","key_press":76,"name":"choice","trial_type":"html-keyboard-response","trial_index":98,"time_elapsed":921503,"internal_node_id":"0.0-98.0","subject":"S1C1222","sona":"41708","block":2,"time":"2021-09-17T02:22:29.791Z","response":"2nd","certainty":"high","char":"L","transposition":-2,"order":["swapped","shifted"],"probe_pitches":[0,3,9,11,7,0,5,2,1,11,1,-1],"shifted_pitches":[0,3,9,11,7,0,6,2,1,11,1,-1],"swapped_pitches":[0,3,9,11,7,5,0,2,1,11,1,-1],"shift_direction":1,"question_num":81,"has_decoy":false},{"rt":319.79999999981374,"stimulus":"[A] option 1, [L] option 2, [G] neither","key_press":65,"name":"choice","trial_type":"html-keyboard-response","trial_index":109,"time_elapsed":940265,"internal_node_id":"0.0-109.0","subject":"S1C1222","sona":"41708","block":2,"time":"2021-09-17T02:22:29.791Z","response":"1st","certainty":"high","char":"A","transposition":1,"order":["swapped","shifted"],"probe_pitches":[6,0,3,9,6,7,2,10,11,-1,8,11],"shifted_pitches":[6,0,3,9,6,7,1,10,11,-1,8,11],"swapped_pitches":[6,0,3,9,6,2,7,10,11,-1,8,11],"shift_direction":-1,"question_num":91,"has_decoy":false},{"rt":499.3000000002794,"stimulus":"[A] option 1, [L] option 2, [G] neither","key_press":76,"name":"choice","trial_type":"html-keyboard-response","trial_index":120,"time_elapsed":962582,"internal_node_id":"0.0-120.0","subject":"S1C1222","sona":"41708","block":2,"time":"2021-09-17T02:22:29.791Z","response":"2nd","certainty":"high","char":"L","transposition":3,"order":["swapped","shifted"],"probe_pitches":[0,5,7,12,5,12,9,2,7,0,9,2],"shifted_pitches":[0,5,7,12,5,11,9,2,7,0,9,2],"swapped_pitches":[0,5,7,12,5,9,12,2,7,0,9,2],"shift_direction":-1,"question_num":101,"has_decoy":false},{"rt":378.1999999997206,"stimulus":"[A] option 1, [L] option 2, [G] neither","key_press":65,"name":"choice","trial_type":"html-keyboard-response","trial_index":131,"time_elapsed":983143,"internal_node_id":"0.0-131.0","subject":"S1C1222","sona":"41708","block":2,"time":"2021-09-17T02:22:29.791Z","response":"1st","certainty":"high","char":"A","transposition":-2,"order":["swapped","shifted"],"probe_pitches":[12,9,7,0,5,0,2,5,9,5,12,5],"shifted_pitches":[12,9,7,0,5,-1,2,5,9,5,12,5],"swapped_pitches":[12,9,7,0,5,2,0,5,9,5,12,5],"shift_direction":-1,"question_num":111,"has_decoy":false},{"rt":1615.5999999996275,"stimulus":"[A] option 1, [L] option 2, [G] neither","key_press":65,"name":"choice","trial_type":"html-keyboard-response","trial_index":142,"time_elapsed":1003591,"internal_node_id":"0.0-142.0","subject":"S1C1222","sona":"41708","block":2,"time":"2021-09-17T02:22:29.791Z","response":"1st","certainty":"high","char":"A","transposition":3,"order":["shifted","swapped"],"probe_pitches":[6,11,8,3,4,-1,2,0,-1,8,1,4],"shifted_pitches":[6,11,8,3,4,-2,2,0,-1,8,1,4],"swapped_pitches":[6,11,8,3,4,2,-1,0,-1,8,1,4],"shift_direction":-1,"question_num":121,"has_decoy":false},{"rt":334.39999999990687,"stimulus":"[A] option 1, [L] option 2, [G] neither","key_press":76,"name":"choice","trial_type":"html-keyboard-response","trial_index":153,"time_elapsed":1022831,"internal_node_id":"0.0-153.0","subject":"S1C1222","sona":"41708","block":2,"time":"2021-09-17T02:22:29.791Z","response":"2nd","certainty":"high","char":"L","transposition":2,"order":["swapped","shifted"],"probe_pitches":[0,6,5,7,5,9,3,10,2,1,10,1],"shifted_pitches":[0,6,5,7,5,9,4,10,2,1,10,1],"swapped_pitches":[0,6,5,7,5,3,9,10,2,1,10,1],"shift_direction":1,"question_num":131,"has_decoy":false},{"rt":10403.5,"stimulus":"[A] option 1, [L] option 2, [G] neither","key_press":65,"name":"choice","trial_type":"html-keyboard-response","trial_index":164,"time_elapsed":1051801,"internal_node_id":"0.0-164.0","subject":"S1C1222","sona":"41708","block":2,"time":"2021-09-17T02:22:29.791Z","response":"1st","certainty":"high","char":"A","transposition":2,"order":["shifted","swapped"],"probe_pitches":[8,5,10,12,3,10,0,12,10,3,5,10],"shifted_pitches":[8,5,10,12,3,10,-1,12,10,3,5,10],"swapped_pitches":[8,5,10,12,3,0,10,12,10,3,5,10],"shift_direction":-1,"question_num":141,"has_decoy":false},{"rt":3874.2000000001863,"stimulus":"[A] option 1, [L] option 2, [G] neither","key_press":65,"name":"choice","trial_type":"html-keyboard-response","trial_index":175,"time_elapsed":1076701,"internal_node_id":"0.0-175.0","subject":"S1C1222","sona":"41708","block":2,"time":"2021-09-17T02:22:29.791Z","response":"1st","certainty":"high","char":"A","transposition":0,"order":["swapped","shifted"],"probe_pitches":[8,3,1,8,-1,8,0,11,5,1,0,5],"shifted_pitches":[8,3,1,8,-1,9,0,11,5,1,0,5],"swapped_pitches":[8,3,1,8,-1,0,8,11,5,1,0,5],"shift_direction":1,"question_num":151,"has_decoy":false},{"rt":1310.4000000003725,"stimulus":"[A] option 1, [L] option 2, [G] neither","key_press":76,"name":"choice","trial_type":"html-keyboard-response","trial_index":186,"time_elapsed":1096552,"internal_node_id":"0.0-186.0","subject":"S1C1222","sona":"41708","block":2,"time":"2021-09-17T02:22:29.791Z","response":"2nd","certainty":"high","char":"L","transposition":-1,"order":["shifted","swapped"],"probe_pitches":[2,0,-1,7,10,8,4,0,2,-1,3,1],"shifted_pitches":[2,0,-1,7,10,8,5,0,2,-1,3,1],"swapped_pitches":[2,0,-1,7,10,4,8,0,2,-1,3,1],"shift_direction":1,"question_num":161,"has_decoy":false},{"rt":1393.9000000003725,"stimulus":"[A] option 1, [L] option 2, [G] neither","key_press":76,"name":"choice","trial_type":"html-keyboard-response","trial_index":197,"time_elapsed":1116518,"internal_node_id":"0.0-197.0","subject":"S1C1222","sona":"41708","block":2,"time":"2021-09-17T02:22:29.791Z","response":"2nd","certainty":"high","char":"L","transposition":0,"order":["swapped","shifted"],"probe_pitches":[10,7,12,10,2,5,10,0,7,10,5,7],"shifted_pitches":[10,7,12,10,2,6,10,0,7,10,5,7],"swapped_pitches":[10,7,12,10,2,10,5,0,7,10,5,7],"shift_direction":1,"question_num":171,"has_decoy":false},{"rt":1187,"stimulus":"[A] option 1, [L] option 2, [G] neither","key_press":65,"name":"choice","trial_type":"html-keyboard-response","trial_index":208,"time_elapsed":1135937,"internal_node_id":"0.0-208.0","subject":"S1C1222","sona":"41708","block":2,"time":"2021-09-17T02:22:29.791Z","response":"1st","certainty":"high","char":"A","transposition":1,"order":["shifted","swapped"],"probe_pitches":[7,5,7,2,0,2,7,5,10,2,7,2],"shifted_pitches":[7,5,7,2,0,2,8,5,10,2,7,2],"swapped_pitches":[7,5,7,2,0,7,2,5,10,2,7,2],"shift_direction":1,"question_num":181,"has_decoy":false},{"rt":9953.100000000093,"stimulus":"[A] option 1, [L] option 2, [G] neither","key_press":65,"name":"choice","trial_type":"html-keyboard-response","trial_index":219,"time_elapsed":1165305,"internal_node_id":"0.0-219.0","subject":"S1C1222","sona":"41708","block":2,"time":"2021-09-17T02:22:29.791Z","response":"1st","certainty":"high","char":"A","transposition":-2,"order":["shifted","swapped"],"probe_pitches":[2,0,2,7,2,7,4,0,9,12,4,7],"shifted_pitches":[2,0,2,7,2,7,3,0,9,12,4,7],"swapped_pitches":[2,0,2,7,2,4,7,0,9,12,4,7],"shift_direction":-1,"question_num":191,"has_decoy":false}]