[{"rt":10340.5,"stimulus":"[A] option 1, [L] option 2, [G] neither","key_press":76,"name":"choice","trial_type":"html-keyboard-response","trial_index":15,"time_elapsed":124610,"internal_node_id":"0.0-15.0","response":"2nd","certainty":"high","char":"L","transposition":-3,"order":["shifted","swapped"],"probe_pitches":[4,1,8,12,5,8,2,6,1,6,12,6],"shifted_pitches":[4,1,8,12,5,9,2,6,1,6,12,6],"swapped_pitches":[4,1,8,12,5,2,8,6,1,6,12,6],"shift_direction":1,"question_num":1,"has_decoy":false,"subject":"S1C1222","sona":"41708","block":1,"time":"2021-09-17T02:03:01.998Z"},{"rt":5162.09999999986,"stimulus":"[A] option 1, [L] option 2, [G] neither","key_press":76,"name":"choice","trial_type":"html-keyboard-response","trial_index":26,"time_elapsed":153209,"internal_node_id":"0.0-26.0","response":"2nd","certainty":"high","char":"L","transposition":-2,"order":["shifted","swapped"],"probe_pitches":[7,2,0,-3,4,-3,7,9,2,0,2,4],"shifted_pitches":[7,2,0,-3,4,-4,7,9,2,0,2,4],"swapped_pitches":[7,2,0,-3,4,7,-3,9,2,0,2,4],"shift_direction":-1,"question_num":11,"has_decoy":false,"subject":"S1C1222","sona":"41708","block":1,"time":"2021-09-17T02:03:01.998Z"},{"rt":2509.6999999999534,"stimulus":"[A] option 1, [L] option 2, [G] neither","key_press":76,"name":"choice","trial_type":"html-keyboard-response","trial_index":37,"time_elapsed":175131,"internal_node_id":"0.0-37.0","response":"2nd","certainty":"high","char":"L","transposition":2,"order":["swapped","shifted"],"probe_pitches":[5,4,10,3,10,3,7,1,4,11,5,3],"shifted_pitches":[5,4,10,3,10,3,8,1,4,11,5,3],"swapped_pitches":[5,4,10,3,10,7,3,1,4,11,5,3],"shift_direction":1,"question_num":21,"has_decoy":false,"subject":"S1C1222","sona":"41708","block":1,"time":"2021-09-17T02:03:01.998Z"},{"rt":1196.7999999998137,"stimulus":"[A] option 1, [L] option 2, [G] neither","key_press":76,"name":"choice","trial_type":"html-keyboard-response","trial_index":48,"time_elapsed":196948,"internal_node_id":"0.0-48.0","response":"2nd","certainty":"high","char":"L","transposition":-1,"order":["swapped","shifted"],"probe_pitches":[3,9,13,5,8,5,10,9,2,6,8,12],"shifted_pitches":[3,9,13,5,8,4,10,9,2,6,8,12],"swapped_pitches":[3,9,13,5,8,10,5,9,2,6,8,12],"shift_direction":-1,"question_num":31,"has_decoy":false,"subject":"S1C1222","sona":"41708","block":1,"time":"2021-09-17T02:03:01.998Z"},{"rt":1534.5,"stimulus":"[A] option 1, [L] option 2, [G] neither","key_press":65,"name":"choice","trial_type":"html-keyboard-response","trial_index":59,"time_elapsed":217883,"internal_node_id":"0.0-59.0","response":"1st","certainty":"high","char":"A","transposition":-1,"order":["shifted","swapped"],"probe_pitches":[9,6,7,6,2,4,13,1,13,1,11,1],"shifted_pitches":[9,6,7,6,2,3,13,1,13,1,11,1],"swapped_pitches":[9,6,7,6,2,13,4,1,13,1,11,1],"shift_direction":-1,"question_num":41,"has_decoy":false,"subject":"S1C1222","sona":"41708","block":1,"time":"2021-09-17T02:03:01.998Z"},{"rt":1160.6000000000931,"stimulus":"[A] option 1, [L] option 2, [G] neither","key_press":76,"name":"choice","trial_type":"html-keyboard-response","trial_index":70,"time_elapsed":238263,"internal_node_id":"0.0-70.0","response":"2nd","certainty":"high","char":"L","transposition":3,"order":["shifted","swapped"],"probe_pitches":[-3,-1,1,4,6,1,9,6,1,4,-1,6],"shifted_pitches":[-3,-1,1,4,6,1,8,6,1,4,-1,6],"swapped_pitches":[-3,-1,1,4,6,9,1,6,1,4,-1,6],"shift_direction":-1,"question_num":51,"has_decoy":false,"subject":"S1C1222","sona":"41708","block":1,"time":"2021-09-17T02:03:01.998Z"},{"rt":1168.3999999999069,"stimulus":"[A] option 1, [L] option 2, [G] neither","key_press":65,"name":"choice","trial_type":"html-keyboard-response","trial_index":81,"time_elapsed":258528,"internal_node_id":"0.0-81.0","response":"1st","certainty":"high","char":"A","transposition":-3,"order":["shifted","swapped"],"probe_pitches":[6,2,7,10,7,11,2,4,3,11,7,5],"shifted_pitches":[6,2,7,10,7,12,2,4,3,11,7,5],"swapped_pitches":[6,2,7,10,7,2,11,4,3,11,7,5],"shift_direction":1,"question_num":61,"has_decoy":false,"subject":"S1C1222","sona":"41708","block":1,"time":"2021-09-17T02:03:01.998Z"},{"rt":8573.5,"stimulus":"[A] option 1, [L] option 2, [G] neither","key_press":76,"name":"choice","trial_type":"html-keyboard-response","trial_index":92,"time_elapsed":286895,"internal_node_id":"0.0-92.0","response":"2nd","certainty":"high","char":"L","transposition":2,"order":["swapped","shifted"],"probe_pitches":[-3,0,2,7,0,2,9,0,2,7,4,0],"shifted_pitches":[-3,0,2,7,0,3,9,0,2,7,4,0],"swapped_pitches":[-3,0,2,7,0,9,2,0,2,7,4,0],"shift_direction":1,"question_num":71,"has_decoy":false,"subject":"S1C1222","sona":"41708","block":1,"time":"2021-09-17T02:03:01.998Z"},{"rt":2467.100000000093,"stimulus":"[A] option 1, [L] option 2, [G] neither","key_press":65,"name":"choice","trial_type":"html-keyboard-response","trial_index":103,"time_elapsed":307865,"internal_node_id":"0.0-103.0","response":"1st","certainty":"high","char":"A","transposition":0,"order":["shifted","swapped"],"probe_pitches":[5,3,10,5,4,11,5,2,9,4,12,7],"shifted_pitches":[5,3,10,5,4,11,6,2,9,4,12,7],"swapped_pitches":[5,3,10,5,4,5,11,2,9,4,12,7],"shift_direction":1,"question_num":81,"has_decoy":false,"subject":"S1C1222","sona":"41708","block":1,"time":"2021-09-17T02:03:01.998Z"},{"rt":1218.5,"stimulus":"[A] option 1, [L] option 2, [G] neither","key_press":65,"name":"choice","trial_type":"html-keyboard-response","trial_index":114,"time_elapsed":328660,"internal_node_id":"0.0-114.0","response":"1st","certainty":"high","char":"A","transposition":-3,"order":["shifted","swapped"],"probe_pitches":[-1,2,-1,2,4,6,-1,2,-1,-3,4,2],"shifted_pitches":[-1,2,-1,2,4,7,-1,2,-1,-3,4,2],"swapped_pitches":[-1,2,-1,2,4,-1,6,2,-1,-3,4,2],"shift_direction":1,"question_num":91,"has_decoy":false,"subject":"S1C1222","sona":"41708","block":1,"time":"2021-09-17T02:03:01.998Z"},{"rt":1788,"stimulus":"[A] option 1, [L] option 2, [G] neither","key_press":65,"name":"choice","trial_type":"html-keyboard-response","trial_index":125,"time_elapsed":348807,"internal_node_id":"0.0-125.0","response":"1st","certainty":"high","char":"A","transposition":-1,"order":["shifted","swapped"],"probe_pitches":[1,-3,4,-3,6,9,4,6,-1,1,6,9],"shifted_pitches":[1,-3,4,-3,6,8,4,6,-1,1,6,9],"swapped_pitches":[1,-3,4,-3,6,4,9,6,-1,1,6,9],"shift_direction":-1,"question_num":101,"has_decoy":false,"subject":"S1C1222","sona":"41708","block":1,"time":"2021-09-17T02:03:01.998Z"},{"rt":1354.1000000000931,"stimulus":"[A] option 1, [L] option 2, [G] neither","key_press":76,"name":"choice","trial_type":"html-keyboard-response","trial_index":136,"time_elapsed":370841,"internal_node_id":"0.0-136.0","response":"2nd","certainty":"high","char":"L","transposition":-2,"order":["swapped","shifted"],"probe_pitches":[12,7,11,8,1,11,4,13,7,5,3,5],"shifted_pitches":[12,7,11,8,1,10,4,13,7,5,3,5],"swapped_pitches":[12,7,11,8,1,4,11,13,7,5,3,5],"shift_direction":-1,"question_num":111,"has_decoy":false,"subject":"S1C1222","sona":"41708","block":1,"time":"2021-09-17T02:03:01.998Z"},{"rt":548.4000000003725,"stimulus":"[A] option 1, [L] option 2, [G] neither","key_press":76,"name":"choice","trial_type":"html-keyboard-response","trial_index":147,"time_elapsed":390013,"internal_node_id":"0.0-147.0","response":"2nd","certainty":"high","char":"L","transposition":-1,"order":["swapped","shifted"],"probe_pitches":[2,0,2,5,2,0,5,2,9,7,-3,9],"shifted_pitches":[2,0,2,5,2,1,5,2,9,7,-3,9],"swapped_pitches":[2,0,2,5,2,5,0,2,9,7,-3,9],"shift_direction":1,"question_num":121,"has_decoy":false,"subject":"S1C1222","sona":"41708","block":1,"time":"2021-09-17T02:03:01.998Z"},{"rt":444,"stimulus":"[A] option 1, [L] option 2, [G] neither","key_press":76,"name":"choice","trial_type":"html-keyboard-response","trial_index":158,"time_elapsed":409391,"internal_node_id":"0.0-158.0","response":"2nd","certainty":"high","char":"L","transposition":-2,"order":["swapped","shifted"],"probe_pitches":[4,-1,-3,2,7,4,2,7,4,-1,4,7],"shifted_pitches":[4,-1,-3,2,7,4,3,7,4,-1,4,7],"swapped_pitches":[4,-1,-3,2,7,2,4,7,4,-1,4,7],"shift_direction":1,"question_num":131,"has_decoy":false,"subject":"S1C1222","sona":"41708","block":1,"time":"2021-09-17T02:03:01.998Z"},{"rt":4197.799999999814,"stimulus":"[A] option 1, [L] option 2, [G] neither","key_press":65,"name":"choice","trial_type":"html-keyboard-response","trial_index":169,"time_elapsed":437074,"internal_node_id":"0.0-169.0","response":"1st","certainty":"high","char":"A","transposition":3,"order":["shifted","swapped"],"probe_pitches":[1,3,4,1,3,1,8,11,13,12,2,1],"shifted_pitches":[1,3,4,1,3,1,7,11,13,12,2,1],"swapped_pitches":[1,3,4,1,3,8,1,11,13,12,2,1],"shift_direction":-1,"question_num":141,"has_decoy":false,"subject":"S1C1222","sona":"41708","block":1,"time":"2021-09-17T02:03:01.998Z"},{"rt":454.39999999990687,"stimulus":"[A] option 1, [L] option 2, [G] neither","key_press":65,"name":"choice","trial_type":"html-keyboard-response","trial_index":180,"time_elapsed":456695,"internal_node_id":"0.0-180.0","response":"1st","certainty":"high","char":"A","transposition":-2,"order":["swapped","shifted"],"probe_pitches":[4,7,10,11,6,8,4,1,12,10,13,7],"shifted_pitches":[4,7,10,11,6,8,5,1,12,10,13,7],"swapped_pitches":[4,7,10,11,6,4,8,1,12,10,13,7],"shift_direction":1,"question_num":151,"has_decoy":false,"subject":"S1C1222","sona":"41708","block":1,"time":"2021-09-17T02:03:01.998Z"},{"rt":1392.2000000001863,"stimulus":"[A] option 1, [L] option 2, [G] neither","key_press":76,"name":"choice","trial_type":"html-keyboard-response","trial_index":191,"time_elapsed":477119,"internal_node_id":"0.0-191.0","response":"2nd","certainty":"high","char":"L","transposition":1,"order":["swapped","shifted"],"probe_pitches":[9,3,1,2,4,8,12,10,8,2,5,4],"shifted_pitches":[9,3,1,2,4,8,11,10,8,2,5,4],"swapped_pitches":[9,3,1,2,4,12,8,10,8,2,5,4],"shift_direction":-1,"question_num":161,"has_decoy":false,"subject":"S1C1222","sona":"41708","block":1,"time":"2021-09-17T02:03:01.998Z"},{"rt":7336.9000000003725,"stimulus":"[A] option 1, [L] option 2, [G] neither","key_press":65,"name":"choice","trial_type":"html-keyboard-response","trial_index":202,"time_elapsed":504636,"internal_node_id":"0.0-202.0","response":"1st","certainty":"high","char":"A","transposition":0,"order":["swapped","shifted"],"probe_pitches":[-3,0,-3,5,9,2,5,-3,7,-3,7,5],"shifted_pitches":[-3,0,-3,5,9,2,4,-3,7,-3,7,5],"swapped_pitches":[-3,0,-3,5,9,5,2,-3,7,-3,7,5],"shift_direction":-1,"question_num":171,"has_decoy":false,"subject":"S1C1222","sona":"41708","block":1,"time":"2021-09-17T02:03:01.998Z"},{"rt":915.5,"stimulus":"[A] option 1, [L] option 2, [G] neither","key_press":76,"name":"choice","trial_type":"html-keyboard-response","trial_index":213,"time_elapsed":524380,"internal_node_id":"0.0-213.0","response":"2nd","certainty":"high","char":"L","transposition":-3,"order":["shifted","swapped"],"probe_pitches":[9,4,9,7,4,-1,7,4,-1,4,-1,2],"shifted_pitches":[9,4,9,7,4,-1,8,4,-1,4,-1,2],"swapped_pitches":[9,4,9,7,4,7,-1,4,-1,4,-1,2],"shift_direction":1,"question_num":181,"has_decoy":false,"subject":"S1C1222","sona":"41708","block":1,"time":"2021-09-17T02:03:01.998Z"},{"rt":961,"stimulus":"[A] option 1, [L] option 2, [G] neither","key_press":76,"name":"choice","trial_type":"html-keyboard-response","trial_index":224,"time_elapsed":543938,"internal_node_id":"0.0-224.0","response":"2nd","certainty":"high","char":"L","transposition":1,"order":["swapped","shifted"],"probe_pitches":[9,6,9,6,-1,6,4,-3,6,9,2,4],"shifted_pitches":[9,6,9,6,-1,6,3,-3,6,9,2,4],"swapped_pitches":[9,6,9,6,-1,4,6,-3,6,9,2,4],"shift_direction":-1,"question_num":191,"has_decoy":false,"subject":"S1C1222","sona":"41708","block":1,"time":"2021-09-17T02:03:01.998Z"}]