[{"rt":474.40000000037253,"stimulus":"[A] option 1, [L] option 2, [G] neither","key_press":65,"name":"choice","trial_type":"html-keyboard-response","trial_index":10,"time_elapsed":23554,"internal_node_id":"0.0-10.0","subject":"S1C1222","sona":"41708","block":5,"time":"2021-09-17T02:53:40.503Z","response":"1st","certainty":"high","char":"A","transposition":-3,"order":["swapped","shifted"],"probe_pitches":[10,4,7,2,3,10,2,1,4,-2,4,-1],"shifted_pitches":[10,4,7,2,3,9,2,1,4,-2,4,-1],"swapped_pitches":[10,4,7,2,3,2,10,1,4,-2,4,-1],"shift_direction":-1,"question_num":1,"has_decoy":false},{"rt":1522.0999999996275,"stimulus":"[A] option 1, [L] option 2, [G] neither","key_press":76,"name":"choice","trial_type":"html-keyboard-response","trial_index":21,"time_elapsed":43689,"internal_node_id":"0.0-21.0","subject":"S1C1222","sona":"41708","block":5,"time":"2021-09-17T02:53:40.503Z","response":"2nd","certainty":"high","char":"L","transposition":-2,"order":["swapped","shifted"],"probe_pitches":[5,4,0,3,9,3,8,4,2,6,-1,10],"shifted_pitches":[5,4,0,3,9,3,7,4,2,6,-1,10],"swapped_pitches":[5,4,0,3,9,8,3,4,2,6,-1,10],"shift_direction":-1,"question_num":11,"has_decoy":false},{"rt":4742.200000000186,"stimulus":"[A] option 1, [L] option 2, [G] neither","key_press":76,"name":"choice","trial_type":"html-keyboard-response","trial_index":32,"time_elapsed":67180,"internal_node_id":"0.0-32.0","subject":"S1C1222","sona":"41708","block":5,"time":"2021-09-17T02:53:40.503Z","response":"2nd","certainty":"high","char":"L","transposition":2,"order":["shifted","swapped"],"probe_pitches":[2,-2,5,0,7,0,2,-2,2,5,7,2],"shifted_pitches":[2,-2,5,0,7,1,2,-2,2,5,7,2],"swapped_pitches":[2,-2,5,0,7,2,0,-2,2,5,7,2],"shift_direction":1,"question_num":21,"has_decoy":false},{"rt":636.4000000003725,"stimulus":"[A] option 1, [L] option 2, [G] neither","key_press":76,"name":"choice","trial_type":"html-keyboard-response","trial_index":43,"time_elapsed":86301,"internal_node_id":"0.0-43.0","subject":"S1C1222","sona":"41708","block":5,"time":"2021-09-17T02:53:40.503Z","response":"2nd","certainty":"high","char":"L","transposition":-1,"order":["shifted","swapped"],"probe_pitches":[0,3,5,-1,5,10,0,-1,8,10,6,0],"shifted_pitches":[0,3,5,-1,5,10,1,-1,8,10,6,0],"swapped_pitches":[0,3,5,-1,5,0,10,-1,8,10,6,0],"shift_direction":1,"question_num":31,"has_decoy":false},{"rt":2992.9000000003725,"stimulus":"[A] option 1, [L] option 2, [G] neither","key_press":76,"name":"choice","trial_type":"html-keyboard-response","trial_index":54,"time_elapsed":108961,"internal_node_id":"0.0-54.0","subject":"S1C1222","sona":"41708","block":5,"time":"2021-09-17T02:53:40.503Z","response":"2nd","certainty":"high","char":"L","transposition":3,"order":["swapped","shifted"],"probe_pitches":[7,2,-2,5,10,7,5,10,7,0,5,10],"shifted_pitches":[7,2,-2,5,10,8,5,10,7,0,5,10],"swapped_pitches":[7,2,-2,5,10,5,7,10,7,0,5,10],"shift_direction":1,"question_num":41,"has_decoy":false},{"rt":1653.7000000001863,"stimulus":"[A] option 1, [L] option 2, [G] neither","key_press":65,"name":"choice","trial_type":"html-keyboard-response","trial_index":65,"time_elapsed":129557,"internal_node_id":"0.0-65.0","subject":"S1C1222","sona":"41708","block":5,"time":"2021-09-17T02:53:40.503Z","response":"1st","certainty":"high","char":"A","transposition":-1,"order":["shifted","swapped"],"probe_pitches":[3,0,-2,5,7,3,10,-2,0,7,-2,7],"shifted_pitches":[3,0,-2,5,7,3,9,-2,0,7,-2,7],"swapped_pitches":[3,0,-2,5,7,10,3,-2,0,7,-2,7],"shift_direction":-1,"question_num":51,"has_decoy":false},{"rt":934.9000000003725,"stimulus":"[A] option 1, [L] option 2, [G] neither","key_press":76,"name":"choice","trial_type":"html-keyboard-response","trial_index":76,"time_elapsed":148684,"internal_node_id":"0.0-76.0","subject":"S1C1222","sona":"41708","block":5,"time":"2021-09-17T02:53:40.503Z","response":"2nd","certainty":"high","char":"L","transposition":-2,"order":["swapped","shifted"],"probe_pitches":[8,5,8,10,3,-2,1,5,1,-2,5,8],"shifted_pitches":[8,5,8,10,3,-3,1,5,1,-2,5,8],"swapped_pitches":[8,5,8,10,3,1,-2,5,1,-2,5,8],"shift_direction":-1,"question_num":61,"has_decoy":false},{"rt":599.1000000005588,"stimulus":"[A] option 1, [L] option 2, [G] neither","key_press":76,"name":"choice","trial_type":"html-keyboard-response","trial_index":87,"time_elapsed":167638,"internal_node_id":"0.0-87.0","subject":"S1C1222","sona":"41708","block":5,"time":"2021-09-17T02:53:40.503Z","response":"2nd","certainty":"high","char":"L","transposition":-2,"order":["swapped","shifted"],"probe_pitches":[1,-2,5,1,3,8,10,1,3,-2,10,5],"shifted_pitches":[1,-2,5,1,3,8,11,1,3,-2,10,5],"swapped_pitches":[1,-2,5,1,3,10,8,1,3,-2,10,5],"shift_direction":1,"question_num":71,"has_decoy":false},{"rt":1552.0999999996275,"stimulus":"[A] option 1, [L] option 2, [G] neither","key_press":76,"name":"choice","trial_type":"html-keyboard-response","trial_index":98,"time_elapsed":187603,"internal_node_id":"0.0-98.0","subject":"S1C1222","sona":"41708","block":5,"time":"2021-09-17T02:53:40.503Z","response":"2nd","certainty":"high","char":"L","transposition":-1,"order":["shifted","swapped"],"probe_pitches":[5,10,8,3,8,0,5,3,0,10,5,-2],"shifted_pitches":[5,10,8,3,8,0,6,3,0,10,5,-2],"swapped_pitches":[5,10,8,3,8,5,0,3,0,10,5,-2],"shift_direction":1,"question_num":81,"has_decoy":false},{"rt":3850.399999999441,"stimulus":"[A] option 1, [L] option 2, [G] neither","key_press":65,"name":"choice","trial_type":"html-keyboard-response","trial_index":109,"time_elapsed":209912,"internal_node_id":"0.0-109.0","subject":"S1C1222","sona":"41708","block":5,"time":"2021-09-17T02:53:40.503Z","response":"1st","certainty":"high","char":"A","transposition":2,"order":["swapped","shifted"],"probe_pitches":[0,2,9,8,2,4,6,8,6,10,7,1],"shifted_pitches":[0,2,9,8,2,3,6,8,6,10,7,1],"swapped_pitches":[0,2,9,8,2,6,4,8,6,10,7,1],"shift_direction":-1,"question_num":91,"has_decoy":false},{"rt":430,"stimulus":"[A] option 1, [L] option 2, [G] neither","key_press":65,"name":"choice","trial_type":"html-keyboard-response","trial_index":120,"time_elapsed":254607,"internal_node_id":"0.0-120.0","subject":"S1C1222","sona":"41708","block":5,"time":"2021-09-17T02:53:40.503Z","response":"1st","certainty":"high","char":"A","transposition":-3,"order":["shifted","swapped"],"probe_pitches":[-2,0,-2,3,-2,8,5,0,8,-2,0,10],"shifted_pitches":[-2,0,-2,3,-2,8,4,0,8,-2,0,10],"swapped_pitches":[-2,0,-2,3,-2,5,8,0,8,-2,0,10],"shift_direction":-1,"question_num":101,"has_decoy":false},{"rt":1668.5,"stimulus":"[A] option 1, [L] option 2, [G] neither","key_press":76,"name":"choice","trial_type":"html-keyboard-response","trial_index":131,"time_elapsed":275797,"internal_node_id":"0.0-131.0","subject":"S1C1222","sona":"41708","block":5,"time":"2021-09-17T02:53:40.503Z","response":"2nd","certainty":"high","char":"L","transposition":-3,"order":["shifted","swapped"],"probe_pitches":[3,1,3,1,3,6,8,-2,6,3,8,3],"shifted_pitches":[3,1,3,1,3,7,8,-2,6,3,8,3],"swapped_pitches":[3,1,3,1,3,8,6,-2,6,3,8,3],"shift_direction":1,"question_num":111,"has_decoy":false},{"rt":1482.5999999996275,"stimulus":"[A] option 1, [L] option 2, [G] neither","key_press":65,"name":"choice","trial_type":"html-keyboard-response","trial_index":142,"time_elapsed":297157,"internal_node_id":"0.0-142.0","subject":"S1C1222","sona":"41708","block":5,"time":"2021-09-17T02:53:40.503Z","response":"1st","certainty":"high","char":"A","transposition":1,"order":["shifted","swapped"],"probe_pitches":[-2,2,6,7,5,-1,3,6,2,3,10,7],"shifted_pitches":[-2,2,6,7,5,0,3,6,2,3,10,7],"swapped_pitches":[-2,2,6,7,5,3,-1,6,2,3,10,7],"shift_direction":1,"question_num":121,"has_decoy":false},{"rt":749,"stimulus":"[A] option 1, [L] option 2, [G] neither","key_press":65,"name":"choice","trial_type":"html-keyboard-response","trial_index":153,"time_elapsed":317298,"internal_node_id":"0.0-153.0","subject":"S1C1222","sona":"41708","block":5,"time":"2021-09-17T02:53:40.503Z","response":"1st","certainty":"high","char":"A","transposition":3,"order":["shifted","swapped"],"probe_pitches":[-1,0,7,4,7,3,0,4,5,4,6,0],"shifted_pitches":[-1,0,7,4,7,2,0,4,5,4,6,0],"swapped_pitches":[-1,0,7,4,7,0,3,4,5,4,6,0],"shift_direction":-1,"question_num":131,"has_decoy":false},{"rt":889.2999999998137,"stimulus":"[A] option 1, [L] option 2, [G] neither","key_press":65,"name":"choice","trial_type":"html-keyboard-response","trial_index":164,"time_elapsed":336985,"internal_node_id":"0.0-164.0","subject":"S1C1222","sona":"41708","block":5,"time":"2021-09-17T02:53:40.503Z","response":"1st","certainty":"high","char":"A","transposition":-3,"order":["shifted","swapped"],"probe_pitches":[3,5,8,7,1,-2,3,2,10,-2,3,9],"shifted_pitches":[3,5,8,7,1,-2,4,2,10,-2,3,9],"swapped_pitches":[3,5,8,7,1,3,-2,2,10,-2,3,9],"shift_direction":1,"question_num":141,"has_decoy":false},{"rt":1463.6000000005588,"stimulus":"[A] option 1, [L] option 2, [G] neither","key_press":76,"name":"choice","trial_type":"html-keyboard-response","trial_index":175,"time_elapsed":357500,"internal_node_id":"0.0-175.0","subject":"S1C1222","sona":"41708","block":5,"time":"2021-09-17T02:53:40.503Z","response":"2nd","certainty":"high","char":"L","transposition":0,"order":["swapped","shifted"],"probe_pitches":[-2,3,5,-2,3,7,-2,5,0,7,0,3],"shifted_pitches":[-2,3,5,-2,3,6,-2,5,0,7,0,3],"swapped_pitches":[-2,3,5,-2,3,-2,7,5,0,7,0,3],"shift_direction":-1,"question_num":151,"has_decoy":false},{"rt":2174.9000000003725,"stimulus":"[A] option 1, [L] option 2, [G] neither","key_press":65,"name":"choice","trial_type":"html-keyboard-response","trial_index":186,"time_elapsed":378136,"internal_node_id":"0.0-186.0","subject":"S1C1222","sona":"41708","block":5,"time":"2021-09-17T02:53:40.503Z","response":"1st","certainty":"high","char":"A","transposition":1,"order":["swapped","shifted"],"probe_pitches":[6,3,10,8,3,1,6,10,1,10,1,8],"shifted_pitches":[6,3,10,8,3,1,5,10,1,10,1,8],"swapped_pitches":[6,3,10,8,3,6,1,10,1,10,1,8],"shift_direction":-1,"question_num":161,"has_decoy":false},{"rt":1182.7000000001863,"stimulus":"[A] option 1, [L] option 2, [G] neither","key_press":76,"name":"choice","trial_type":"html-keyboard-response","trial_index":197,"time_elapsed":397634,"internal_node_id":"0.0-197.0","subject":"S1C1222","sona":"41708","block":5,"time":"2021-09-17T02:53:40.503Z","response":"2nd","certainty":"high","char":"L","transposition":-1,"order":["swapped","shifted"],"probe_pitches":[-2,3,8,9,10,4,0,8,7,-1,6,-1],"shifted_pitches":[-2,3,8,9,10,5,0,8,7,-1,6,-1],"swapped_pitches":[-2,3,8,9,10,0,4,8,7,-1,6,-1],"shift_direction":1,"question_num":171,"has_decoy":false},{"rt":366.30000000074506,"stimulus":"[A] option 1, [L] option 2, [G] neither","key_press":65,"name":"choice","trial_type":"html-keyboard-response","trial_index":208,"time_elapsed":416347,"internal_node_id":"0.0-208.0","subject":"S1C1222","sona":"41708","block":5,"time":"2021-09-17T02:53:40.503Z","response":"1st","certainty":"high","char":"A","transposition":0,"order":["shifted","swapped"],"probe_pitches":[1,3,0,1,5,1,7,5,4,0,6,10],"shifted_pitches":[1,3,0,1,5,1,8,5,4,0,6,10],"swapped_pitches":[1,3,0,1,5,7,1,5,4,0,6,10],"shift_direction":1,"question_num":181,"has_decoy":false},{"rt":460.29999999981374,"stimulus":"[A] option 1, [L] option 2, [G] neither","key_press":76,"name":"choice","trial_type":"html-keyboard-response","trial_index":219,"time_elapsed":437561,"internal_node_id":"0.0-219.0","subject":"S1C1222","sona":"41708","block":5,"time":"2021-09-17T02:53:40.503Z","response":"2nd","certainty":"high","char":"L","transposition":-2,"order":["swapped","shifted"],"probe_pitches":[8,3,0,4,0,3,7,-2,1,10,8,-1],"shifted_pitches":[8,3,0,4,0,3,6,-2,1,10,8,-1],"swapped_pitches":[8,3,0,4,0,7,3,-2,1,10,8,-1],"shift_direction":-1,"question_num":191,"has_decoy":false}]