[{"rt":389.60000000009313,"stimulus":"[A] option 1, [L] option 2, [G] neither","key_press":76,"name":"choice","trial_type":"html-keyboard-response","trial_index":10,"time_elapsed":22407,"internal_node_id":"0.0-10.0","subject":"S1C1222","sona":"41708","block":4,"time":"2021-09-17T02:40:18.989Z","response":"2nd","certainty":"high","char":"L","transposition":1,"order":["shifted","swapped"],"probe_pitches":[0,3,6,1,6,5,3,9,0,2,7,0],"shifted_pitches":[0,3,6,1,6,5,4,9,0,2,7,0],"swapped_pitches":[0,3,6,1,6,3,5,9,0,2,7,0],"shift_direction":1,"question_num":1,"has_decoy":false},{"rt":29501.400000000373,"stimulus":"[A] option 1, [L] option 2, [G] neither","key_press":65,"name":"choice","trial_type":"html-keyboard-response","trial_index":21,"time_elapsed":71214,"internal_node_id":"0.0-21.0","subject":"S1C1222","sona":"41708","block":4,"time":"2021-09-17T02:40:18.989Z","response":"1st","certainty":"high","char":"A","transposition":-3,"order":["shifted","swapped"],"probe_pitches":[8,3,4,5,-3,3,8,4,7,5,9,-1],"shifted_pitches":[8,3,4,5,-3,2,8,4,7,5,9,-1],"swapped_pitches":[8,3,4,5,-3,8,3,4,7,5,9,-1],"shift_direction":-1,"question_num":11,"has_decoy":false},{"rt":3433.100000000559,"stimulus":"[A] option 1, [L] option 2, [G] neither","key_press":65,"name":"choice","trial_type":"html-keyboard-response","trial_index":32,"time_elapsed":99111,"internal_node_id":"0.0-32.0","subject":"S1C1222","sona":"41708","block":4,"time":"2021-09-17T02:40:18.989Z","response":"1st","certainty":"high","char":"A","transposition":-3,"order":["shifted","swapped"],"probe_pitches":[0,1,-2,-1,6,-1,4,-3,9,2,6,9],"shifted_pitches":[0,1,-2,-1,6,-1,3,-3,9,2,6,9],"swapped_pitches":[0,1,-2,-1,6,4,-1,-3,9,2,6,9],"shift_direction":-1,"question_num":21,"has_decoy":false},{"rt":2698.800000000745,"stimulus":"[A] option 1, [L] option 2, [G] neither","key_press":76,"name":"choice","trial_type":"html-keyboard-response","trial_index":43,"time_elapsed":120819,"internal_node_id":"0.0-43.0","subject":"S1C1222","sona":"41708","block":4,"time":"2021-09-17T02:40:18.989Z","response":"2nd","certainty":"high","char":"L","transposition":-2,"order":["shifted","swapped"],"probe_pitches":[7,9,4,9,2,7,4,-3,-1,9,7,4],"shifted_pitches":[7,9,4,9,2,7,3,-3,-1,9,7,4],"swapped_pitches":[7,9,4,9,2,4,7,-3,-1,9,7,4],"shift_direction":-1,"question_num":31,"has_decoy":false},{"rt":483.09999999962747,"stimulus":"[A] option 1, [L] option 2, [G] neither","key_press":65,"name":"choice","trial_type":"html-keyboard-response","trial_index":54,"time_elapsed":141835,"internal_node_id":"0.0-54.0","subject":"S1C1222","sona":"41708","block":4,"time":"2021-09-17T02:40:18.989Z","response":"1st","certainty":"high","char":"A","transposition":-2,"order":["shifted","swapped"],"probe_pitches":[-1,2,9,2,-3,4,6,9,6,-1,4,2],"shifted_pitches":[-1,2,9,2,-3,4,5,9,6,-1,4,2],"swapped_pitches":[-1,2,9,2,-3,6,4,9,6,-1,4,2],"shift_direction":-1,"question_num":41,"has_decoy":false},{"rt":4021.7999999998137,"stimulus":"[A] option 1, [L] option 2, [G] neither","key_press":76,"name":"choice","trial_type":"html-keyboard-response","trial_index":65,"time_elapsed":164519,"internal_node_id":"0.0-65.0","subject":"S1C1222","sona":"41708","block":4,"time":"2021-09-17T02:40:18.989Z","response":"2nd","certainty":"high","char":"L","transposition":0,"order":["swapped","shifted"],"probe_pitches":[2,7,9,7,2,5,7,2,-3,5,2,0],"shifted_pitches":[2,7,9,7,2,6,7,2,-3,5,2,0],"swapped_pitches":[2,7,9,7,2,7,5,2,-3,5,2,0],"shift_direction":1,"question_num":51,"has_decoy":false},{"rt":1160.3999999994412,"stimulus":"[A] option 1, [L] option 2, [G] neither","key_press":65,"name":"choice","trial_type":"html-keyboard-response","trial_index":76,"time_elapsed":184580,"internal_node_id":"0.0-76.0","subject":"S1C1222","sona":"41708","block":4,"time":"2021-09-17T02:40:18.989Z","response":"1st","certainty":"high","char":"A","transposition":1,"order":["shifted","swapped"],"probe_pitches":[2,0,2,7,4,9,0,2,9,7,4,-3],"shifted_pitches":[2,0,2,7,4,8,0,2,9,7,4,-3],"swapped_pitches":[2,0,2,7,4,0,9,2,9,7,4,-3],"shift_direction":-1,"question_num":61,"has_decoy":false},{"rt":1493.2000000001863,"stimulus":"[A] option 1, [L] option 2, [G] neither","key_press":65,"name":"choice","trial_type":"html-keyboard-response","trial_index":87,"time_elapsed":204112,"internal_node_id":"0.0-87.0","subject":"S1C1222","sona":"41708","block":4,"time":"2021-09-17T02:40:18.989Z","response":"1st","certainty":"high","char":"A","transposition":-1,"order":["swapped","shifted"],"probe_pitches":[5,1,0,7,2,-2,8,-3,0,7,9,4],"shifted_pitches":[5,1,0,7,2,-1,8,-3,0,7,9,4],"swapped_pitches":[5,1,0,7,2,8,-2,-3,0,7,9,4],"shift_direction":1,"question_num":71,"has_decoy":false},{"rt":927,"stimulus":"[A] option 1, [L] option 2, [G] neither","key_press":65,"name":"choice","trial_type":"html-keyboard-response","trial_index":98,"time_elapsed":223876,"internal_node_id":"0.0-98.0","subject":"S1C1222","sona":"41708","block":4,"time":"2021-09-17T02:40:18.989Z","response":"1st","certainty":"high","char":"A","transposition":2,"order":["shifted","swapped"],"probe_pitches":[-3,-1,0,1,8,7,4,-2,6,-3,-2,7],"shifted_pitches":[-3,-1,0,1,8,7,5,-2,6,-3,-2,7],"swapped_pitches":[-3,-1,0,1,8,4,7,-2,6,-3,-2,7],"shift_direction":1,"question_num":81,"has_decoy":false},{"rt":1685.800000000745,"stimulus":"[A] option 1, [L] option 2, [G] neither","key_press":76,"name":"choice","trial_type":"html-keyboard-response","trial_index":109,"time_elapsed":243962,"internal_node_id":"0.0-109.0","subject":"S1C1222","sona":"41708","block":4,"time":"2021-09-17T02:40:18.989Z","response":"2nd","certainty":"high","char":"L","transposition":-3,"order":["swapped","shifted"],"probe_pitches":[7,9,5,9,2,7,0,9,2,5,9,0],"shifted_pitches":[7,9,5,9,2,7,-1,9,2,5,9,0],"swapped_pitches":[7,9,5,9,2,0,7,9,2,5,9,0],"shift_direction":-1,"question_num":91,"has_decoy":false},{"rt":1658.8999999994412,"stimulus":"[A] option 1, [L] option 2, [G] neither","key_press":65,"name":"choice","trial_type":"html-keyboard-response","trial_index":120,"time_elapsed":264591,"internal_node_id":"0.0-120.0","subject":"S1C1222","sona":"41708","block":4,"time":"2021-09-17T02:40:18.989Z","response":"1st","certainty":"high","char":"A","transposition":-1,"order":["shifted","swapped"],"probe_pitches":[2,6,9,4,-1,4,9,-1,6,-1,-3,2],"shifted_pitches":[2,6,9,4,-1,5,9,-1,6,-1,-3,2],"swapped_pitches":[2,6,9,4,-1,9,4,-1,6,-1,-3,2],"shift_direction":1,"question_num":101,"has_decoy":false},{"rt":1327.2000000001863,"stimulus":"[A] option 1, [L] option 2, [G] neither","key_press":76,"name":"choice","trial_type":"html-keyboard-response","trial_index":131,"time_elapsed":285955,"internal_node_id":"0.0-131.0","subject":"S1C1222","sona":"41708","block":4,"time":"2021-09-17T02:40:18.989Z","response":"2nd","certainty":"high","char":"L","transposition":2,"order":["swapped","shifted"],"probe_pitches":[2,-3,4,7,2,7,-3,-1,7,2,7,9],"shifted_pitches":[2,-3,4,7,2,7,-2,-1,7,2,7,9],"swapped_pitches":[2,-3,4,7,2,-3,7,-1,7,2,7,9],"shift_direction":1,"question_num":111,"has_decoy":false},{"rt":4793.5,"stimulus":"[A] option 1, [L] option 2, [G] neither","key_press":76,"name":"choice","trial_type":"html-keyboard-response","trial_index":142,"time_elapsed":309436,"internal_node_id":"0.0-142.0","subject":"S1C1222","sona":"41708","block":4,"time":"2021-09-17T02:40:18.989Z","response":"2nd","certainty":"high","char":"L","transposition":-1,"order":["swapped","shifted"],"probe_pitches":[9,7,5,3,5,-3,2,9,-1,2,0,7],"shifted_pitches":[9,7,5,3,5,-3,1,9,-1,2,0,7],"swapped_pitches":[9,7,5,3,5,2,-3,9,-1,2,0,7],"shift_direction":-1,"question_num":121,"has_decoy":false},{"rt":2670.899999999441,"stimulus":"[A] option 1, [L] option 2, [G] neither","key_press":65,"name":"choice","trial_type":"html-keyboard-response","trial_index":153,"time_elapsed":331239,"internal_node_id":"0.0-153.0","subject":"S1C1222","sona":"41708","block":4,"time":"2021-09-17T02:40:18.989Z","response":"1st","certainty":"high","char":"A","transposition":0,"order":["swapped","shifted"],"probe_pitches":[-1,-3,2,8,2,1,-1,2,7,-3,5,6],"shifted_pitches":[-1,-3,2,8,2,1,0,2,7,-3,5,6],"swapped_pitches":[-1,-3,2,8,2,-1,1,2,7,-3,5,6],"shift_direction":1,"question_num":131,"has_decoy":false},{"rt":1653.5,"stimulus":"[A] option 1, [L] option 2, [G] neither","key_press":65,"name":"choice","trial_type":"html-keyboard-response","trial_index":164,"time_elapsed":351273,"internal_node_id":"0.0-164.0","subject":"S1C1222","sona":"41708","block":4,"time":"2021-09-17T02:40:18.989Z","response":"1st","certainty":"high","char":"A","transposition":3,"order":["swapped","shifted"],"probe_pitches":[-1,1,6,-1,1,-3,-1,4,-1,6,-1,4],"shifted_pitches":[-1,1,6,-1,1,-2,-1,4,-1,6,-1,4],"swapped_pitches":[-1,1,6,-1,1,-1,-3,4,-1,6,-1,4],"shift_direction":1,"question_num":141,"has_decoy":false},{"rt":3699.2000000001863,"stimulus":"[A] option 1, [L] option 2, [G] neither","key_press":65,"name":"choice","trial_type":"html-keyboard-response","trial_index":175,"time_elapsed":373429,"internal_node_id":"0.0-175.0","subject":"S1C1222","sona":"41708","block":4,"time":"2021-09-17T02:40:18.989Z","response":"1st","certainty":"high","char":"A","transposition":-2,"order":["swapped","shifted"],"probe_pitches":[2,0,5,-3,2,5,7,-1,1,-3,-1,1],"shifted_pitches":[2,0,5,-3,2,6,7,-1,1,-3,-1,1],"swapped_pitches":[2,0,5,-3,2,7,5,-1,1,-3,-1,1],"shift_direction":1,"question_num":151,"has_decoy":false},{"rt":711.4000000003725,"stimulus":"[A] option 1, [L] option 2, [G] neither","key_press":76,"name":"choice","trial_type":"html-keyboard-response","trial_index":186,"time_elapsed":395960,"internal_node_id":"0.0-186.0","subject":"S1C1222","sona":"41708","block":4,"time":"2021-09-17T02:40:18.989Z","response":"2nd","certainty":"high","char":"L","transposition":-3,"order":["shifted","swapped"],"probe_pitches":[-3,1,-1,1,9,4,-3,-1,6,4,1,-1],"shifted_pitches":[-3,1,-1,1,9,5,-3,-1,6,4,1,-1],"swapped_pitches":[-3,1,-1,1,9,-3,4,-1,6,4,1,-1],"shift_direction":1,"question_num":161,"has_decoy":false},{"rt":4341.100000000559,"stimulus":"[A] option 1, [L] option 2, [G] neither","key_press":65,"name":"choice","trial_type":"html-keyboard-response","trial_index":197,"time_elapsed":419152,"internal_node_id":"0.0-197.0","subject":"S1C1222","sona":"41708","block":4,"time":"2021-09-17T02:40:18.989Z","response":"1st","certainty":"high","char":"A","transposition":3,"order":["swapped","shifted"],"probe_pitches":[9,3,9,8,9,8,4,1,-3,8,-1,6],"shifted_pitches":[9,3,9,8,9,7,4,1,-3,8,-1,6],"swapped_pitches":[9,3,9,8,9,4,8,1,-3,8,-1,6],"shift_direction":-1,"question_num":171,"has_decoy":false},{"rt":5300.4000000003725,"stimulus":"[A] option 1, [L] option 2, [G] neither","key_press":65,"name":"choice","trial_type":"html-keyboard-response","trial_index":208,"time_elapsed":443178,"internal_node_id":"0.0-208.0","subject":"S1C1222","sona":"41708","block":4,"time":"2021-09-17T02:40:18.989Z","response":"1st","certainty":"high","char":"A","transposition":-2,"order":["shifted","swapped"],"probe_pitches":[-3,0,1,6,2,9,-2,0,3,2,3,4],"shifted_pitches":[-3,0,1,6,2,8,-2,0,3,2,3,4],"swapped_pitches":[-3,0,1,6,2,-2,9,0,3,2,3,4],"shift_direction":-1,"question_num":181,"has_decoy":false},{"rt":4399.799999999814,"stimulus":"[A] option 1, [L] option 2, [G] neither","key_press":65,"name":"choice","trial_type":"html-keyboard-response","trial_index":219,"time_elapsed":466543,"internal_node_id":"0.0-219.0","subject":"S1C1222","sona":"41708","block":4,"time":"2021-09-17T02:40:18.989Z","response":"1st","certainty":"high","char":"A","transposition":-1,"order":["swapped","shifted"],"probe_pitches":[2,0,-3,2,4,0,9,7,9,-3,4,7],"shifted_pitches":[2,0,-3,2,4,0,8,7,9,-3,4,7],"swapped_pitches":[2,0,-3,2,4,9,0,7,9,-3,4,7],"shift_direction":-1,"question_num":191,"has_decoy":false}]