[{"rt":1353,"stimulus":"[A] option 1, [L] option 2, [G] neither","key_press":65,"name":"choice","trial_type":"html-keyboard-response","trial_index":10,"time_elapsed":16427,"internal_node_id":"0.0-10.0","subject":"S1C0822","sona":"41449","block":5,"time":"2021-09-16T23:03:49.981Z","response":"1st","certainty":"high","char":"A","transposition":2,"order":["shifted","swapped"],"probe_pitches":[-1,0,-2,-1,6,-2,0,7],"shifted_pitches":[-1,0,-2,-1,5,-2,0,7],"swapped_pitches":[-1,0,-2,6,-1,-2,0,7],"shift_direction":-1,"question_num":1,"has_decoy":false},{"rt":886.6000000238419,"stimulus":"[A] option 1, [L] option 2, [G] neither","key_press":65,"name":"choice","trial_type":"html-keyboard-response","trial_index":21,"time_elapsed":32237,"internal_node_id":"0.0-21.0","subject":"S1C0822","sona":"41449","block":5,"time":"2021-09-16T23:03:49.981Z","response":"1st","certainty":"high","char":"A","transposition":-2,"order":["shifted","swapped"],"probe_pitches":[0,5,7,2,10,5,7,10],"shifted_pitches":[0,5,7,2,11,5,7,10],"swapped_pitches":[0,5,7,10,2,5,7,10],"shift_direction":1,"question_num":11,"has_decoy":false},{"rt":869.8999999761581,"stimulus":"[A] option 1, [L] option 2, [G] neither","key_press":65,"name":"choice","trial_type":"html-keyboard-response","trial_index":32,"time_elapsed":47298,"internal_node_id":"0.0-32.0","subject":"S1C0822","sona":"41449","block":5,"time":"2021-09-16T23:03:49.981Z","response":"1st","certainty":"high","char":"A","transposition":0,"order":["swapped","shifted"],"probe_pitches":[10,5,0,7,3,0,5,10],"shifted_pitches":[10,5,0,6,3,0,5,10],"swapped_pitches":[10,5,0,3,7,0,5,10],"shift_direction":-1,"question_num":21,"has_decoy":false},{"rt":1671.0999999642372,"stimulus":"[A] option 1, [L] option 2, [G] neither","key_press":76,"name":"choice","trial_type":"html-keyboard-response","trial_index":43,"time_elapsed":63219,"internal_node_id":"0.0-43.0","subject":"S1C0822","sona":"41449","block":5,"time":"2021-09-16T23:03:49.981Z","response":"2nd","certainty":"high","char":"L","transposition":1,"order":["shifted","swapped"],"probe_pitches":[12,7,0,3,12,5,3,10],"shifted_pitches":[12,7,0,4,12,5,3,10],"swapped_pitches":[12,7,0,12,3,5,3,10],"shift_direction":1,"question_num":31,"has_decoy":false},{"rt":7194,"stimulus":"[A] option 1, [L] option 2, [G] neither","key_press":76,"name":"choice","trial_type":"html-keyboard-response","trial_index":54,"time_elapsed":89515,"internal_node_id":"0.0-54.0","subject":"S1C0822","sona":"41449","block":5,"time":"2021-09-16T23:03:49.981Z","response":"2nd","certainty":"high","char":"L","transposition":-1,"order":["shifted","swapped"],"probe_pitches":[6,0,-1,1,-3,0,3,1],"shifted_pitches":[6,0,-1,1,-4,0,3,1],"swapped_pitches":[6,0,-1,-3,1,0,3,1],"shift_direction":-1,"question_num":41,"has_decoy":false},{"rt":2245.599999964237,"stimulus":"[A] option 1, [L] option 2, [G] neither","key_press":65,"name":"choice","trial_type":"html-keyboard-response","trial_index":65,"time_elapsed":112053,"internal_node_id":"0.0-65.0","subject":"S1C0822","sona":"41449","block":5,"time":"2021-09-16T23:03:49.981Z","response":"1st","certainty":"high","char":"A","transposition":1,"order":["swapped","shifted"],"probe_pitches":[-1,0,4,7,-2,5,8,3],"shifted_pitches":[-1,0,4,6,-2,5,8,3],"swapped_pitches":[-1,0,4,-2,7,5,8,3],"shift_direction":-1,"question_num":51,"has_decoy":false},{"rt":724.2999999523163,"stimulus":"[A] option 1, [L] option 2, [G] neither","key_press":76,"name":"choice","trial_type":"html-keyboard-response","trial_index":76,"time_elapsed":128681,"internal_node_id":"0.0-76.0","subject":"S1C0822","sona":"41449","block":5,"time":"2021-09-16T23:03:49.981Z","response":"2nd","certainty":"high","char":"L","transposition":-2,"order":["shifted","swapped"],"probe_pitches":[3,-2,0,3,-3,1,3,-1],"shifted_pitches":[3,-2,0,2,-3,1,3,-1],"swapped_pitches":[3,-2,0,-3,3,1,3,-1],"shift_direction":-1,"question_num":61,"has_decoy":false},{"rt":1429,"stimulus":"[A] option 1, [L] option 2, [G] neither","key_press":65,"name":"choice","trial_type":"html-keyboard-response","trial_index":87,"time_elapsed":145471,"internal_node_id":"0.0-87.0","subject":"S1C0822","sona":"41449","block":5,"time":"2021-09-16T23:03:49.981Z","response":"1st","certainty":"high","char":"A","transposition":-3,"order":["swapped","shifted"],"probe_pitches":[-1,5,-1,0,9,6,7,2],"shifted_pitches":[-1,5,-1,1,9,6,7,2],"swapped_pitches":[-1,5,-1,9,0,6,7,2],"shift_direction":1,"question_num":71,"has_decoy":false},{"rt":937.2000000476837,"stimulus":"[A] option 1, [L] option 2, [G] neither","key_press":65,"name":"choice","trial_type":"html-keyboard-response","trial_index":98,"time_elapsed":160861,"internal_node_id":"0.0-98.0","subject":"S1C0822","sona":"41449","block":5,"time":"2021-09-16T23:03:49.981Z","response":"1st","certainty":"high","char":"A","transposition":-1,"order":["shifted","swapped"],"probe_pitches":[6,7,4,-2,-3,3,-3,9],"shifted_pitches":[6,7,4,-1,-3,3,-3,9],"swapped_pitches":[6,7,4,-3,-2,3,-3,9],"shift_direction":1,"question_num":81,"has_decoy":false},{"rt":1390.699999988079,"stimulus":"[A] option 1, [L] option 2, [G] neither","key_press":76,"name":"choice","trial_type":"html-keyboard-response","trial_index":109,"time_elapsed":178669,"internal_node_id":"0.0-109.0","subject":"S1C0822","sona":"41449","block":5,"time":"2021-09-16T23:03:49.981Z","response":"2nd","certainty":"high","char":"L","transposition":3,"order":["shifted","swapped"],"probe_pitches":[7,10,5,10,2,12,7,2],"shifted_pitches":[7,10,5,10,1,12,7,2],"swapped_pitches":[7,10,5,2,10,12,7,2],"shift_direction":-1,"question_num":91,"has_decoy":false},{"rt":1087.0999999642372,"stimulus":"[A] option 1, [L] option 2, [G] neither","key_press":76,"name":"choice","trial_type":"html-keyboard-response","trial_index":120,"time_elapsed":194728,"internal_node_id":"0.0-120.0","subject":"S1C0822","sona":"41449","block":5,"time":"2021-09-16T23:03:49.981Z","response":"2nd","certainty":"high","char":"L","transposition":-3,"order":["swapped","shifted"],"probe_pitches":[0,5,9,2,0,7,12,7],"shifted_pitches":[0,5,9,2,1,7,12,7],"swapped_pitches":[0,5,9,0,2,7,12,7],"shift_direction":1,"question_num":101,"has_decoy":false},{"rt":1365.5,"stimulus":"[A] option 1, [L] option 2, [G] neither","key_press":65,"name":"choice","trial_type":"html-keyboard-response","trial_index":131,"time_elapsed":212798,"internal_node_id":"0.0-131.0","subject":"S1C0822","sona":"41449","block":5,"time":"2021-09-16T23:03:49.981Z","response":"1st","certainty":"high","char":"A","transposition":-3,"order":["swapped","shifted"],"probe_pitches":[2,4,2,7,0,9,4,9],"shifted_pitches":[2,4,2,7,-1,9,4,9],"swapped_pitches":[2,4,2,0,7,9,4,9],"shift_direction":-1,"question_num":111,"has_decoy":false},{"rt":1804.4000000357628,"stimulus":"[A] option 1, [L] option 2, [G] neither","key_press":76,"name":"choice","trial_type":"html-keyboard-response","trial_index":142,"time_elapsed":228751,"internal_node_id":"0.0-142.0","subject":"S1C0822","sona":"41449","block":5,"time":"2021-09-16T23:03:49.981Z","response":"2nd","certainty":"high","char":"L","transposition":-3,"order":["swapped","shifted"],"probe_pitches":[-3,0,-3,4,2,-2,9,0],"shifted_pitches":[-3,0,-3,4,3,-2,9,0],"swapped_pitches":[-3,0,-3,2,4,-2,9,0],"shift_direction":1,"question_num":121,"has_decoy":false},{"rt":1007.8999999761581,"stimulus":"[A] option 1, [L] option 2, [G] neither","key_press":65,"name":"choice","trial_type":"html-keyboard-response","trial_index":153,"time_elapsed":245202,"internal_node_id":"0.0-153.0","subject":"S1C0822","sona":"41449","block":5,"time":"2021-09-16T23:03:49.981Z","response":"1st","certainty":"high","char":"A","transposition":3,"order":["swapped","shifted"],"probe_pitches":[2,8,2,4,6,-3,0,1],"shifted_pitches":[2,8,2,4,7,-3,0,1],"swapped_pitches":[2,8,2,6,4,-3,0,1],"shift_direction":1,"question_num":131,"has_decoy":false},{"rt":793.1999999880791,"stimulus":"[A] option 1, [L] option 2, [G] neither","key_press":65,"name":"choice","trial_type":"html-keyboard-response","trial_index":164,"time_elapsed":261120,"internal_node_id":"0.0-164.0","subject":"S1C0822","sona":"41449","block":5,"time":"2021-09-16T23:03:49.981Z","response":"1st","certainty":"high","char":"A","transposition":-1,"order":["swapped","shifted"],"probe_pitches":[3,5,3,5,8,10,0,3],"shifted_pitches":[3,5,3,5,9,10,0,3],"swapped_pitches":[3,5,3,8,5,10,0,3],"shift_direction":1,"question_num":141,"has_decoy":false},{"rt":428,"stimulus":"[A] option 1, [L] option 2, [G] neither","key_press":76,"name":"choice","trial_type":"html-keyboard-response","trial_index":175,"time_elapsed":276269,"internal_node_id":"0.0-175.0","subject":"S1C0822","sona":"41449","block":5,"time":"2021-09-16T23:03:49.981Z","response":"2nd","certainty":"high","char":"L","transposition":0,"order":["swapped","shifted"],"probe_pitches":[9,8,6,3,5,-3,6,9],"shifted_pitches":[9,8,6,4,5,-3,6,9],"swapped_pitches":[9,8,6,5,3,-3,6,9],"shift_direction":1,"question_num":151,"has_decoy":false},{"rt":938.9000000357628,"stimulus":"[A] option 1, [L] option 2, [G] neither","key_press":76,"name":"choice","trial_type":"html-keyboard-response","trial_index":186,"time_elapsed":292786,"internal_node_id":"0.0-186.0","subject":"S1C0822","sona":"41449","block":5,"time":"2021-09-16T23:03:49.981Z","response":"2nd","certainty":"high","char":"L","transposition":-2,"order":["shifted","swapped"],"probe_pitches":[2,0,7,0,9,2,4,9],"shifted_pitches":[2,0,7,-1,9,2,4,9],"swapped_pitches":[2,0,7,9,0,2,4,9],"shift_direction":-1,"question_num":161,"has_decoy":false},{"rt":326.7999999523163,"stimulus":"[A] option 1, [L] option 2, [G] neither","key_press":65,"name":"choice","trial_type":"html-keyboard-response","trial_index":197,"time_elapsed":307837,"internal_node_id":"0.0-197.0","subject":"S1C0822","sona":"41449","block":5,"time":"2021-09-16T23:03:49.981Z","response":"1st","certainty":"high","char":"A","transposition":-1,"order":["swapped","shifted"],"probe_pitches":[9,12,9,5,7,9,2,9],"shifted_pitches":[9,12,9,6,7,9,2,9],"swapped_pitches":[9,12,9,7,5,9,2,9],"shift_direction":1,"question_num":171,"has_decoy":false},{"rt":1203.300000011921,"stimulus":"[A] option 1, [L] option 2, [G] neither","key_press":76,"name":"choice","trial_type":"html-keyboard-response","trial_index":208,"time_elapsed":325646,"internal_node_id":"0.0-208.0","subject":"S1C0822","sona":"41449","block":5,"time":"2021-09-16T23:03:49.981Z","response":"2nd","certainty":"high","char":"L","transposition":-2,"order":["shifted","swapped"],"probe_pitches":[5,2,9,4,1,5,6,-3],"shifted_pitches":[5,2,9,4,0,5,6,-3],"swapped_pitches":[5,2,9,1,4,5,6,-3],"shift_direction":-1,"question_num":181,"has_decoy":false},{"rt":747.8999999761581,"stimulus":"[A] option 1, [L] option 2, [G] neither","key_press":65,"name":"choice","trial_type":"html-keyboard-response","trial_index":219,"time_elapsed":340907,"internal_node_id":"0.0-219.0","subject":"S1C0822","sona":"41449","block":5,"time":"2021-09-16T23:03:49.981Z","response":"1st","certainty":"high","char":"A","transposition":2,"order":["shifted","swapped"],"probe_pitches":[3,0,5,8,0,5,10,5],"shifted_pitches":[3,0,5,7,0,5,10,5],"swapped_pitches":[3,0,5,0,8,5,10,5],"shift_direction":-1,"question_num":191,"has_decoy":false}]