[{"rt":7433.799999952316,"stimulus":"[A] option 1, [L] option 2, [G] neither","key_press":76,"name":"choice","trial_type":"html-keyboard-response","trial_index":15,"time_elapsed":126122,"internal_node_id":"0.0-15.0","response":"2nd","certainty":"high","char":"L","transposition":-1,"order":["shifted","swapped"],"probe_pitches":[-1,-3,1,4,9,6,4,1],"shifted_pitches":[-1,-3,1,4,8,6,4,1],"swapped_pitches":[-1,-3,1,9,4,6,4,1],"shift_direction":-1,"question_num":1,"has_decoy":false,"subject":"S1C0822","sona":"41449","block":1,"time":"2021-09-16T22:38:32.166Z"},{"rt":15733.699999988079,"stimulus":"[A] option 1, [L] option 2, [G] neither","key_press":65,"name":"choice","trial_type":"html-keyboard-response","trial_index":26,"time_elapsed":165840,"internal_node_id":"0.0-26.0","response":"1st","certainty":"high","char":"A","transposition":-1,"order":["shifted","swapped"],"probe_pitches":[3,9,5,-2,0,3,-2,6],"shifted_pitches":[3,9,5,-2,-1,3,-2,6],"swapped_pitches":[3,9,5,0,-2,3,-2,6],"shift_direction":-1,"question_num":11,"has_decoy":false,"subject":"S1C0822","sona":"41449","block":1,"time":"2021-09-16T22:38:32.166Z"},{"rt":2241,"stimulus":"[A] option 1, [L] option 2, [G] neither","key_press":76,"name":"choice","trial_type":"html-keyboard-response","trial_index":37,"time_elapsed":184320,"internal_node_id":"0.0-37.0","response":"2nd","certainty":"high","char":"L","transposition":-3,"order":["swapped","shifted"],"probe_pitches":[6,4,6,4,-1,1,-1,9],"shifted_pitches":[6,4,6,3,-1,1,-1,9],"swapped_pitches":[6,4,6,-1,4,1,-1,9],"shift_direction":-1,"question_num":21,"has_decoy":false,"subject":"S1C0822","sona":"41449","block":1,"time":"2021-09-16T22:38:32.166Z"},{"rt":1446.199999988079,"stimulus":"[A] option 1, [L] option 2, [G] neither","key_press":76,"name":"choice","trial_type":"html-keyboard-response","trial_index":48,"time_elapsed":219690,"internal_node_id":"0.0-48.0","response":"2nd","certainty":"high","char":"L","transposition":3,"order":["swapped","shifted"],"probe_pitches":[-1,1,4,0,1,5,6,1],"shifted_pitches":[-1,1,4,0,2,5,6,1],"swapped_pitches":[-1,1,4,1,0,5,6,1],"shift_direction":1,"question_num":31,"has_decoy":false,"subject":"S1C0822","sona":"41449","block":1,"time":"2021-09-16T22:38:32.166Z"},{"rt":746.8999999761581,"stimulus":"[A] option 1, [L] option 2, [G] neither","key_press":65,"name":"choice","trial_type":"html-keyboard-response","trial_index":59,"time_elapsed":235417,"internal_node_id":"0.0-59.0","response":"1st","certainty":"high","char":"A","transposition":0,"order":["shifted","swapped"],"probe_pitches":[4,7,4,9,2,-1,9,-1],"shifted_pitches":[4,7,4,9,1,-1,9,-1],"swapped_pitches":[4,7,4,2,9,-1,9,-1],"shift_direction":-1,"question_num":41,"has_decoy":false,"subject":"S1C0822","sona":"41449","block":1,"time":"2021-09-16T22:38:32.166Z"},{"rt":2205.800000011921,"stimulus":"[A] option 1, [L] option 2, [G] neither","key_press":65,"name":"choice","trial_type":"html-keyboard-response","trial_index":70,"time_elapsed":252175,"internal_node_id":"0.0-70.0","response":"1st","certainty":"high","char":"A","transposition":2,"order":["swapped","shifted"],"probe_pitches":[-2,2,7,5,0,2,3,1],"shifted_pitches":[-2,2,7,4,0,2,3,1],"swapped_pitches":[-2,2,7,0,5,2,3,1],"shift_direction":-1,"question_num":51,"has_decoy":false,"subject":"S1C0822","sona":"41449","block":1,"time":"2021-09-16T22:38:32.166Z"},{"rt":2522.699999988079,"stimulus":"[A] option 1, [L] option 2, [G] neither","key_press":76,"name":"choice","trial_type":"html-keyboard-response","trial_index":81,"time_elapsed":270712,"internal_node_id":"0.0-81.0","response":"2nd","certainty":"high","char":"L","transposition":3,"order":["swapped","shifted"],"probe_pitches":[9,6,9,2,-1,6,4,6],"shifted_pitches":[9,6,9,2,0,6,4,6],"swapped_pitches":[9,6,9,-1,2,6,4,6],"shift_direction":1,"question_num":61,"has_decoy":false,"subject":"S1C0822","sona":"41449","block":1,"time":"2021-09-16T22:38:32.166Z"},{"rt":376,"stimulus":"[A] option 1, [L] option 2, [G] neither","key_press":65,"name":"choice","trial_type":"html-keyboard-response","trial_index":92,"time_elapsed":286496,"internal_node_id":"0.0-92.0","response":"1st","certainty":"high","char":"A","transposition":-1,"order":["shifted","swapped"],"probe_pitches":[2,-3,0,7,5,2,5,9],"shifted_pitches":[2,-3,0,8,5,2,5,9],"swapped_pitches":[2,-3,0,5,7,2,5,9],"shift_direction":1,"question_num":71,"has_decoy":false,"subject":"S1C0822","sona":"41449","block":1,"time":"2021-09-16T22:38:32.166Z"},{"rt":2005.7000000476837,"stimulus":"[A] option 1, [L] option 2, [G] neither","key_press":65,"name":"choice","trial_type":"html-keyboard-response","trial_index":103,"time_elapsed":302680,"internal_node_id":"0.0-103.0","response":"1st","certainty":"high","char":"A","transposition":-2,"order":["shifted","swapped"],"probe_pitches":[9,3,-3,4,2,0,5,0],"shifted_pitches":[9,3,-3,4,1,0,5,0],"swapped_pitches":[9,3,-3,2,4,0,5,0],"shift_direction":-1,"question_num":81,"has_decoy":false,"subject":"S1C0822","sona":"41449","block":1,"time":"2021-09-16T22:38:32.166Z"},{"rt":2566.800000011921,"stimulus":"[A] option 1, [L] option 2, [G] neither","key_press":76,"name":"choice","trial_type":"html-keyboard-response","trial_index":114,"time_elapsed":321134,"internal_node_id":"0.0-114.0","response":"2nd","certainty":"high","char":"L","transposition":1,"order":["swapped","shifted"],"probe_pitches":[4,2,0,4,7,0,9,-3],"shifted_pitches":[4,2,0,5,7,0,9,-3],"swapped_pitches":[4,2,0,7,4,0,9,-3],"shift_direction":1,"question_num":91,"has_decoy":false,"subject":"S1C0822","sona":"41449","block":1,"time":"2021-09-16T22:38:32.166Z"},{"rt":1439.3999999761581,"stimulus":"[A] option 1, [L] option 2, [G] neither","key_press":65,"name":"choice","trial_type":"html-keyboard-response","trial_index":125,"time_elapsed":337286,"internal_node_id":"0.0-125.0","response":"1st","certainty":"high","char":"A","transposition":-2,"order":["swapped","shifted"],"probe_pitches":[8,7,0,5,9,3,2,-3],"shifted_pitches":[8,7,0,6,9,3,2,-3],"swapped_pitches":[8,7,0,9,5,3,2,-3],"shift_direction":1,"question_num":101,"has_decoy":false,"subject":"S1C0822","sona":"41449","block":1,"time":"2021-09-16T22:38:32.166Z"},{"rt":649.5,"stimulus":"[A] option 1, [L] option 2, [G] neither","key_press":76,"name":"choice","trial_type":"html-keyboard-response","trial_index":136,"time_elapsed":352768,"internal_node_id":"0.0-136.0","response":"2nd","certainty":"high","char":"L","transposition":2,"order":["swapped","shifted"],"probe_pitches":[9,7,4,0,2,4,7,4],"shifted_pitches":[9,7,4,1,2,4,7,4],"swapped_pitches":[9,7,4,2,0,4,7,4],"shift_direction":1,"question_num":111,"has_decoy":false,"subject":"S1C0822","sona":"41449","block":1,"time":"2021-09-16T22:38:32.166Z"},{"rt":1985.699999988079,"stimulus":"[A] option 1, [L] option 2, [G] neither","key_press":71,"name":"choice","trial_type":"html-keyboard-response","trial_index":147,"time_elapsed":369352,"internal_node_id":"0.0-147.0","response":"neither","certainty":"high","char":"G","transposition":-3,"order":["shifted","swapped"],"probe_pitches":[9,4,0,-1,4,7,-2,-3],"shifted_pitches":[9,4,0,-1,3,7,-2,-3],"swapped_pitches":[9,4,0,4,-1,7,-2,-3],"shift_direction":-1,"question_num":121,"has_decoy":false,"subject":"S1C0822","sona":"41449","block":1,"time":"2021-09-16T22:38:32.166Z"},{"rt":3096.400000035763,"stimulus":"[A] option 1, [L] option 2, [G] neither","key_press":65,"name":"choice","trial_type":"html-keyboard-response","trial_index":158,"time_elapsed":388554,"internal_node_id":"0.0-158.0","response":"1st","certainty":"high","char":"A","transposition":1,"order":["shifted","swapped"],"probe_pitches":[4,1,2,3,4,-3,2,6],"shifted_pitches":[4,1,2,3,5,-3,2,6],"swapped_pitches":[4,1,2,4,3,-3,2,6],"shift_direction":1,"question_num":131,"has_decoy":false,"subject":"S1C0822","sona":"41449","block":1,"time":"2021-09-16T22:38:32.166Z"},{"rt":733.1000000238419,"stimulus":"[A] option 1, [L] option 2, [G] neither","key_press":76,"name":"choice","trial_type":"html-keyboard-response","trial_index":169,"time_elapsed":404360,"internal_node_id":"0.0-169.0","response":"2nd","certainty":"high","char":"L","transposition":0,"order":["swapped","shifted"],"probe_pitches":[9,3,8,6,1,0,2,4],"shifted_pitches":[9,3,8,7,1,0,2,4],"swapped_pitches":[9,3,8,1,6,0,2,4],"shift_direction":1,"question_num":141,"has_decoy":false,"subject":"S1C0822","sona":"41449","block":1,"time":"2021-09-16T22:38:32.166Z"},{"rt":530.3000000119209,"stimulus":"[A] option 1, [L] option 2, [G] neither","key_press":76,"name":"choice","trial_type":"html-keyboard-response","trial_index":180,"time_elapsed":419704,"internal_node_id":"0.0-180.0","response":"2nd","certainty":"high","char":"L","transposition":-3,"order":["shifted","swapped"],"probe_pitches":[1,3,7,1,5,-1,6,2],"shifted_pitches":[1,3,7,0,5,-1,6,2],"swapped_pitches":[1,3,7,5,1,-1,6,2],"shift_direction":-1,"question_num":151,"has_decoy":false,"subject":"S1C0822","sona":"41449","block":1,"time":"2021-09-16T22:38:32.166Z"},{"rt":497.60000002384186,"stimulus":"[A] option 1, [L] option 2, [G] neither","key_press":76,"name":"choice","trial_type":"html-keyboard-response","trial_index":191,"time_elapsed":434966,"internal_node_id":"0.0-191.0","response":"2nd","certainty":"high","char":"L","transposition":-1,"order":["swapped","shifted"],"probe_pitches":[6,4,9,7,5,2,3,-1],"shifted_pitches":[6,4,9,8,5,2,3,-1],"swapped_pitches":[6,4,9,5,7,2,3,-1],"shift_direction":1,"question_num":161,"has_decoy":false,"subject":"S1C0822","sona":"41449","block":1,"time":"2021-09-16T22:38:32.166Z"},{"rt":858,"stimulus":"[A] option 1, [L] option 2, [G] neither","key_press":76,"name":"choice","trial_type":"html-keyboard-response","trial_index":202,"time_elapsed":451007,"internal_node_id":"0.0-202.0","response":"2nd","certainty":"high","char":"L","transposition":-2,"order":["shifted","swapped"],"probe_pitches":[-3,-1,-3,2,9,6,2,4],"shifted_pitches":[-3,-1,-3,2,10,6,2,4],"swapped_pitches":[-3,-1,-3,9,2,6,2,4],"shift_direction":1,"question_num":171,"has_decoy":false,"subject":"S1C0822","sona":"41449","block":1,"time":"2021-09-16T22:38:32.166Z"},{"rt":583.5,"stimulus":"[A] option 1, [L] option 2, [G] neither","key_press":76,"name":"choice","trial_type":"html-keyboard-response","trial_index":213,"time_elapsed":465991,"internal_node_id":"0.0-213.0","response":"2nd","certainty":"high","char":"L","transposition":-2,"order":["swapped","shifted"],"probe_pitches":[-1,-3,4,9,2,-3,7,2],"shifted_pitches":[-1,-3,4,8,2,-3,7,2],"swapped_pitches":[-1,-3,4,2,9,-3,7,2],"shift_direction":-1,"question_num":181,"has_decoy":false,"subject":"S1C0822","sona":"41449","block":1,"time":"2021-09-16T22:38:32.166Z"},{"rt":636.5,"stimulus":"[A] option 1, [L] option 2, [G] neither","key_press":65,"name":"choice","trial_type":"html-keyboard-response","trial_index":224,"time_elapsed":481584,"internal_node_id":"0.0-224.0","response":"1st","certainty":"high","char":"A","transposition":-3,"order":["shifted","swapped"],"probe_pitches":[5,0,5,7,2,5,7,9],"shifted_pitches":[5,0,5,7,1,5,7,9],"swapped_pitches":[5,0,5,2,7,5,7,9],"shift_direction":-1,"question_num":191,"has_decoy":false,"subject":"S1C0822","sona":"41449","block":1,"time":"2021-09-16T22:38:32.166Z"}]