[{"rt":1404.4000000357628,"stimulus":"[A] option 1, [L] option 2, [G] neither","key_press":65,"name":"choice","trial_type":"html-keyboard-response","trial_index":10,"time_elapsed":20369,"internal_node_id":"0.0-10.0","subject":"S1C0822","sona":"41449","block":2,"time":"2021-09-16T22:44:18.258Z","response":"1st","certainty":"high","char":"A","transposition":3,"order":["swapped","shifted"],"probe_pitches":[-3,-1,-3,5,-2,1,6,8],"shifted_pitches":[-3,-1,-3,4,-2,1,6,8],"swapped_pitches":[-3,-1,-3,-2,5,1,6,8],"shift_direction":-1,"question_num":1,"has_decoy":false},{"rt":762.5,"stimulus":"[A] option 1, [L] option 2, [G] neither","key_press":76,"name":"choice","trial_type":"html-keyboard-response","trial_index":21,"time_elapsed":36479,"internal_node_id":"0.0-21.0","subject":"S1C0822","sona":"41449","block":2,"time":"2021-09-16T22:44:18.258Z","response":"2nd","certainty":"high","char":"L","transposition":-1,"order":["swapped","shifted"],"probe_pitches":[3,8,6,3,8,6,13,10],"shifted_pitches":[3,8,6,4,8,6,13,10],"swapped_pitches":[3,8,6,8,3,6,13,10],"shift_direction":1,"question_num":11,"has_decoy":false},{"rt":2221.199999988079,"stimulus":"[A] option 1, [L] option 2, [G] neither","key_press":65,"name":"choice","trial_type":"html-keyboard-response","trial_index":32,"time_elapsed":52742,"internal_node_id":"0.0-32.0","subject":"S1C0822","sona":"41449","block":2,"time":"2021-09-16T22:44:18.258Z","response":"1st","certainty":"high","char":"A","transposition":-2,"order":["shifted","swapped"],"probe_pitches":[4,0,4,1,6,-1,7,-2],"shifted_pitches":[4,0,4,2,6,-1,7,-2],"swapped_pitches":[4,0,4,6,1,-1,7,-2],"shift_direction":1,"question_num":21,"has_decoy":false},{"rt":2573.199999988079,"stimulus":"[A] option 1, [L] option 2, [G] neither","key_press":76,"name":"choice","trial_type":"html-keyboard-response","trial_index":43,"time_elapsed":69803,"internal_node_id":"0.0-43.0","subject":"S1C0822","sona":"41449","block":2,"time":"2021-09-16T22:44:18.258Z","response":"2nd","certainty":"high","char":"L","transposition":1,"order":["shifted","swapped"],"probe_pitches":[-1,-2,-3,-2,4,8,9,7],"shifted_pitches":[-1,-2,-3,-2,5,8,9,7],"swapped_pitches":[-1,-2,-3,4,-2,8,9,7],"shift_direction":1,"question_num":31,"has_decoy":false},{"rt":968.8999999761581,"stimulus":"[A] option 1, [L] option 2, [G] neither","key_press":65,"name":"choice","trial_type":"html-keyboard-response","trial_index":54,"time_elapsed":86785,"internal_node_id":"0.0-54.0","subject":"S1C0822","sona":"41449","block":2,"time":"2021-09-16T22:44:18.258Z","response":"1st","certainty":"high","char":"A","transposition":-1,"order":["shifted","swapped"],"probe_pitches":[13,8,3,11,6,8,6,13],"shifted_pitches":[13,8,3,12,6,8,6,13],"swapped_pitches":[13,8,3,6,11,8,6,13],"shift_direction":1,"question_num":41,"has_decoy":false},{"rt":1034.6000000238419,"stimulus":"[A] option 1, [L] option 2, [G] neither","key_press":76,"name":"choice","trial_type":"html-keyboard-response","trial_index":65,"time_elapsed":102257,"internal_node_id":"0.0-65.0","subject":"S1C0822","sona":"41449","block":2,"time":"2021-09-16T22:44:18.258Z","response":"2nd","certainty":"high","char":"L","transposition":-3,"order":["swapped","shifted"],"probe_pitches":[8,2,0,6,1,-2,9,6],"shifted_pitches":[8,2,0,7,1,-2,9,6],"swapped_pitches":[8,2,0,1,6,-2,9,6],"shift_direction":1,"question_num":51,"has_decoy":false},{"rt":456.80000001192093,"stimulus":"[A] option 1, [L] option 2, [G] neither","key_press":65,"name":"choice","trial_type":"html-keyboard-response","trial_index":76,"time_elapsed":117589,"internal_node_id":"0.0-76.0","subject":"S1C0822","sona":"41449","block":2,"time":"2021-09-16T22:44:18.258Z","response":"1st","certainty":"high","char":"A","transposition":-2,"order":["swapped","shifted"],"probe_pitches":[5,1,8,4,7,-1,5,3],"shifted_pitches":[5,1,8,4,6,-1,5,3],"swapped_pitches":[5,1,8,7,4,-1,5,3],"shift_direction":-1,"question_num":61,"has_decoy":false},{"rt":1210.8999999761581,"stimulus":"[A] option 1, [L] option 2, [G] neither","key_press":65,"name":"choice","trial_type":"html-keyboard-response","trial_index":87,"time_elapsed":134631,"internal_node_id":"0.0-87.0","subject":"S1C0822","sona":"41449","block":2,"time":"2021-09-16T22:44:18.258Z","response":"1st","certainty":"high","char":"A","transposition":3,"order":["swapped","shifted"],"probe_pitches":[1,3,1,6,10,13,8,10],"shifted_pitches":[1,3,1,6,9,13,8,10],"swapped_pitches":[1,3,1,10,6,13,8,10],"shift_direction":-1,"question_num":71,"has_decoy":false},{"rt":2023.0999999642372,"stimulus":"[A] option 1, [L] option 2, [G] neither","key_press":76,"name":"choice","trial_type":"html-keyboard-response","trial_index":98,"time_elapsed":152190,"internal_node_id":"0.0-98.0","subject":"S1C0822","sona":"41449","block":2,"time":"2021-09-16T22:44:18.258Z","response":"2nd","certainty":"high","char":"L","transposition":-3,"order":["swapped","shifted"],"probe_pitches":[5,1,3,5,8,13,10,13],"shifted_pitches":[5,1,3,5,9,13,10,13],"swapped_pitches":[5,1,3,8,5,13,10,13],"shift_direction":1,"question_num":81,"has_decoy":false},{"rt":1141.300000011921,"stimulus":"[A] option 1, [L] option 2, [G] neither","key_press":76,"name":"choice","trial_type":"html-keyboard-response","trial_index":109,"time_elapsed":180048,"internal_node_id":"0.0-109.0","subject":"S1C0822","sona":"41449","block":2,"time":"2021-09-16T22:44:18.258Z","response":"2nd","certainty":"high","char":"L","transposition":-1,"order":["shifted","swapped"],"probe_pitches":[-2,0,-3,4,6,-2,-3,0],"shifted_pitches":[-2,0,-3,3,6,-2,-3,0],"swapped_pitches":[-2,0,-3,6,4,-2,-3,0],"shift_direction":-1,"question_num":91,"has_decoy":false},{"rt":1493.7000000476837,"stimulus":"[A] option 1, [L] option 2, [G] neither","key_press":65,"name":"choice","trial_type":"html-keyboard-response","trial_index":120,"time_elapsed":195969,"internal_node_id":"0.0-120.0","subject":"S1C0822","sona":"41449","block":2,"time":"2021-09-16T22:44:18.258Z","response":"1st","certainty":"high","char":"A","transposition":-3,"order":["shifted","swapped"],"probe_pitches":[3,-1,3,9,7,4,2,3],"shifted_pitches":[3,-1,3,9,8,4,2,3],"swapped_pitches":[3,-1,3,7,9,4,2,3],"shift_direction":1,"question_num":101,"has_decoy":false},{"rt":1408,"stimulus":"[A] option 1, [L] option 2, [G] neither","key_press":76,"name":"choice","trial_type":"html-keyboard-response","trial_index":131,"time_elapsed":212469,"internal_node_id":"0.0-131.0","subject":"S1C0822","sona":"41449","block":2,"time":"2021-09-16T22:44:18.258Z","response":"2nd","certainty":"high","char":"L","transposition":-3,"order":["swapped","shifted"],"probe_pitches":[6,4,11,6,8,4,13,6],"shifted_pitches":[6,4,11,6,9,4,13,6],"swapped_pitches":[6,4,11,8,6,4,13,6],"shift_direction":1,"question_num":111,"has_decoy":false},{"rt":553.6999999880791,"stimulus":"[A] option 1, [L] option 2, [G] neither","key_press":65,"name":"choice","trial_type":"html-keyboard-response","trial_index":142,"time_elapsed":228217,"internal_node_id":"0.0-142.0","subject":"S1C0822","sona":"41449","block":2,"time":"2021-09-16T22:44:18.258Z","response":"1st","certainty":"high","char":"A","transposition":1,"order":["shifted","swapped"],"probe_pitches":[1,6,8,4,6,1,4,11],"shifted_pitches":[1,6,8,4,5,1,4,11],"swapped_pitches":[1,6,8,6,4,1,4,11],"shift_direction":-1,"question_num":121,"has_decoy":false},{"rt":458.39999997615814,"stimulus":"[A] option 1, [L] option 2, [G] neither","key_press":76,"name":"choice","trial_type":"html-keyboard-response","trial_index":153,"time_elapsed":243829,"internal_node_id":"0.0-153.0","subject":"S1C0822","sona":"41449","block":2,"time":"2021-09-16T22:44:18.258Z","response":"2nd","certainty":"high","char":"L","transposition":2,"order":["swapped","shifted"],"probe_pitches":[7,2,8,2,-2,4,3,-2],"shifted_pitches":[7,2,8,1,-2,4,3,-2],"swapped_pitches":[7,2,8,-2,2,4,3,-2],"shift_direction":-1,"question_num":131,"has_decoy":false},{"rt":587.8999999761581,"stimulus":"[A] option 1, [L] option 2, [G] neither","key_press":76,"name":"choice","trial_type":"html-keyboard-response","trial_index":164,"time_elapsed":260032,"internal_node_id":"0.0-164.0","subject":"S1C0822","sona":"41449","block":2,"time":"2021-09-16T22:44:18.258Z","response":"2nd","certainty":"high","char":"L","transposition":0,"order":["swapped","shifted"],"probe_pitches":[9,6,4,7,-2,-3,3,0],"shifted_pitches":[9,6,4,7,-1,-3,3,0],"swapped_pitches":[9,6,4,-2,7,-3,3,0],"shift_direction":1,"question_num":141,"has_decoy":false},{"rt":644.3000000119209,"stimulus":"[A] option 1, [L] option 2, [G] neither","key_press":76,"name":"choice","trial_type":"html-keyboard-response","trial_index":175,"time_elapsed":276515,"internal_node_id":"0.0-175.0","subject":"S1C0822","sona":"41449","block":2,"time":"2021-09-16T22:44:18.258Z","response":"2nd","certainty":"high","char":"L","transposition":2,"order":["shifted","swapped"],"probe_pitches":[10,5,10,8,13,5,3,5],"shifted_pitches":[10,5,10,7,13,5,3,5],"swapped_pitches":[10,5,10,13,8,5,3,5],"shift_direction":-1,"question_num":151,"has_decoy":false},{"rt":539.1999999880791,"stimulus":"[A] option 1, [L] option 2, [G] neither","key_press":76,"name":"choice","trial_type":"html-keyboard-response","trial_index":186,"time_elapsed":291945,"internal_node_id":"0.0-186.0","subject":"S1C0822","sona":"41449","block":2,"time":"2021-09-16T22:44:18.258Z","response":"2nd","certainty":"high","char":"L","transposition":-1,"order":["shifted","swapped"],"probe_pitches":[-3,1,8,2,1,-1,-2,8],"shifted_pitches":[-3,1,8,2,0,-1,-2,8],"swapped_pitches":[-3,1,8,1,2,-1,-2,8],"shift_direction":-1,"question_num":161,"has_decoy":false},{"rt":380.0999999642372,"stimulus":"[A] option 1, [L] option 2, [G] neither","key_press":76,"name":"choice","trial_type":"html-keyboard-response","trial_index":197,"time_elapsed":308410,"internal_node_id":"0.0-197.0","subject":"S1C0822","sona":"41449","block":2,"time":"2021-09-16T22:44:18.258Z","response":"2nd","certainty":"high","char":"L","transposition":-2,"order":["swapped","shifted"],"probe_pitches":[9,11,6,1,4,9,13,9],"shifted_pitches":[9,11,6,0,4,9,13,9],"swapped_pitches":[9,11,6,4,1,9,13,9],"shift_direction":-1,"question_num":171,"has_decoy":false},{"rt":343.2999999523163,"stimulus":"[A] option 1, [L] option 2, [G] neither","key_press":76,"name":"choice","trial_type":"html-keyboard-response","trial_index":208,"time_elapsed":323146,"internal_node_id":"0.0-208.0","subject":"S1C0822","sona":"41449","block":2,"time":"2021-09-16T22:44:18.258Z","response":"2nd","certainty":"high","char":"L","transposition":-2,"order":["shifted","swapped"],"probe_pitches":[13,11,13,6,9,4,13,6],"shifted_pitches":[13,11,13,5,9,4,13,6],"swapped_pitches":[13,11,13,9,6,4,13,6],"shift_direction":-1,"question_num":181,"has_decoy":false},{"rt":732.0999999642372,"stimulus":"[A] option 1, [L] option 2, [G] neither","key_press":65,"name":"choice","trial_type":"html-keyboard-response","trial_index":219,"time_elapsed":338227,"internal_node_id":"0.0-219.0","subject":"S1C0822","sona":"41449","block":2,"time":"2021-09-16T22:44:18.258Z","response":"1st","certainty":"high","char":"A","transposition":0,"order":["shifted","swapped"],"probe_pitches":[3,1,6,3,8,6,11,1],"shifted_pitches":[3,1,6,3,9,6,11,1],"swapped_pitches":[3,1,6,8,3,6,11,1],"shift_direction":1,"question_num":191,"has_decoy":false}]