[{"rt":364.60000002384186,"stimulus":"[A] option 1, [L] option 2, [G] neither","key_press":76,"name":"choice","trial_type":"html-keyboard-response","trial_index":10,"time_elapsed":17832,"internal_node_id":"0.0-10.0","subject":"S1C0822","sona":"41449","block":6,"time":"2021-09-16T23:09:02.578Z","response":"2nd","certainty":"high","char":"L","transposition":-1,"order":["swapped","shifted"],"probe_pitches":[-2,3,-2,1,6,-2,8,7],"shifted_pitches":[-2,3,-2,0,6,-2,8,7],"swapped_pitches":[-2,3,-2,6,1,-2,8,7],"shift_direction":-1,"question_num":1,"has_decoy":false},{"rt":464.4000000357628,"stimulus":"[A] option 1, [L] option 2, [G] neither","key_press":65,"name":"choice","trial_type":"html-keyboard-response","trial_index":21,"time_elapsed":33148,"internal_node_id":"0.0-21.0","subject":"S1C0822","sona":"41449","block":6,"time":"2021-09-16T23:09:02.578Z","response":"1st","certainty":"high","char":"A","transposition":-3,"order":["shifted","swapped"],"probe_pitches":[-2,0,4,9,0,2,4,3],"shifted_pitches":[-2,0,4,8,0,2,4,3],"swapped_pitches":[-2,0,4,0,9,2,4,3],"shift_direction":-1,"question_num":11,"has_decoy":false},{"rt":417.30000001192093,"stimulus":"[A] option 1, [L] option 2, [G] neither","key_press":76,"name":"choice","trial_type":"html-keyboard-response","trial_index":32,"time_elapsed":47884,"internal_node_id":"0.0-32.0","subject":"S1C0822","sona":"41449","block":6,"time":"2021-09-16T23:09:02.578Z","response":"2nd","certainty":"high","char":"L","transposition":0,"order":["swapped","shifted"],"probe_pitches":[6,7,9,7,3,5,9,-1],"shifted_pitches":[6,7,9,7,4,5,9,-1],"swapped_pitches":[6,7,9,3,7,5,9,-1],"shift_direction":1,"question_num":21,"has_decoy":false},{"rt":418.19999998807907,"stimulus":"[A] option 1, [L] option 2, [G] neither","key_press":65,"name":"choice","trial_type":"html-keyboard-response","trial_index":43,"time_elapsed":62621,"internal_node_id":"0.0-43.0","subject":"S1C0822","sona":"41449","block":6,"time":"2021-09-16T23:09:02.578Z","response":"1st","certainty":"high","char":"A","transposition":-2,"order":["shifted","swapped"],"probe_pitches":[11,8,4,-1,8,6,1,4],"shifted_pitches":[11,8,4,-1,7,6,1,4],"swapped_pitches":[11,8,4,8,-1,6,1,4],"shift_direction":-1,"question_num":31,"has_decoy":false},{"rt":718.1999999880791,"stimulus":"[A] option 1, [L] option 2, [G] neither","key_press":76,"name":"choice","trial_type":"html-keyboard-response","trial_index":54,"time_elapsed":78137,"internal_node_id":"0.0-54.0","subject":"S1C0822","sona":"41449","block":6,"time":"2021-09-16T23:09:02.578Z","response":"2nd","certainty":"high","char":"L","transposition":-3,"order":["swapped","shifted"],"probe_pitches":[6,2,8,9,0,3,7,9],"shifted_pitches":[6,2,8,9,1,3,7,9],"swapped_pitches":[6,2,8,0,9,3,7,9],"shift_direction":1,"question_num":41,"has_decoy":false},{"rt":559.9000000357628,"stimulus":"[A] option 1, [L] option 2, [G] neither","key_press":65,"name":"choice","trial_type":"html-keyboard-response","trial_index":65,"time_elapsed":93428,"internal_node_id":"0.0-65.0","subject":"S1C0822","sona":"41449","block":6,"time":"2021-09-16T23:09:02.578Z","response":"1st","certainty":"high","char":"A","transposition":3,"order":["swapped","shifted"],"probe_pitches":[-1,4,9,1,4,-1,6,4],"shifted_pitches":[-1,4,9,1,5,-1,6,4],"swapped_pitches":[-1,4,9,4,1,-1,6,4],"shift_direction":1,"question_num":51,"has_decoy":false},{"rt":784.0999999642372,"stimulus":"[A] option 1, [L] option 2, [G] neither","key_press":65,"name":"choice","trial_type":"html-keyboard-response","trial_index":76,"time_elapsed":108276,"internal_node_id":"0.0-76.0","subject":"S1C0822","sona":"41449","block":6,"time":"2021-09-16T23:09:02.578Z","response":"1st","certainty":"high","char":"A","transposition":-1,"order":["shifted","swapped"],"probe_pitches":[6,1,8,4,-1,6,1,11],"shifted_pitches":[6,1,8,3,-1,6,1,11],"swapped_pitches":[6,1,8,-1,4,6,1,11],"shift_direction":-1,"question_num":61,"has_decoy":false},{"rt":544.5999999642372,"stimulus":"[A] option 1, [L] option 2, [G] neither","key_press":76,"name":"choice","trial_type":"html-keyboard-response","trial_index":87,"time_elapsed":122853,"internal_node_id":"0.0-87.0","subject":"S1C0822","sona":"41449","block":6,"time":"2021-09-16T23:09:02.578Z","response":"2nd","certainty":"high","char":"L","transposition":-2,"order":["shifted","swapped"],"probe_pitches":[4,-1,2,9,4,-1,9,6],"shifted_pitches":[4,-1,2,9,3,-1,9,6],"swapped_pitches":[4,-1,2,4,9,-1,9,6],"shift_direction":-1,"question_num":71,"has_decoy":false},{"rt":715.7999999523163,"stimulus":"[A] option 1, [L] option 2, [G] neither","key_press":76,"name":"choice","trial_type":"html-keyboard-response","trial_index":98,"time_elapsed":137829,"internal_node_id":"0.0-98.0","subject":"S1C0822","sona":"41449","block":6,"time":"2021-09-16T23:09:02.578Z","response":"2nd","certainty":"high","char":"L","transposition":1,"order":["swapped","shifted"],"probe_pitches":[8,6,8,1,-1,6,3,6],"shifted_pitches":[8,6,8,2,-1,6,3,6],"swapped_pitches":[8,6,8,-1,1,6,3,6],"shift_direction":1,"question_num":81,"has_decoy":false},{"rt":513.3999999761581,"stimulus":"[A] option 1, [L] option 2, [G] neither","key_press":76,"name":"choice","trial_type":"html-keyboard-response","trial_index":109,"time_elapsed":152954,"internal_node_id":"0.0-109.0","subject":"S1C0822","sona":"41449","block":6,"time":"2021-09-16T23:09:02.578Z","response":"2nd","certainty":"high","char":"L","transposition":-2,"order":["swapped","shifted"],"probe_pitches":[5,4,3,8,1,6,-1,-2],"shifted_pitches":[5,4,3,9,1,6,-1,-2],"swapped_pitches":[5,4,3,1,8,6,-1,-2],"shift_direction":1,"question_num":91,"has_decoy":false},{"rt":409.60000002384186,"stimulus":"[A] option 1, [L] option 2, [G] neither","key_press":65,"name":"choice","trial_type":"html-keyboard-response","trial_index":120,"time_elapsed":167858,"internal_node_id":"0.0-120.0","subject":"S1C0822","sona":"41449","block":6,"time":"2021-09-16T23:09:02.578Z","response":"1st","certainty":"high","char":"A","transposition":-3,"order":["swapped","shifted"],"probe_pitches":[1,3,-1,3,8,-1,8,6],"shifted_pitches":[1,3,-1,4,8,-1,8,6],"swapped_pitches":[1,3,-1,8,3,-1,8,6],"shift_direction":1,"question_num":101,"has_decoy":false},{"rt":448.5999999642372,"stimulus":"[A] option 1, [L] option 2, [G] neither","key_press":76,"name":"choice","trial_type":"html-keyboard-response","trial_index":131,"time_elapsed":182664,"internal_node_id":"0.0-131.0","subject":"S1C0822","sona":"41449","block":6,"time":"2021-09-16T23:09:02.578Z","response":"2nd","certainty":"high","char":"L","transposition":3,"order":["shifted","swapped"],"probe_pitches":[1,0,-2,6,4,10,-1,4],"shifted_pitches":[1,0,-2,6,3,10,-1,4],"swapped_pitches":[1,0,-2,4,6,10,-1,4],"shift_direction":-1,"question_num":111,"has_decoy":false},{"rt":329.5,"stimulus":"[A] option 1, [L] option 2, [G] neither","key_press":65,"name":"choice","trial_type":"html-keyboard-response","trial_index":142,"time_elapsed":197254,"internal_node_id":"0.0-142.0","subject":"S1C0822","sona":"41449","block":6,"time":"2021-09-16T23:09:02.578Z","response":"1st","certainty":"high","char":"A","transposition":-2,"order":["shifted","swapped"],"probe_pitches":[7,3,-1,3,8,-1,9,-1],"shifted_pitches":[7,3,-1,2,8,-1,9,-1],"swapped_pitches":[7,3,-1,8,3,-1,9,-1],"shift_direction":-1,"question_num":121,"has_decoy":false},{"rt":614.4000000357628,"stimulus":"[A] option 1, [L] option 2, [G] neither","key_press":65,"name":"choice","trial_type":"html-keyboard-response","trial_index":153,"time_elapsed":212121,"internal_node_id":"0.0-153.0","subject":"S1C0822","sona":"41449","block":6,"time":"2021-09-16T23:09:02.578Z","response":"1st","certainty":"high","char":"A","transposition":2,"order":["swapped","shifted"],"probe_pitches":[10,8,1,6,8,2,-2,4],"shifted_pitches":[10,8,1,5,8,2,-2,4],"swapped_pitches":[10,8,1,8,6,2,-2,4],"shift_direction":-1,"question_num":131,"has_decoy":false},{"rt":459.0999999642372,"stimulus":"[A] option 1, [L] option 2, [G] neither","key_press":76,"name":"choice","trial_type":"html-keyboard-response","trial_index":164,"time_elapsed":227106,"internal_node_id":"0.0-164.0","subject":"S1C0822","sona":"41449","block":6,"time":"2021-09-16T23:09:02.578Z","response":"2nd","certainty":"high","char":"L","transposition":-1,"order":["shifted","swapped"],"probe_pitches":[11,7,11,7,4,11,9,2],"shifted_pitches":[11,7,11,8,4,11,9,2],"swapped_pitches":[11,7,11,4,7,11,9,2],"shift_direction":1,"question_num":141,"has_decoy":false},{"rt":462.80000001192093,"stimulus":"[A] option 1, [L] option 2, [G] neither","key_press":65,"name":"choice","trial_type":"html-keyboard-response","trial_index":175,"time_elapsed":241674,"internal_node_id":"0.0-175.0","subject":"S1C0822","sona":"41449","block":6,"time":"2021-09-16T23:09:02.578Z","response":"1st","certainty":"high","char":"A","transposition":2,"order":["shifted","swapped"],"probe_pitches":[4,9,6,9,11,2,4,-1],"shifted_pitches":[4,9,6,8,11,2,4,-1],"swapped_pitches":[4,9,6,11,9,2,4,-1],"shift_direction":-1,"question_num":151,"has_decoy":false},{"rt":873.3000000119209,"stimulus":"[A] option 1, [L] option 2, [G] neither","key_press":65,"name":"choice","trial_type":"html-keyboard-response","trial_index":186,"time_elapsed":257845,"internal_node_id":"0.0-186.0","subject":"S1C0822","sona":"41449","block":6,"time":"2021-09-16T23:09:02.578Z","response":"1st","certainty":"high","char":"A","transposition":0,"order":["swapped","shifted"],"probe_pitches":[11,6,9,1,-1,4,9,-1],"shifted_pitches":[11,6,9,1,-2,4,9,-1],"swapped_pitches":[11,6,9,-1,1,4,9,-1],"shift_direction":-1,"question_num":161,"has_decoy":false},{"rt":1232.7000000476837,"stimulus":"[A] option 1, [L] option 2, [G] neither","key_press":76,"name":"choice","trial_type":"html-keyboard-response","trial_index":197,"time_elapsed":273313,"internal_node_id":"0.0-197.0","subject":"S1C0822","sona":"41449","block":6,"time":"2021-09-16T23:09:02.578Z","response":"2nd","certainty":"high","char":"L","transposition":1,"order":["shifted","swapped"],"probe_pitches":[5,8,10,2,6,4,1,2],"shifted_pitches":[5,8,10,2,7,4,1,2],"swapped_pitches":[5,8,10,6,2,4,1,2],"shift_direction":1,"question_num":171,"has_decoy":false},{"rt":821.6000000238419,"stimulus":"[A] option 1, [L] option 2, [G] neither","key_press":76,"name":"choice","trial_type":"html-keyboard-response","trial_index":208,"time_elapsed":288560,"internal_node_id":"0.0-208.0","subject":"S1C0822","sona":"41449","block":6,"time":"2021-09-16T23:09:02.578Z","response":"2nd","certainty":"high","char":"L","transposition":-3,"order":["swapped","shifted"],"probe_pitches":[4,-1,2,4,9,7,-1,7],"shifted_pitches":[4,-1,2,4,10,7,-1,7],"swapped_pitches":[4,-1,2,9,4,7,-1,7],"shift_direction":1,"question_num":181,"has_decoy":false},{"rt":419.9000000357628,"stimulus":"[A] option 1, [L] option 2, [G] neither","key_press":65,"name":"choice","trial_type":"html-keyboard-response","trial_index":219,"time_elapsed":303396,"internal_node_id":"0.0-219.0","subject":"S1C0822","sona":"41449","block":6,"time":"2021-09-16T23:09:02.578Z","response":"1st","certainty":"high","char":"A","transposition":-1,"order":["shifted","swapped"],"probe_pitches":[2,8,7,9,5,-2,5,-1],"shifted_pitches":[2,8,7,9,6,-2,5,-1],"swapped_pitches":[2,8,7,5,9,-2,5,-1],"shift_direction":1,"question_num":191,"has_decoy":false}]