[{"rt":895.4000000357628,"stimulus":"[A] option 1, [L] option 2, [G] neither","key_press":65,"name":"choice","trial_type":"html-keyboard-response","trial_index":10,"time_elapsed":21377,"internal_node_id":"0.0-10.0","subject":"S1C0822","sona":"41449","block":3,"time":"2021-09-16T22:49:58.783Z","response":"1st","certainty":"high","char":"A","transposition":0,"order":["swapped","shifted"],"probe_pitches":[-3,0,2,9,7,2,5,2],"shifted_pitches":[-3,0,2,9,6,2,5,2],"swapped_pitches":[-3,0,2,7,9,2,5,2],"shift_direction":-1,"question_num":1,"has_decoy":false},{"rt":2853,"stimulus":"[A] option 1, [L] option 2, [G] neither","key_press":65,"name":"choice","trial_type":"html-keyboard-response","trial_index":21,"time_elapsed":43068,"internal_node_id":"0.0-21.0","subject":"S1C0822","sona":"41449","block":3,"time":"2021-09-16T22:49:58.783Z","response":"1st","certainty":"high","char":"A","transposition":-1,"order":["shifted","swapped"],"probe_pitches":[1,7,1,9,4,0,-1,4],"shifted_pitches":[1,7,1,8,4,0,-1,4],"swapped_pitches":[1,7,1,4,9,0,-1,4],"shift_direction":-1,"question_num":11,"has_decoy":false},{"rt":709.0999999642372,"stimulus":"[A] option 1, [L] option 2, [G] neither","key_press":65,"name":"choice","trial_type":"html-keyboard-response","trial_index":32,"time_elapsed":60310,"internal_node_id":"0.0-32.0","subject":"S1C0822","sona":"41449","block":3,"time":"2021-09-16T22:49:58.783Z","response":"1st","certainty":"high","char":"A","transposition":3,"order":["swapped","shifted"],"probe_pitches":[8,2,9,6,2,9,3,0],"shifted_pitches":[8,2,9,5,2,9,3,0],"swapped_pitches":[8,2,9,2,6,9,3,0],"shift_direction":-1,"question_num":21,"has_decoy":false},{"rt":1583.800000011921,"stimulus":"[A] option 1, [L] option 2, [G] neither","key_press":76,"name":"choice","trial_type":"html-keyboard-response","trial_index":43,"time_elapsed":77931,"internal_node_id":"0.0-43.0","subject":"S1C0822","sona":"41449","block":3,"time":"2021-09-16T22:49:58.783Z","response":"2nd","certainty":"high","char":"L","transposition":-3,"order":["shifted","swapped"],"probe_pitches":[6,3,7,4,1,9,2,-3],"shifted_pitches":[6,3,7,4,0,9,2,-3],"swapped_pitches":[6,3,7,1,4,9,2,-3],"shift_direction":-1,"question_num":31,"has_decoy":false},{"rt":2444.199999988079,"stimulus":"[A] option 1, [L] option 2, [G] neither","key_press":65,"name":"choice","trial_type":"html-keyboard-response","trial_index":54,"time_elapsed":95250,"internal_node_id":"0.0-54.0","subject":"S1C0822","sona":"41449","block":3,"time":"2021-09-16T22:49:58.783Z","response":"1st","certainty":"high","char":"A","transposition":2,"order":["shifted","swapped"],"probe_pitches":[-1,-3,1,6,4,9,4,-1],"shifted_pitches":[-1,-3,1,7,4,9,4,-1],"swapped_pitches":[-1,-3,1,4,6,9,4,-1],"shift_direction":1,"question_num":41,"has_decoy":false},{"rt":1284.6000000238419,"stimulus":"[A] option 1, [L] option 2, [G] neither","key_press":76,"name":"choice","trial_type":"html-keyboard-response","trial_index":65,"time_elapsed":111023,"internal_node_id":"0.0-65.0","subject":"S1C0822","sona":"41449","block":3,"time":"2021-09-16T22:49:58.783Z","response":"2nd","certainty":"high","char":"L","transposition":-1,"order":["shifted","swapped"],"probe_pitches":[4,2,9,6,-3,-1,6,-1],"shifted_pitches":[4,2,9,7,-3,-1,6,-1],"swapped_pitches":[4,2,9,-3,6,-1,6,-1],"shift_direction":1,"question_num":51,"has_decoy":false},{"rt":960.1999999880791,"stimulus":"[A] option 1, [L] option 2, [G] neither","key_press":76,"name":"choice","trial_type":"html-keyboard-response","trial_index":76,"time_elapsed":127243,"internal_node_id":"0.0-76.0","subject":"S1C0822","sona":"41449","block":3,"time":"2021-09-16T22:49:58.783Z","response":"2nd","certainty":"high","char":"L","transposition":-2,"order":["swapped","shifted"],"probe_pitches":[4,7,2,7,-1,4,9,2],"shifted_pitches":[4,7,2,8,-1,4,9,2],"swapped_pitches":[4,7,2,-1,7,4,9,2],"shift_direction":1,"question_num":61,"has_decoy":false},{"rt":699.3000000119209,"stimulus":"[A] option 1, [L] option 2, [G] neither","key_press":65,"name":"choice","trial_type":"html-keyboard-response","trial_index":87,"time_elapsed":143456,"internal_node_id":"0.0-87.0","subject":"S1C0822","sona":"41449","block":3,"time":"2021-09-16T22:49:58.783Z","response":"1st","certainty":"high","char":"A","transposition":2,"order":["shifted","swapped"],"probe_pitches":[2,8,9,4,2,-1,1,-2],"shifted_pitches":[2,8,9,4,3,-1,1,-2],"swapped_pitches":[2,8,9,2,4,-1,1,-2],"shift_direction":1,"question_num":71,"has_decoy":false},{"rt":766.1999999880791,"stimulus":"[A] option 1, [L] option 2, [G] neither","key_press":76,"name":"choice","trial_type":"html-keyboard-response","trial_index":98,"time_elapsed":159374,"internal_node_id":"0.0-98.0","subject":"S1C0822","sona":"41449","block":3,"time":"2021-09-16T22:49:58.783Z","response":"2nd","certainty":"high","char":"L","transposition":-2,"order":["shifted","swapped"],"probe_pitches":[3,-3,2,6,-2,4,5,-2],"shifted_pitches":[3,-3,2,7,-2,4,5,-2],"swapped_pitches":[3,-3,2,-2,6,4,5,-2],"shift_direction":1,"question_num":81,"has_decoy":false},{"rt":2290.099999964237,"stimulus":"[A] option 1, [L] option 2, [G] neither","key_press":65,"name":"choice","trial_type":"html-keyboard-response","trial_index":109,"time_elapsed":176107,"internal_node_id":"0.0-109.0","subject":"S1C0822","sona":"41449","block":3,"time":"2021-09-16T22:49:58.783Z","response":"1st","certainty":"high","char":"A","transposition":-3,"order":["swapped","shifted"],"probe_pitches":[7,1,-2,1,3,9,1,-1],"shifted_pitches":[7,1,-2,1,4,9,1,-1],"swapped_pitches":[7,1,-2,3,1,9,1,-1],"shift_direction":1,"question_num":91,"has_decoy":false},{"rt":372.19999998807907,"stimulus":"[A] option 1, [L] option 2, [G] neither","key_press":65,"name":"choice","trial_type":"html-keyboard-response","trial_index":120,"time_elapsed":192952,"internal_node_id":"0.0-120.0","subject":"S1C0822","sona":"41449","block":3,"time":"2021-09-16T22:49:58.783Z","response":"1st","certainty":"high","char":"A","transposition":-3,"order":["shifted","swapped"],"probe_pitches":[-1,2,4,-3,-1,9,6,-3],"shifted_pitches":[-1,2,4,-3,-2,9,6,-3],"swapped_pitches":[-1,2,4,-1,-3,9,6,-3],"shift_direction":-1,"question_num":101,"has_decoy":false},{"rt":255.19999998807907,"stimulus":"[A] option 1, [L] option 2, [G] neither","key_press":65,"name":"choice","trial_type":"html-keyboard-response","trial_index":131,"time_elapsed":208873,"internal_node_id":"0.0-131.0","subject":"S1C0822","sona":"41449","block":3,"time":"2021-09-16T22:49:58.783Z","response":"1st","certainty":"high","char":"A","transposition":-2,"order":["shifted","swapped"],"probe_pitches":[0,-3,4,7,0,2,-3,0],"shifted_pitches":[0,-3,4,7,1,2,-3,0],"swapped_pitches":[0,-3,4,0,7,2,-3,0],"shift_direction":1,"question_num":111,"has_decoy":false},{"rt":421,"stimulus":"[A] option 1, [L] option 2, [G] neither","key_press":76,"name":"choice","trial_type":"html-keyboard-response","trial_index":142,"time_elapsed":223779,"internal_node_id":"0.0-142.0","subject":"S1C0822","sona":"41449","block":3,"time":"2021-09-16T22:49:58.783Z","response":"2nd","certainty":"high","char":"L","transposition":-3,"order":["swapped","shifted"],"probe_pitches":[1,6,9,4,1,-1,9,-3],"shifted_pitches":[1,6,9,4,0,-1,9,-3],"swapped_pitches":[1,6,9,1,4,-1,9,-3],"shift_direction":-1,"question_num":121,"has_decoy":false},{"rt":439.4000000357628,"stimulus":"[A] option 1, [L] option 2, [G] neither","key_press":76,"name":"choice","trial_type":"html-keyboard-response","trial_index":153,"time_elapsed":238811,"internal_node_id":"0.0-153.0","subject":"S1C0822","sona":"41449","block":3,"time":"2021-09-16T22:49:58.783Z","response":"2nd","certainty":"high","char":"L","transposition":-1,"order":["swapped","shifted"],"probe_pitches":[4,2,-3,4,2,7,2,-1],"shifted_pitches":[4,2,-3,3,2,7,2,-1],"swapped_pitches":[4,2,-3,2,4,7,2,-1],"shift_direction":-1,"question_num":131,"has_decoy":false},{"rt":1970.8999999761581,"stimulus":"[A] option 1, [L] option 2, [G] neither","key_press":76,"name":"choice","trial_type":"html-keyboard-response","trial_index":164,"time_elapsed":255163,"internal_node_id":"0.0-164.0","subject":"S1C0822","sona":"41449","block":3,"time":"2021-09-16T22:49:58.783Z","response":"2nd","certainty":"high","char":"L","transposition":-2,"order":["shifted","swapped"],"probe_pitches":[5,9,3,6,1,-1,6,7],"shifted_pitches":[5,9,3,6,2,-1,6,7],"swapped_pitches":[5,9,3,1,6,-1,6,7],"shift_direction":1,"question_num":141,"has_decoy":false},{"rt":326.89999997615814,"stimulus":"[A] option 1, [L] option 2, [G] neither","key_press":65,"name":"choice","trial_type":"html-keyboard-response","trial_index":175,"time_elapsed":269860,"internal_node_id":"0.0-175.0","subject":"S1C0822","sona":"41449","block":3,"time":"2021-09-16T22:49:58.783Z","response":"1st","certainty":"high","char":"A","transposition":1,"order":["swapped","shifted"],"probe_pitches":[8,7,8,7,4,-3,4,-1],"shifted_pitches":[8,7,8,6,4,-3,4,-1],"swapped_pitches":[8,7,8,4,7,-3,4,-1],"shift_direction":-1,"question_num":151,"has_decoy":false},{"rt":1869.9000000357628,"stimulus":"[A] option 1, [L] option 2, [G] neither","key_press":65,"name":"choice","trial_type":"html-keyboard-response","trial_index":186,"time_elapsed":287285,"internal_node_id":"0.0-186.0","subject":"S1C0822","sona":"41449","block":3,"time":"2021-09-16T22:49:58.783Z","response":"1st","certainty":"high","char":"A","transposition":-1,"order":["swapped","shifted"],"probe_pitches":[-1,5,-1,7,2,6,2,8],"shifted_pitches":[-1,5,-1,7,1,6,2,8],"swapped_pitches":[-1,5,-1,2,7,6,2,8],"shift_direction":-1,"question_num":161,"has_decoy":false},{"rt":763.8999999761581,"stimulus":"[A] option 1, [L] option 2, [G] neither","key_press":65,"name":"choice","trial_type":"html-keyboard-response","trial_index":197,"time_elapsed":303203,"internal_node_id":"0.0-197.0","subject":"S1C0822","sona":"41449","block":3,"time":"2021-09-16T22:49:58.783Z","response":"1st","certainty":"high","char":"A","transposition":3,"order":["shifted","swapped"],"probe_pitches":[0,5,7,9,0,2,7,-3],"shifted_pitches":[0,5,7,8,0,2,7,-3],"swapped_pitches":[0,5,7,0,9,2,7,-3],"shift_direction":-1,"question_num":171,"has_decoy":false},{"rt":818.2999999523163,"stimulus":"[A] option 1, [L] option 2, [G] neither","key_press":76,"name":"choice","trial_type":"html-keyboard-response","trial_index":208,"time_elapsed":319097,"internal_node_id":"0.0-208.0","subject":"S1C0822","sona":"41449","block":3,"time":"2021-09-16T22:49:58.783Z","response":"2nd","certainty":"high","char":"L","transposition":0,"order":["swapped","shifted"],"probe_pitches":[6,0,2,-2,4,-3,-2,1],"shifted_pitches":[6,0,2,-1,4,-3,-2,1],"swapped_pitches":[6,0,2,4,-2,-3,-2,1],"shift_direction":1,"question_num":181,"has_decoy":false},{"rt":1809.699999988079,"stimulus":"[A] option 1, [L] option 2, [G] neither","key_press":65,"name":"choice","trial_type":"html-keyboard-response","trial_index":219,"time_elapsed":335224,"internal_node_id":"0.0-219.0","subject":"S1C0822","sona":"41449","block":3,"time":"2021-09-16T22:49:58.783Z","response":"1st","certainty":"high","char":"A","transposition":1,"order":["swapped","shifted"],"probe_pitches":[2,7,0,-3,2,0,4,9],"shifted_pitches":[2,7,0,-3,3,0,4,9],"swapped_pitches":[2,7,0,2,-3,0,4,9],"shift_direction":1,"question_num":191,"has_decoy":false}]