[{"rt":472.10000002384186,"stimulus":"[A] option 1, [L] option 2, [G] neither","key_press":65,"name":"choice","trial_type":"html-keyboard-response","trial_index":10,"time_elapsed":32833,"internal_node_id":"0.0-10.0","subject":"S1C0822","sona":"41449","block":4,"time":"2021-09-16T22:58:04.986Z","response":"1st","certainty":"high","char":"A","transposition":-2,"order":["swapped","shifted"],"probe_pitches":[15,14,12,10,15,13,8,5],"shifted_pitches":[15,14,12,9,15,13,8,5],"swapped_pitches":[15,14,12,15,10,13,8,5],"shift_direction":-1,"question_num":1,"has_decoy":false},{"rt":1340,"stimulus":"[A] option 1, [L] option 2, [G] neither","key_press":76,"name":"choice","trial_type":"html-keyboard-response","trial_index":21,"time_elapsed":49194,"internal_node_id":"0.0-21.0","subject":"S1C0822","sona":"41449","block":4,"time":"2021-09-16T22:58:04.986Z","response":"2nd","certainty":"high","char":"L","transposition":1,"order":["swapped","shifted"],"probe_pitches":[15,11,15,7,5,12,11,14],"shifted_pitches":[15,11,15,7,6,12,11,14],"swapped_pitches":[15,11,15,5,7,12,11,14],"shift_direction":1,"question_num":11,"has_decoy":false},{"rt":5855.099999964237,"stimulus":"[A] option 1, [L] option 2, [G] neither","key_press":65,"name":"choice","trial_type":"html-keyboard-response","trial_index":32,"time_elapsed":72888,"internal_node_id":"0.0-32.0","subject":"S1C0822","sona":"41449","block":4,"time":"2021-09-16T22:58:04.986Z","response":"1st","certainty":"high","char":"A","transposition":-2,"order":["swapped","shifted"],"probe_pitches":[8,11,6,4,11,13,4,11],"shifted_pitches":[8,11,6,3,11,13,4,11],"swapped_pitches":[8,11,6,11,4,13,4,11],"shift_direction":-1,"question_num":21,"has_decoy":false},{"rt":1821.0999999642372,"stimulus":"[A] option 1, [L] option 2, [G] neither","key_press":76,"name":"choice","trial_type":"html-keyboard-response","trial_index":43,"time_elapsed":175009,"internal_node_id":"0.0-43.0","subject":"S1C0822","sona":"41449","block":4,"time":"2021-09-16T22:58:04.986Z","response":"2nd","certainty":"high","char":"L","transposition":-1,"order":["shifted","swapped"],"probe_pitches":[13,11,4,6,11,1,8,4],"shifted_pitches":[13,11,4,5,11,1,8,4],"swapped_pitches":[13,11,4,11,6,1,8,4],"shift_direction":-1,"question_num":31,"has_decoy":false},{"rt":1237.8999999761581,"stimulus":"[A] option 1, [L] option 2, [G] neither","key_press":65,"name":"choice","trial_type":"html-keyboard-response","trial_index":54,"time_elapsed":191514,"internal_node_id":"0.0-54.0","subject":"S1C0822","sona":"41449","block":4,"time":"2021-09-16T22:58:04.986Z","response":"1st","certainty":"high","char":"A","transposition":3,"order":["swapped","shifted"],"probe_pitches":[15,14,15,14,9,7,3,6],"shifted_pitches":[15,14,15,13,9,7,3,6],"swapped_pitches":[15,14,15,9,14,7,3,6],"shift_direction":-1,"question_num":41,"has_decoy":false},{"rt":535.9000000357628,"stimulus":"[A] option 1, [L] option 2, [G] neither","key_press":76,"name":"choice","trial_type":"html-keyboard-response","trial_index":65,"time_elapsed":210870,"internal_node_id":"0.0-65.0","subject":"S1C0822","sona":"41449","block":4,"time":"2021-09-16T22:58:04.986Z","response":"2nd","certainty":"high","char":"L","transposition":-3,"order":["swapped","shifted"],"probe_pitches":[1,3,10,5,8,10,5,10],"shifted_pitches":[1,3,10,6,8,10,5,10],"swapped_pitches":[1,3,10,8,5,10,5,10],"shift_direction":1,"question_num":51,"has_decoy":false},{"rt":443.5,"stimulus":"[A] option 1, [L] option 2, [G] neither","key_press":76,"name":"choice","trial_type":"html-keyboard-response","trial_index":76,"time_elapsed":227348,"internal_node_id":"0.0-76.0","subject":"S1C0822","sona":"41449","block":4,"time":"2021-09-16T22:58:04.986Z","response":"2nd","certainty":"high","char":"L","transposition":-2,"order":["swapped","shifted"],"probe_pitches":[13,10,3,6,8,13,6,3],"shifted_pitches":[13,10,3,6,9,13,6,3],"swapped_pitches":[13,10,3,8,6,13,6,3],"shift_direction":1,"question_num":61,"has_decoy":false},{"rt":1939,"stimulus":"[A] option 1, [L] option 2, [G] neither","key_press":65,"name":"choice","trial_type":"html-keyboard-response","trial_index":87,"time_elapsed":244114,"internal_node_id":"0.0-87.0","subject":"S1C0822","sona":"41449","block":4,"time":"2021-09-16T22:58:04.986Z","response":"1st","certainty":"high","char":"A","transposition":3,"order":["shifted","swapped"],"probe_pitches":[3,8,6,3,1,6,1,11],"shifted_pitches":[3,8,6,3,0,6,1,11],"swapped_pitches":[3,8,6,1,3,6,1,11],"shift_direction":-1,"question_num":71,"has_decoy":false},{"rt":1018.8000000119209,"stimulus":"[A] option 1, [L] option 2, [G] neither","key_press":65,"name":"choice","trial_type":"html-keyboard-response","trial_index":98,"time_elapsed":263026,"internal_node_id":"0.0-98.0","subject":"S1C0822","sona":"41449","block":4,"time":"2021-09-16T22:58:04.986Z","response":"1st","certainty":"high","char":"A","transposition":2,"order":["shifted","swapped"],"probe_pitches":[11,8,3,6,11,3,1,13],"shifted_pitches":[11,8,3,5,11,3,1,13],"swapped_pitches":[11,8,3,11,6,3,1,13],"shift_direction":-1,"question_num":81,"has_decoy":false},{"rt":469.69999998807907,"stimulus":"[A] option 1, [L] option 2, [G] neither","key_press":76,"name":"choice","trial_type":"html-keyboard-response","trial_index":109,"time_elapsed":279885,"internal_node_id":"0.0-109.0","subject":"S1C0822","sona":"41449","block":4,"time":"2021-09-16T22:58:04.986Z","response":"2nd","certainty":"high","char":"L","transposition":0,"order":["swapped","shifted"],"probe_pitches":[13,10,12,4,9,10,6,8],"shifted_pitches":[13,10,12,5,9,10,6,8],"swapped_pitches":[13,10,12,9,4,10,6,8],"shift_direction":1,"question_num":91,"has_decoy":false},{"rt":243.5999999642372,"stimulus":"[A] option 1, [L] option 2, [G] neither","key_press":65,"name":"choice","trial_type":"html-keyboard-response","trial_index":120,"time_elapsed":294885,"internal_node_id":"0.0-120.0","subject":"S1C0822","sona":"41449","block":4,"time":"2021-09-16T22:58:04.986Z","response":"1st","certainty":"high","char":"A","transposition":-1,"order":["shifted","swapped"],"probe_pitches":[9,6,4,11,8,3,13,15],"shifted_pitches":[9,6,4,11,7,3,13,15],"swapped_pitches":[9,6,4,8,11,3,13,15],"shift_direction":-1,"question_num":101,"has_decoy":false},{"rt":757.8999999761581,"stimulus":"[A] option 1, [L] option 2, [G] neither","key_press":76,"name":"choice","trial_type":"html-keyboard-response","trial_index":131,"time_elapsed":310861,"internal_node_id":"0.0-131.0","subject":"S1C0822","sona":"41449","block":4,"time":"2021-09-16T22:58:04.986Z","response":"2nd","certainty":"high","char":"L","transposition":2,"order":["shifted","swapped"],"probe_pitches":[3,7,6,9,7,5,11,10],"shifted_pitches":[3,7,6,9,8,5,11,10],"swapped_pitches":[3,7,6,7,9,5,11,10],"shift_direction":1,"question_num":111,"has_decoy":false},{"rt":1142.6000000238419,"stimulus":"[A] option 1, [L] option 2, [G] neither","key_press":76,"name":"choice","trial_type":"html-keyboard-response","trial_index":142,"time_elapsed":326867,"internal_node_id":"0.0-142.0","subject":"S1C0822","sona":"41449","block":4,"time":"2021-09-16T22:58:04.986Z","response":"2nd","certainty":"high","char":"L","transposition":-3,"order":["shifted","swapped"],"probe_pitches":[11,14,13,15,9,8,9,5],"shifted_pitches":[11,14,13,15,10,8,9,5],"swapped_pitches":[11,14,13,9,15,8,9,5],"shift_direction":1,"question_num":121,"has_decoy":false},{"rt":833.5,"stimulus":"[A] option 1, [L] option 2, [G] neither","key_press":65,"name":"choice","trial_type":"html-keyboard-response","trial_index":153,"time_elapsed":343592,"internal_node_id":"0.0-153.0","subject":"S1C0822","sona":"41449","block":4,"time":"2021-09-16T22:58:04.986Z","response":"1st","certainty":"high","char":"A","transposition":-1,"order":["swapped","shifted"],"probe_pitches":[4,6,13,11,9,1,9,1],"shifted_pitches":[4,6,13,11,10,1,9,1],"swapped_pitches":[4,6,13,9,11,1,9,1],"shift_direction":1,"question_num":131,"has_decoy":false},{"rt":868.5,"stimulus":"[A] option 1, [L] option 2, [G] neither","key_press":65,"name":"choice","trial_type":"html-keyboard-response","trial_index":164,"time_elapsed":359642,"internal_node_id":"0.0-164.0","subject":"S1C0822","sona":"41449","block":4,"time":"2021-09-16T22:58:04.986Z","response":"1st","certainty":"high","char":"A","transposition":-1,"order":["swapped","shifted"],"probe_pitches":[15,10,9,12,15,10,15,10],"shifted_pitches":[15,10,9,11,15,10,15,10],"swapped_pitches":[15,10,9,15,12,10,15,10],"shift_direction":-1,"question_num":141,"has_decoy":false},{"rt":11087.399999976158,"stimulus":"[A] option 1, [L] option 2, [G] neither","key_press":76,"name":"choice","trial_type":"html-keyboard-response","trial_index":175,"time_elapsed":396687,"internal_node_id":"0.0-175.0","subject":"S1C0822","sona":"41449","block":4,"time":"2021-09-16T22:58:04.986Z","response":"2nd","certainty":"high","char":"L","transposition":-3,"order":["shifted","swapped"],"probe_pitches":[3,6,8,1,10,8,3,13],"shifted_pitches":[3,6,8,2,10,8,3,13],"swapped_pitches":[3,6,8,10,1,8,3,13],"shift_direction":1,"question_num":151,"has_decoy":false},{"rt":4723,"stimulus":"[A] option 1, [L] option 2, [G] neither","key_press":76,"name":"choice","trial_type":"html-keyboard-response","trial_index":186,"time_elapsed":417421,"internal_node_id":"0.0-186.0","subject":"S1C0822","sona":"41449","block":4,"time":"2021-09-16T22:58:04.986Z","response":"2nd","certainty":"high","char":"L","transposition":-2,"order":["shifted","swapped"],"probe_pitches":[9,13,11,12,13,10,3,7],"shifted_pitches":[9,13,11,12,14,10,3,7],"swapped_pitches":[9,13,11,13,12,10,3,7],"shift_direction":1,"question_num":161,"has_decoy":false},{"rt":1017.3000000119209,"stimulus":"[A] option 1, [L] option 2, [G] neither","key_press":76,"name":"choice","trial_type":"html-keyboard-response","trial_index":197,"time_elapsed":445426,"internal_node_id":"0.0-197.0","subject":"S1C0822","sona":"41449","block":4,"time":"2021-09-16T22:58:04.986Z","response":"2nd","certainty":"high","char":"L","transposition":-3,"order":["shifted","swapped"],"probe_pitches":[15,14,8,13,7,11,5,14],"shifted_pitches":[15,14,8,12,7,11,5,14],"swapped_pitches":[15,14,8,7,13,11,5,14],"shift_direction":-1,"question_num":171,"has_decoy":false},{"rt":1782.5,"stimulus":"[A] option 1, [L] option 2, [G] neither","key_press":76,"name":"choice","trial_type":"html-keyboard-response","trial_index":208,"time_elapsed":461802,"internal_node_id":"0.0-208.0","subject":"S1C0822","sona":"41449","block":4,"time":"2021-09-16T22:58:04.986Z","response":"2nd","certainty":"high","char":"L","transposition":1,"order":["swapped","shifted"],"probe_pitches":[11,9,6,13,9,11,1,4],"shifted_pitches":[11,9,6,13,10,11,1,4],"swapped_pitches":[11,9,6,9,13,11,1,4],"shift_direction":1,"question_num":181,"has_decoy":false},{"rt":1341.3999999761581,"stimulus":"[A] option 1, [L] option 2, [G] neither","key_press":65,"name":"choice","trial_type":"html-keyboard-response","trial_index":219,"time_elapsed":480198,"internal_node_id":"0.0-219.0","subject":"S1C0822","sona":"41449","block":4,"time":"2021-09-16T22:58:04.986Z","response":"1st","certainty":"high","char":"A","transposition":0,"order":["shifted","swapped"],"probe_pitches":[10,5,3,8,10,13,5,3],"shifted_pitches":[10,5,3,8,9,13,5,3],"swapped_pitches":[10,5,3,10,8,13,5,3],"shift_direction":-1,"question_num":191,"has_decoy":false}]