[{"rt":29549.900000035763,"stimulus":"[A] option 1, [L] option 2, [G] neither","key_press":76,"name":"choice","trial_type":"html-keyboard-response","trial_index":10,"time_elapsed":56260,"internal_node_id":"0.0-10.0","subject":"S1C1659","sona":"41538","block":2,"time":"2021-09-22T22:17:53.330Z","response":"2nd","certainty":"high","char":"L","transposition":-3,"order":["swapped","shifted"],"probe_pitches":[5,10,5,8,0,10,3,12,10,0,12,5,12,10,3,5],"shifted_pitches":[5,10,5,8,0,10,3,12,9,0,12,5,12,10,3,5],"swapped_pitches":[5,10,5,8,0,10,3,10,12,0,12,5,12,10,3,5],"shift_direction":-1,"question_num":1,"has_decoy":false},{"rt":528.3000000119209,"stimulus":"[A] option 1, [L] option 2, [G] neither","key_press":76,"name":"choice","trial_type":"html-keyboard-response","trial_index":21,"time_elapsed":79896,"internal_node_id":"0.0-21.0","subject":"S1C1659","sona":"41538","block":2,"time":"2021-09-22T22:17:53.330Z","response":"2nd","certainty":"high","char":"L","transposition":0,"order":["swapped","shifted"],"probe_pitches":[9,12,9,4,9,0,4,2,12,0,12,4,7,0,12,7],"shifted_pitches":[9,12,9,4,9,0,4,1,12,0,12,4,7,0,12,7],"swapped_pitches":[9,12,9,4,9,0,4,12,2,0,12,4,7,0,12,7],"shift_direction":-1,"question_num":11,"has_decoy":false},{"rt":12059.099999964237,"stimulus":"[A] option 1, [L] option 2, [G] neither","key_press":76,"name":"choice","trial_type":"html-keyboard-response","trial_index":32,"time_elapsed":114873,"internal_node_id":"0.0-32.0","subject":"S1C1659","sona":"41538","block":2,"time":"2021-09-22T22:17:53.330Z","response":"2nd","certainty":"high","char":"L","transposition":-1,"order":["shifted","swapped"],"probe_pitches":[0,5,7,0,5,10,7,10,2,0,2,12,5,2,0,10],"shifted_pitches":[0,5,7,0,5,10,7,10,3,0,2,12,5,2,0,10],"swapped_pitches":[0,5,7,0,5,10,7,2,10,0,2,12,5,2,0,10],"shift_direction":1,"question_num":21,"has_decoy":false},{"rt":650.1000000238419,"stimulus":"[A] option 1, [L] option 2, [G] neither","key_press":76,"name":"choice","trial_type":"html-keyboard-response","trial_index":43,"time_elapsed":139241,"internal_node_id":"0.0-43.0","subject":"S1C1659","sona":"41538","block":2,"time":"2021-09-22T22:17:53.330Z","response":"2nd","certainty":"high","char":"L","transposition":2,"order":["swapped","shifted"],"probe_pitches":[2,7,4,12,7,2,12,0,7,4,12,9,2,7,9,0],"shifted_pitches":[2,7,4,12,7,2,12,1,7,4,12,9,2,7,9,0],"swapped_pitches":[2,7,4,12,7,2,12,7,0,4,12,9,2,7,9,0],"shift_direction":1,"question_num":31,"has_decoy":false},{"rt":955.3999999761581,"stimulus":"[A] option 1, [L] option 2, [G] neither","key_press":76,"name":"choice","trial_type":"html-keyboard-response","trial_index":54,"time_elapsed":162709,"internal_node_id":"0.0-54.0","subject":"S1C1659","sona":"41538","block":2,"time":"2021-09-22T22:17:53.330Z","response":"2nd","certainty":"high","char":"L","transposition":-3,"order":["swapped","shifted"],"probe_pitches":[12,7,3,7,0,10,0,7,12,10,5,0,7,12,3,0],"shifted_pitches":[12,7,3,7,0,10,0,6,12,10,5,0,7,12,3,0],"swapped_pitches":[12,7,3,7,0,10,0,12,7,10,5,0,7,12,3,0],"shift_direction":-1,"question_num":41,"has_decoy":false},{"rt":655.6999999880791,"stimulus":"[A] option 1, [L] option 2, [G] neither","key_press":76,"name":"choice","trial_type":"html-keyboard-response","trial_index":65,"time_elapsed":186784,"internal_node_id":"0.0-65.0","subject":"S1C1659","sona":"41538","block":2,"time":"2021-09-22T22:17:53.330Z","response":"2nd","certainty":"high","char":"L","transposition":3,"order":["swapped","shifted"],"probe_pitches":[9,5,7,0,9,12,5,2,7,12,7,0,2,9,12,7],"shifted_pitches":[9,5,7,0,9,12,5,1,7,12,7,0,2,9,12,7],"swapped_pitches":[9,5,7,0,9,12,5,7,2,12,7,0,2,9,12,7],"shift_direction":-1,"question_num":51,"has_decoy":false},{"rt":541.5,"stimulus":"[A] option 1, [L] option 2, [G] neither","key_press":76,"name":"choice","trial_type":"html-keyboard-response","trial_index":76,"time_elapsed":211051,"internal_node_id":"0.0-76.0","subject":"S1C1659","sona":"41538","block":2,"time":"2021-09-22T22:17:53.330Z","response":"2nd","certainty":"high","char":"L","transposition":2,"order":["swapped","shifted"],"probe_pitches":[6,3,4,6,3,8,3,4,6,14,15,4,3,9,6,10],"shifted_pitches":[6,3,4,6,3,8,3,5,6,14,15,4,3,9,6,10],"swapped_pitches":[6,3,4,6,3,8,3,6,4,14,15,4,3,9,6,10],"shift_direction":1,"question_num":61,"has_decoy":false},{"rt":869.3000000119209,"stimulus":"[A] option 1, [L] option 2, [G] neither","key_press":76,"name":"choice","trial_type":"html-keyboard-response","trial_index":87,"time_elapsed":234755,"internal_node_id":"0.0-87.0","subject":"S1C1659","sona":"41538","block":2,"time":"2021-09-22T22:17:53.330Z","response":"2nd","certainty":"high","char":"L","transposition":-1,"order":["shifted","swapped"],"probe_pitches":[10,5,0,8,3,5,12,0,8,10,5,0,12,3,10,5],"shifted_pitches":[10,5,0,8,3,5,12,0,9,10,5,0,12,3,10,5],"swapped_pitches":[10,5,0,8,3,5,12,8,0,10,5,0,12,3,10,5],"shift_direction":1,"question_num":71,"has_decoy":false},{"rt":850.3000000119209,"stimulus":"[A] option 1, [L] option 2, [G] neither","key_press":65,"name":"choice","trial_type":"html-keyboard-response","trial_index":98,"time_elapsed":260630,"internal_node_id":"0.0-98.0","subject":"S1C1659","sona":"41538","block":2,"time":"2021-09-22T22:17:53.330Z","response":"1st","certainty":"high","char":"A","transposition":1,"order":["shifted","swapped"],"probe_pitches":[9,7,9,7,2,0,2,12,0,2,7,0,5,7,12,5],"shifted_pitches":[9,7,9,7,2,0,2,12,1,2,7,0,5,7,12,5],"swapped_pitches":[9,7,9,7,2,0,2,0,12,2,7,0,5,7,12,5],"shift_direction":1,"question_num":81,"has_decoy":false},{"rt":938.1999999880791,"stimulus":"[A] option 1, [L] option 2, [G] neither","key_press":76,"name":"choice","trial_type":"html-keyboard-response","trial_index":109,"time_elapsed":285674,"internal_node_id":"0.0-109.0","subject":"S1C1659","sona":"41538","block":2,"time":"2021-09-22T22:17:53.330Z","response":"2nd","certainty":"high","char":"L","transposition":-1,"order":["swapped","shifted"],"probe_pitches":[3,4,5,10,15,6,4,14,11,3,10,15,9,8,15,11],"shifted_pitches":[3,4,5,10,15,6,4,14,12,3,10,15,9,8,15,11],"swapped_pitches":[3,4,5,10,15,6,4,11,14,3,10,15,9,8,15,11],"shift_direction":1,"question_num":91,"has_decoy":false},{"rt":2887.099999964237,"stimulus":"[A] option 1, [L] option 2, [G] neither","key_press":76,"name":"choice","trial_type":"html-keyboard-response","trial_index":120,"time_elapsed":312552,"internal_node_id":"0.0-120.0","subject":"S1C1659","sona":"41538","block":2,"time":"2021-09-22T22:17:53.330Z","response":"2nd","certainty":"high","char":"L","transposition":-2,"order":["shifted","swapped"],"probe_pitches":[5,3,7,10,13,6,9,3,13,8,7,15,4,3,12,15],"shifted_pitches":[5,3,7,10,13,6,9,3,14,8,7,15,4,3,12,15],"swapped_pitches":[5,3,7,10,13,6,9,13,3,8,7,15,4,3,12,15],"shift_direction":1,"question_num":101,"has_decoy":false},{"rt":1433,"stimulus":"[A] option 1, [L] option 2, [G] neither","key_press":76,"name":"choice","trial_type":"html-keyboard-response","trial_index":131,"time_elapsed":339493,"internal_node_id":"0.0-131.0","subject":"S1C1659","sona":"41538","block":2,"time":"2021-09-22T22:17:53.330Z","response":"2nd","certainty":"high","char":"L","transposition":-1,"order":["shifted","swapped"],"probe_pitches":[11,15,9,5,8,3,9,12,3,10,4,5,14,9,8,14],"shifted_pitches":[11,15,9,5,8,3,9,13,3,10,4,5,14,9,8,14],"swapped_pitches":[11,15,9,5,8,3,9,3,12,10,4,5,14,9,8,14],"shift_direction":1,"question_num":111,"has_decoy":false},{"rt":1385,"stimulus":"[A] option 1, [L] option 2, [G] neither","key_press":76,"name":"choice","trial_type":"html-keyboard-response","trial_index":142,"time_elapsed":364144,"internal_node_id":"0.0-142.0","subject":"S1C1659","sona":"41538","block":2,"time":"2021-09-22T22:17:53.330Z","response":"2nd","certainty":"high","char":"L","transposition":-2,"order":["shifted","swapped"],"probe_pitches":[0,3,5,7,10,12,7,3,0,12,0,5,12,0,12,7],"shifted_pitches":[0,3,5,7,10,12,7,3,1,12,0,5,12,0,12,7],"swapped_pitches":[0,3,5,7,10,12,7,0,3,12,0,5,12,0,12,7],"shift_direction":1,"question_num":121,"has_decoy":false},{"rt":2141.7999999523163,"stimulus":"[A] option 1, [L] option 2, [G] neither","key_press":65,"name":"choice","trial_type":"html-keyboard-response","trial_index":153,"time_elapsed":389276,"internal_node_id":"0.0-153.0","subject":"S1C1659","sona":"41538","block":2,"time":"2021-09-22T22:17:53.330Z","response":"1st","certainty":"high","char":"A","transposition":1,"order":["swapped","shifted"],"probe_pitches":[4,7,14,6,11,14,15,11,10,13,6,12,6,5,3,5],"shifted_pitches":[4,7,14,6,11,14,15,11,9,13,6,12,6,5,3,5],"swapped_pitches":[4,7,14,6,11,14,15,10,11,13,6,12,6,5,3,5],"shift_direction":-1,"question_num":131,"has_decoy":false},{"rt":766.7000000476837,"stimulus":"[A] option 1, [L] option 2, [G] neither","key_press":76,"name":"choice","trial_type":"html-keyboard-response","trial_index":164,"time_elapsed":412541,"internal_node_id":"0.0-164.0","subject":"S1C1659","sona":"41538","block":2,"time":"2021-09-22T22:17:53.330Z","response":"2nd","certainty":"high","char":"L","transposition":-3,"order":["shifted","swapped"],"probe_pitches":[15,12,9,14,13,4,11,7,8,11,3,4,5,10,4,9],"shifted_pitches":[15,12,9,14,13,4,11,6,8,11,3,4,5,10,4,9],"swapped_pitches":[15,12,9,14,13,4,11,8,7,11,3,4,5,10,4,9],"shift_direction":-1,"question_num":141,"has_decoy":false},{"rt":19675.5,"stimulus":"[A] option 1, [L] option 2, [G] neither","key_press":76,"name":"choice","trial_type":"html-keyboard-response","trial_index":175,"time_elapsed":668193,"internal_node_id":"0.0-175.0","subject":"S1C1659","sona":"41538","block":2,"time":"2021-09-22T22:17:53.330Z","response":"2nd","certainty":"high","char":"L","transposition":-2,"order":["shifted","swapped"],"probe_pitches":[12,7,2,5,12,10,5,10,12,7,12,7,12,10,12,7],"shifted_pitches":[12,7,2,5,12,10,5,9,12,7,12,7,12,10,12,7],"swapped_pitches":[12,7,2,5,12,10,5,12,10,7,12,7,12,10,12,7],"shift_direction":-1,"question_num":151,"has_decoy":false},{"rt":1835.699999988079,"stimulus":"[A] option 1, [L] option 2, [G] neither","key_press":65,"name":"choice","trial_type":"html-keyboard-response","trial_index":186,"time_elapsed":693831,"internal_node_id":"0.0-186.0","subject":"S1C1659","sona":"41538","block":2,"time":"2021-09-22T22:17:53.330Z","response":"1st","certainty":"high","char":"A","transposition":-2,"order":["swapped","shifted"],"probe_pitches":[8,13,7,8,6,5,14,12,3,14,12,14,13,5,8,7],"shifted_pitches":[8,13,7,8,6,5,14,11,3,14,12,14,13,5,8,7],"swapped_pitches":[8,13,7,8,6,5,14,3,12,14,12,14,13,5,8,7],"shift_direction":-1,"question_num":161,"has_decoy":false},{"rt":3408.899999976158,"stimulus":"[A] option 1, [L] option 2, [G] neither","key_press":65,"name":"choice","trial_type":"html-keyboard-response","trial_index":197,"time_elapsed":753208,"internal_node_id":"0.0-197.0","subject":"S1C1659","sona":"41538","block":2,"time":"2021-09-22T22:17:53.330Z","response":"1st","certainty":"high","char":"A","transposition":0,"order":["swapped","shifted"],"probe_pitches":[11,5,8,13,5,11,3,4,8,10,13,9,5,15,14,12],"shifted_pitches":[11,5,8,13,5,11,3,4,7,10,13,9,5,15,14,12],"swapped_pitches":[11,5,8,13,5,11,3,8,4,10,13,9,5,15,14,12],"shift_direction":-1,"question_num":171,"has_decoy":false},{"rt":1363.800000011921,"stimulus":"[A] option 1, [L] option 2, [G] neither","key_press":76,"name":"choice","trial_type":"html-keyboard-response","trial_index":208,"time_elapsed":780311,"internal_node_id":"0.0-208.0","subject":"S1C1659","sona":"41538","block":2,"time":"2021-09-22T22:17:53.330Z","response":"2nd","certainty":"high","char":"L","transposition":-3,"order":["shifted","swapped"],"probe_pitches":[5,7,6,4,3,13,6,4,9,3,6,14,11,7,8,11],"shifted_pitches":[5,7,6,4,3,13,6,4,10,3,6,14,11,7,8,11],"swapped_pitches":[5,7,6,4,3,13,6,9,4,3,6,14,11,7,8,11],"shift_direction":1,"question_num":181,"has_decoy":false},{"rt":967.0999999642372,"stimulus":"[A] option 1, [L] option 2, [G] neither","key_press":76,"name":"choice","trial_type":"html-keyboard-response","trial_index":219,"time_elapsed":804229,"internal_node_id":"0.0-219.0","subject":"S1C1659","sona":"41538","block":2,"time":"2021-09-22T22:17:53.330Z","response":"2nd","certainty":"high","char":"L","transposition":3,"order":["shifted","swapped"],"probe_pitches":[14,12,7,9,11,3,7,9,3,11,14,7,6,11,13,9],"shifted_pitches":[14,12,7,9,11,3,7,8,3,11,14,7,6,11,13,9],"swapped_pitches":[14,12,7,9,11,3,7,3,9,11,14,7,6,11,13,9],"shift_direction":-1,"question_num":191,"has_decoy":false}]