[{"rt":1119.300000011921,"stimulus":"[A] option 1, [L] option 2, [G] neither","key_press":76,"name":"choice","trial_type":"html-keyboard-response","trial_index":10,"time_elapsed":26601,"internal_node_id":"0.0-10.0","subject":"S1C1659","sona":"41538","block":5,"time":"2021-09-22T23:14:02.482Z","response":"2nd","certainty":"high","char":"L","transposition":-1,"order":["shifted","swapped"],"probe_pitches":[0,2,4,7,2,12,7,2,9,0,4,7,2,12,7,9],"shifted_pitches":[0,2,4,7,2,12,7,2,10,0,4,7,2,12,7,9],"swapped_pitches":[0,2,4,7,2,12,7,9,2,0,4,7,2,12,7,9],"shift_direction":1,"question_num":1,"has_decoy":false},{"rt":5712,"stimulus":"[A] option 1, [L] option 2, [G] neither","key_press":76,"name":"choice","trial_type":"html-keyboard-response","trial_index":21,"time_elapsed":58709,"internal_node_id":"0.0-21.0","subject":"S1C1659","sona":"41538","block":5,"time":"2021-09-22T23:14:02.482Z","response":"2nd","certainty":"high","char":"L","transposition":2,"order":["swapped","shifted"],"probe_pitches":[-1,5,1,-2,1,0,-1,5,10,2,-1,3,5,-2,7,-2],"shifted_pitches":[-1,5,1,-2,1,0,-1,4,10,2,-1,3,5,-2,7,-2],"swapped_pitches":[-1,5,1,-2,1,0,-1,10,5,2,-1,3,5,-2,7,-2],"shift_direction":-1,"question_num":11,"has_decoy":false},{"rt":2243.399999976158,"stimulus":"[A] option 1, [L] option 2, [G] neither","key_press":76,"name":"choice","trial_type":"html-keyboard-response","trial_index":32,"time_elapsed":133139,"internal_node_id":"0.0-32.0","subject":"S1C1659","sona":"41538","block":5,"time":"2021-09-22T23:14:02.482Z","response":"2nd","certainty":"high","char":"L","transposition":3,"order":["shifted","swapped"],"probe_pitches":[12,10,7,0,5,12,10,12,0,7,2,12,10,5,10,7],"shifted_pitches":[12,10,7,0,5,12,10,13,0,7,2,12,10,5,10,7],"swapped_pitches":[12,10,7,0,5,12,10,0,12,7,2,12,10,5,10,7],"shift_direction":1,"question_num":21,"has_decoy":false},{"rt":1799.199999988079,"stimulus":"[A] option 1, [L] option 2, [G] neither","key_press":76,"name":"choice","trial_type":"html-keyboard-response","trial_index":43,"time_elapsed":165405,"internal_node_id":"0.0-43.0","subject":"S1C1659","sona":"41538","block":5,"time":"2021-09-22T23:14:02.482Z","response":"2nd","certainty":"high","char":"L","transposition":0,"order":["shifted","swapped"],"probe_pitches":[6,7,9,10,1,7,6,10,2,-1,5,10,6,10,1,2],"shifted_pitches":[6,7,9,10,1,7,6,10,3,-1,5,10,6,10,1,2],"swapped_pitches":[6,7,9,10,1,7,6,2,10,-1,5,10,6,10,1,2],"shift_direction":1,"question_num":31,"has_decoy":false},{"rt":1723.4000000357628,"stimulus":"[A] option 1, [L] option 2, [G] neither","key_press":76,"name":"choice","trial_type":"html-keyboard-response","trial_index":54,"time_elapsed":191921,"internal_node_id":"0.0-54.0","subject":"S1C1659","sona":"41538","block":5,"time":"2021-09-22T23:14:02.482Z","response":"2nd","certainty":"high","char":"L","transposition":-2,"order":["swapped","shifted"],"probe_pitches":[-2,4,9,7,-2,-1,10,7,-2,4,7,1,-2,9,4,7],"shifted_pitches":[-2,4,9,7,-2,-1,10,8,-2,4,7,1,-2,9,4,7],"swapped_pitches":[-2,4,9,7,-2,-1,10,-2,7,4,7,1,-2,9,4,7],"shift_direction":1,"question_num":41,"has_decoy":false},{"rt":1165.5999999642372,"stimulus":"[A] option 1, [L] option 2, [G] neither","key_press":76,"name":"choice","trial_type":"html-keyboard-response","trial_index":65,"time_elapsed":215918,"internal_node_id":"0.0-65.0","subject":"S1C1659","sona":"41538","block":5,"time":"2021-09-22T23:14:02.482Z","response":"2nd","certainty":"high","char":"L","transposition":-2,"order":["swapped","shifted"],"probe_pitches":[2,5,7,2,9,0,9,2,0,9,0,7,0,2,0,7],"shifted_pitches":[2,5,7,2,9,0,9,1,0,9,0,7,0,2,0,7],"swapped_pitches":[2,5,7,2,9,0,9,0,2,9,0,7,0,2,0,7],"shift_direction":-1,"question_num":51,"has_decoy":false},{"rt":1658.800000011921,"stimulus":"[A] option 1, [L] option 2, [G] neither","key_press":76,"name":"choice","trial_type":"html-keyboard-response","trial_index":76,"time_elapsed":241084,"internal_node_id":"0.0-76.0","subject":"S1C1659","sona":"41538","block":5,"time":"2021-09-22T23:14:02.482Z","response":"2nd","certainty":"high","char":"L","transposition":3,"order":["swapped","shifted"],"probe_pitches":[2,4,-1,5,9,-1,5,0,2,-2,0,3,0,4,2,5],"shifted_pitches":[2,4,-1,5,9,-1,5,1,2,-2,0,3,0,4,2,5],"swapped_pitches":[2,4,-1,5,9,-1,5,2,0,-2,0,3,0,4,2,5],"shift_direction":1,"question_num":61,"has_decoy":false},{"rt":1050.4000000357628,"stimulus":"[A] option 1, [L] option 2, [G] neither","key_press":65,"name":"choice","trial_type":"html-keyboard-response","trial_index":87,"time_elapsed":264991,"internal_node_id":"0.0-87.0","subject":"S1C1659","sona":"41538","block":5,"time":"2021-09-22T23:14:02.482Z","response":"1st","certainty":"high","char":"A","transposition":1,"order":["shifted","swapped"],"probe_pitches":[10,5,0,3,5,12,8,3,10,8,10,12,3,12,3,10],"shifted_pitches":[10,5,0,3,5,12,8,4,10,8,10,12,3,12,3,10],"swapped_pitches":[10,5,0,3,5,12,8,10,3,8,10,12,3,12,3,10],"shift_direction":1,"question_num":71,"has_decoy":false},{"rt":1576,"stimulus":"[A] option 1, [L] option 2, [G] neither","key_press":76,"name":"choice","trial_type":"html-keyboard-response","trial_index":98,"time_elapsed":292722,"internal_node_id":"0.0-98.0","subject":"S1C1659","sona":"41538","block":5,"time":"2021-09-22T23:14:02.482Z","response":"2nd","certainty":"high","char":"L","transposition":-2,"order":["swapped","shifted"],"probe_pitches":[5,0,2,9,0,7,12,9,7,5,0,2,0,12,9,0],"shifted_pitches":[5,0,2,9,0,7,12,9,6,5,0,2,0,12,9,0],"swapped_pitches":[5,0,2,9,0,7,12,7,9,5,0,2,0,12,9,0],"shift_direction":-1,"question_num":81,"has_decoy":false},{"rt":673.4000000357628,"stimulus":"[A] option 1, [L] option 2, [G] neither","key_press":65,"name":"choice","trial_type":"html-keyboard-response","trial_index":109,"time_elapsed":315740,"internal_node_id":"0.0-109.0","subject":"S1C1659","sona":"41538","block":5,"time":"2021-09-22T23:14:02.482Z","response":"1st","certainty":"high","char":"A","transposition":2,"order":["shifted","swapped"],"probe_pitches":[3,0,5,0,3,0,3,5,7,10,12,0,12,10,7,0],"shifted_pitches":[3,0,5,0,3,0,3,5,6,10,12,0,12,10,7,0],"swapped_pitches":[3,0,5,0,3,0,3,7,5,10,12,0,12,10,7,0],"shift_direction":-1,"question_num":91,"has_decoy":false},{"rt":13174.599999964237,"stimulus":"[A] option 1, [L] option 2, [G] neither","key_press":76,"name":"choice","trial_type":"html-keyboard-response","trial_index":120,"time_elapsed":480386,"internal_node_id":"0.0-120.0","subject":"S1C1659","sona":"41538","block":5,"time":"2021-09-22T23:14:02.482Z","response":"2nd","certainty":"high","char":"L","transposition":1,"order":["swapped","shifted"],"probe_pitches":[5,-1,5,3,4,3,10,-1,4,10,-2,9,8,5,6,1],"shifted_pitches":[5,-1,5,3,4,3,10,0,4,10,-2,9,8,5,6,1],"swapped_pitches":[5,-1,5,3,4,3,10,4,-1,10,-2,9,8,5,6,1],"shift_direction":1,"question_num":101,"has_decoy":false},{"rt":986.9000000357628,"stimulus":"[A] option 1, [L] option 2, [G] neither","key_press":76,"name":"choice","trial_type":"html-keyboard-response","trial_index":131,"time_elapsed":549679,"internal_node_id":"0.0-131.0","subject":"S1C1659","sona":"41538","block":5,"time":"2021-09-22T23:14:02.482Z","response":"2nd","certainty":"high","char":"L","transposition":-1,"order":["shifted","swapped"],"probe_pitches":[-2,1,3,0,1,-1,3,-2,6,4,2,4,0,3,10,8],"shifted_pitches":[-2,1,3,0,1,-1,3,-2,7,4,2,4,0,3,10,8],"swapped_pitches":[-2,1,3,0,1,-1,3,6,-2,4,2,4,0,3,10,8],"shift_direction":1,"question_num":111,"has_decoy":false},{"rt":505.5999999642372,"stimulus":"[A] option 1, [L] option 2, [G] neither","key_press":76,"name":"choice","trial_type":"html-keyboard-response","trial_index":142,"time_elapsed":579435,"internal_node_id":"0.0-142.0","subject":"S1C1659","sona":"41538","block":5,"time":"2021-09-22T23:14:02.482Z","response":"2nd","certainty":"high","char":"L","transposition":0,"order":["swapped","shifted"],"probe_pitches":[5,10,8,0,5,10,5,3,0,10,12,8,3,10,0,3],"shifted_pitches":[5,10,8,0,5,10,5,3,-1,10,12,8,3,10,0,3],"swapped_pitches":[5,10,8,0,5,10,5,0,3,10,12,8,3,10,0,3],"shift_direction":-1,"question_num":121,"has_decoy":false},{"rt":417.10000002384186,"stimulus":"[A] option 1, [L] option 2, [G] neither","key_press":76,"name":"choice","trial_type":"html-keyboard-response","trial_index":153,"time_elapsed":603778,"internal_node_id":"0.0-153.0","subject":"S1C1659","sona":"41538","block":5,"time":"2021-09-22T23:14:02.482Z","response":"2nd","certainty":"high","char":"L","transposition":-3,"order":["swapped","shifted"],"probe_pitches":[5,3,10,3,0,5,7,3,5,10,7,0,12,10,7,10],"shifted_pitches":[5,3,10,3,0,5,7,4,5,10,7,0,12,10,7,10],"swapped_pitches":[5,3,10,3,0,5,7,5,3,10,7,0,12,10,7,10],"shift_direction":1,"question_num":131,"has_decoy":false},{"rt":1038,"stimulus":"[A] option 1, [L] option 2, [G] neither","key_press":76,"name":"choice","trial_type":"html-keyboard-response","trial_index":164,"time_elapsed":627361,"internal_node_id":"0.0-164.0","subject":"S1C1659","sona":"41538","block":5,"time":"2021-09-22T23:14:02.482Z","response":"2nd","certainty":"high","char":"L","transposition":-1,"order":["shifted","swapped"],"probe_pitches":[3,-2,2,6,3,1,8,-1,6,9,8,6,-2,6,-1,7],"shifted_pitches":[3,-2,2,6,3,1,8,-1,5,9,8,6,-2,6,-1,7],"swapped_pitches":[3,-2,2,6,3,1,8,6,-1,9,8,6,-2,6,-1,7],"shift_direction":-1,"question_num":141,"has_decoy":false},{"rt":2400.900000035763,"stimulus":"[A] option 1, [L] option 2, [G] neither","key_press":76,"name":"choice","trial_type":"html-keyboard-response","trial_index":175,"time_elapsed":655285,"internal_node_id":"0.0-175.0","subject":"S1C1659","sona":"41538","block":5,"time":"2021-09-22T23:14:02.482Z","response":"2nd","certainty":"high","char":"L","transposition":-1,"order":["swapped","shifted"],"probe_pitches":[12,7,10,2,10,7,10,12,2,5,12,7,0,12,5,0],"shifted_pitches":[12,7,10,2,10,7,10,11,2,5,12,7,0,12,5,0],"swapped_pitches":[12,7,10,2,10,7,10,2,12,5,12,7,0,12,5,0],"shift_direction":-1,"question_num":151,"has_decoy":false},{"rt":1562.8999999761581,"stimulus":"[A] option 1, [L] option 2, [G] neither","key_press":76,"name":"choice","trial_type":"html-keyboard-response","trial_index":186,"time_elapsed":728321,"internal_node_id":"0.0-186.0","subject":"S1C1659","sona":"41538","block":5,"time":"2021-09-22T23:14:02.482Z","response":"2nd","certainty":"high","char":"L","transposition":-3,"order":["shifted","swapped"],"probe_pitches":[5,1,4,5,2,-2,3,7,4,10,2,5,8,-1,-2,3],"shifted_pitches":[5,1,4,5,2,-2,3,6,4,10,2,5,8,-1,-2,3],"swapped_pitches":[5,1,4,5,2,-2,3,4,7,10,2,5,8,-1,-2,3],"shift_direction":-1,"question_num":161,"has_decoy":false},{"rt":1328.1000000238419,"stimulus":"[A] option 1, [L] option 2, [G] neither","key_press":65,"name":"choice","trial_type":"html-keyboard-response","trial_index":197,"time_elapsed":754286,"internal_node_id":"0.0-197.0","subject":"S1C1659","sona":"41538","block":5,"time":"2021-09-22T23:14:02.482Z","response":"1st","certainty":"high","char":"A","transposition":-3,"order":["shifted","swapped"],"probe_pitches":[2,0,4,0,7,12,7,2,0,4,9,4,12,4,0,12],"shifted_pitches":[2,0,4,0,7,12,7,2,1,4,9,4,12,4,0,12],"swapped_pitches":[2,0,4,0,7,12,7,0,2,4,9,4,12,4,0,12],"shift_direction":1,"question_num":171,"has_decoy":false},{"rt":3614.600000023842,"stimulus":"[A] option 1, [L] option 2, [G] neither","key_press":65,"name":"choice","trial_type":"html-keyboard-response","trial_index":208,"time_elapsed":795102,"internal_node_id":"0.0-208.0","subject":"S1C1659","sona":"41538","block":5,"time":"2021-09-22T23:14:02.482Z","response":"1st","certainty":"high","char":"A","transposition":-2,"order":["shifted","swapped"],"probe_pitches":[-1,1,8,2,1,-1,4,10,-2,8,-2,2,0,1,3,1],"shifted_pitches":[-1,1,8,2,1,-1,4,10,-3,8,-2,2,0,1,3,1],"swapped_pitches":[-1,1,8,2,1,-1,4,-2,10,8,-2,2,0,1,3,1],"shift_direction":-1,"question_num":181,"has_decoy":false},{"rt":368.19999998807907,"stimulus":"[A] option 1, [L] option 2, [G] neither","key_press":76,"name":"choice","trial_type":"html-keyboard-response","trial_index":219,"time_elapsed":819414,"internal_node_id":"0.0-219.0","subject":"S1C1659","sona":"41538","block":5,"time":"2021-09-22T23:14:02.482Z","response":"2nd","certainty":"high","char":"L","transposition":-3,"order":["swapped","shifted"],"probe_pitches":[10,5,7,-1,-2,3,5,10,3,9,-2,3,5,10,1,10],"shifted_pitches":[10,5,7,-1,-2,3,5,10,2,9,-2,3,5,10,1,10],"swapped_pitches":[10,5,7,-1,-2,3,5,3,10,9,-2,3,5,10,1,10],"shift_direction":-1,"question_num":191,"has_decoy":false}]