[{"rt":1291.800000011921,"stimulus":"[A] option 1, [L] option 2, [G] neither","key_press":65,"name":"choice","trial_type":"html-keyboard-response","trial_index":10,"time_elapsed":25292,"internal_node_id":"0.0-10.0","subject":"S1C1659","sona":"41538","block":3,"time":"2021-09-22T22:41:32.116Z","response":"1st","certainty":"high","char":"A","transposition":2,"order":["shifted","swapped"],"probe_pitches":[7,9,7,2,7,4,-3,2,9,0,-3,9,2,-3,0,9],"shifted_pitches":[7,9,7,2,7,4,-3,2,10,0,-3,9,2,-3,0,9],"swapped_pitches":[7,9,7,2,7,4,-3,9,2,0,-3,9,2,-3,0,9],"shift_direction":1,"question_num":1,"has_decoy":false},{"rt":6277.100000023842,"stimulus":"[A] option 1, [L] option 2, [G] neither","key_press":76,"name":"choice","trial_type":"html-keyboard-response","trial_index":21,"time_elapsed":56128,"internal_node_id":"0.0-21.0","subject":"S1C1659","sona":"41538","block":3,"time":"2021-09-22T22:41:32.116Z","response":"2nd","certainty":"high","char":"L","transposition":3,"order":["shifted","swapped"],"probe_pitches":[2,-3,2,9,5,0,-3,0,5,-3,0,2,0,7,2,0],"shifted_pitches":[2,-3,2,9,5,0,-3,1,5,-3,0,2,0,7,2,0],"swapped_pitches":[2,-3,2,9,5,0,-3,5,0,-3,0,2,0,7,2,0],"shift_direction":1,"question_num":11,"has_decoy":false},{"rt":544.0999999642372,"stimulus":"[A] option 1, [L] option 2, [G] neither","key_press":76,"name":"choice","trial_type":"html-keyboard-response","trial_index":32,"time_elapsed":81127,"internal_node_id":"0.0-32.0","subject":"S1C1659","sona":"41538","block":3,"time":"2021-09-22T22:41:32.116Z","response":"2nd","certainty":"high","char":"L","transposition":1,"order":["swapped","shifted"],"probe_pitches":[7,4,-3,2,7,9,2,4,7,-3,7,-1,7,2,-1,4],"shifted_pitches":[7,4,-3,2,7,9,2,3,7,-3,7,-1,7,2,-1,4],"swapped_pitches":[7,4,-3,2,7,9,2,7,4,-3,7,-1,7,2,-1,4],"shift_direction":-1,"question_num":21,"has_decoy":false},{"rt":1412,"stimulus":"[A] option 1, [L] option 2, [G] neither","key_press":76,"name":"choice","trial_type":"html-keyboard-response","trial_index":43,"time_elapsed":132258,"internal_node_id":"0.0-43.0","subject":"S1C1659","sona":"41538","block":3,"time":"2021-09-22T22:41:32.116Z","response":"2nd","certainty":"high","char":"L","transposition":-1,"order":["swapped","shifted"],"probe_pitches":[2,3,5,13,12,8,9,10,8,6,7,4,6,1,10,3],"shifted_pitches":[2,3,5,13,12,8,9,11,8,6,7,4,6,1,10,3],"swapped_pitches":[2,3,5,13,12,8,9,8,10,6,7,4,6,1,10,3],"shift_direction":1,"question_num":31,"has_decoy":false},{"rt":1725.300000011921,"stimulus":"[A] option 1, [L] option 2, [G] neither","key_press":76,"name":"choice","trial_type":"html-keyboard-response","trial_index":54,"time_elapsed":163713,"internal_node_id":"0.0-54.0","subject":"S1C1659","sona":"41538","block":3,"time":"2021-09-22T22:41:32.116Z","response":"2nd","certainty":"high","char":"L","transposition":-2,"order":["shifted","swapped"],"probe_pitches":[5,7,6,10,1,7,10,5,4,12,13,11,6,13,1,5],"shifted_pitches":[5,7,6,10,1,7,10,5,3,12,13,11,6,13,1,5],"swapped_pitches":[5,7,6,10,1,7,10,4,5,12,13,11,6,13,1,5],"shift_direction":-1,"question_num":41,"has_decoy":false},{"rt":1670.7999999523163,"stimulus":"[A] option 1, [L] option 2, [G] neither","key_press":76,"name":"choice","trial_type":"html-keyboard-response","trial_index":65,"time_elapsed":188780,"internal_node_id":"0.0-65.0","subject":"S1C1659","sona":"41538","block":3,"time":"2021-09-22T22:41:32.116Z","response":"2nd","certainty":"high","char":"L","transposition":-2,"order":["shifted","swapped"],"probe_pitches":[1,7,10,7,4,1,8,9,7,12,9,2,8,1,12,11],"shifted_pitches":[1,7,10,7,4,1,8,9,6,12,9,2,8,1,12,11],"swapped_pitches":[1,7,10,7,4,1,8,7,9,12,9,2,8,1,12,11],"shift_direction":-1,"question_num":51,"has_decoy":false},{"rt":1093.3999999761581,"stimulus":"[A] option 1, [L] option 2, [G] neither","key_press":76,"name":"choice","trial_type":"html-keyboard-response","trial_index":76,"time_elapsed":212933,"internal_node_id":"0.0-76.0","subject":"S1C1659","sona":"41538","block":3,"time":"2021-09-22T22:41:32.116Z","response":"2nd","certainty":"high","char":"L","transposition":0,"order":["swapped","shifted"],"probe_pitches":[-1,-3,-1,-3,2,-3,4,-3,9,-1,9,4,6,-3,6,4],"shifted_pitches":[-1,-3,-1,-3,2,-3,4,-3,8,-1,9,4,6,-3,6,4],"swapped_pitches":[-1,-3,-1,-3,2,-3,4,9,-3,-1,9,4,6,-3,6,4],"shift_direction":-1,"question_num":61,"has_decoy":false},{"rt":1308.1000000238419,"stimulus":"[A] option 1, [L] option 2, [G] neither","key_press":76,"name":"choice","trial_type":"html-keyboard-response","trial_index":87,"time_elapsed":237448,"internal_node_id":"0.0-87.0","subject":"S1C1659","sona":"41538","block":3,"time":"2021-09-22T22:41:32.116Z","response":"2nd","certainty":"high","char":"L","transposition":0,"order":["swapped","shifted"],"probe_pitches":[13,7,6,2,1,3,13,6,4,9,13,1,6,8,4,10],"shifted_pitches":[13,7,6,2,1,3,13,5,4,9,13,1,6,8,4,10],"swapped_pitches":[13,7,6,2,1,3,13,4,6,9,13,1,6,8,4,10],"shift_direction":-1,"question_num":71,"has_decoy":false},{"rt":3549.099999964237,"stimulus":"[A] option 1, [L] option 2, [G] neither","key_press":76,"name":"choice","trial_type":"html-keyboard-response","trial_index":98,"time_elapsed":354697,"internal_node_id":"0.0-98.0","subject":"S1C1659","sona":"41538","block":3,"time":"2021-09-22T22:41:32.116Z","response":"2nd","certainty":"high","char":"L","transposition":1,"order":["swapped","shifted"],"probe_pitches":[6,5,8,9,5,4,13,11,6,10,7,3,8,1,11,13],"shifted_pitches":[6,5,8,9,5,4,13,12,6,10,7,3,8,1,11,13],"swapped_pitches":[6,5,8,9,5,4,13,6,11,10,7,3,8,1,11,13],"shift_direction":1,"question_num":81,"has_decoy":false},{"rt":481,"stimulus":"[A] option 1, [L] option 2, [G] neither","key_press":65,"name":"choice","trial_type":"html-keyboard-response","trial_index":109,"time_elapsed":431424,"internal_node_id":"0.0-109.0","subject":"S1C1659","sona":"41538","block":3,"time":"2021-09-22T22:41:32.116Z","response":"1st","certainty":"high","char":"A","transposition":-2,"order":["shifted","swapped"],"probe_pitches":[4,9,2,4,-1,4,2,-3,9,4,2,7,4,7,4,9],"shifted_pitches":[4,9,2,4,-1,4,2,-4,9,4,2,7,4,7,4,9],"swapped_pitches":[4,9,2,4,-1,4,2,9,-3,4,2,7,4,7,4,9],"shift_direction":-1,"question_num":91,"has_decoy":false},{"rt":1426.4000000357628,"stimulus":"[A] option 1, [L] option 2, [G] neither","key_press":76,"name":"choice","trial_type":"html-keyboard-response","trial_index":120,"time_elapsed":532529,"internal_node_id":"0.0-120.0","subject":"S1C1659","sona":"41538","block":3,"time":"2021-09-22T22:41:32.116Z","response":"2nd","certainty":"high","char":"L","transposition":-2,"order":["swapped","shifted"],"probe_pitches":[9,4,9,2,9,6,9,-1,2,-3,6,4,9,-3,9,4],"shifted_pitches":[9,4,9,2,9,6,9,-1,3,-3,6,4,9,-3,9,4],"swapped_pitches":[9,4,9,2,9,6,9,2,-1,-3,6,4,9,-3,9,4],"shift_direction":1,"question_num":101,"has_decoy":false},{"rt":1112.0999999642372,"stimulus":"[A] option 1, [L] option 2, [G] neither","key_press":76,"name":"choice","trial_type":"html-keyboard-response","trial_index":131,"time_elapsed":680446,"internal_node_id":"0.0-131.0","subject":"S1C1659","sona":"41538","block":3,"time":"2021-09-22T22:41:32.116Z","response":"2nd","certainty":"high","char":"L","transposition":-3,"order":["shifted","swapped"],"probe_pitches":[11,12,5,10,2,11,3,11,9,2,5,10,6,1,12,6],"shifted_pitches":[11,12,5,10,2,11,3,11,8,2,5,10,6,1,12,6],"swapped_pitches":[11,12,5,10,2,11,3,9,11,2,5,10,6,1,12,6],"shift_direction":-1,"question_num":111,"has_decoy":false},{"rt":485.5999999642372,"stimulus":"[A] option 1, [L] option 2, [G] neither","key_press":76,"name":"choice","trial_type":"html-keyboard-response","trial_index":142,"time_elapsed":753179,"internal_node_id":"0.0-142.0","subject":"S1C1659","sona":"41538","block":3,"time":"2021-09-22T22:41:32.116Z","response":"2nd","certainty":"high","char":"L","transposition":2,"order":["shifted","swapped"],"probe_pitches":[13,7,2,5,7,2,5,2,8,11,6,5,7,8,13,6],"shifted_pitches":[13,7,2,5,7,2,5,2,9,11,6,5,7,8,13,6],"swapped_pitches":[13,7,2,5,7,2,5,8,2,11,6,5,7,8,13,6],"shift_direction":1,"question_num":121,"has_decoy":false},{"rt":2462.900000035763,"stimulus":"[A] option 1, [L] option 2, [G] neither","key_press":76,"name":"choice","trial_type":"html-keyboard-response","trial_index":153,"time_elapsed":897372,"internal_node_id":"0.0-153.0","subject":"S1C1659","sona":"41538","block":3,"time":"2021-09-22T22:41:32.116Z","response":"2nd","certainty":"high","char":"L","transposition":-1,"order":["swapped","shifted"],"probe_pitches":[0,4,-3,2,4,2,9,0,2,7,2,7,0,-3,2,4],"shifted_pitches":[0,4,-3,2,4,2,9,1,2,7,2,7,0,-3,2,4],"swapped_pitches":[0,4,-3,2,4,2,9,2,0,7,2,7,0,-3,2,4],"shift_direction":1,"question_num":131,"has_decoy":false},{"rt":1185.5999999642372,"stimulus":"[A] option 1, [L] option 2, [G] neither","key_press":65,"name":"choice","trial_type":"html-keyboard-response","trial_index":164,"time_elapsed":1070157,"internal_node_id":"0.0-164.0","subject":"S1C1659","sona":"41538","block":3,"time":"2021-09-22T22:41:32.116Z","response":"1st","certainty":"high","char":"A","transposition":-3,"order":["shifted","swapped"],"probe_pitches":[-1,-3,-1,6,4,6,9,4,6,-3,-1,6,4,1,6,-1],"shifted_pitches":[-1,-3,-1,6,4,6,9,3,6,-3,-1,6,4,1,6,-1],"swapped_pitches":[-1,-3,-1,6,4,6,9,6,4,-3,-1,6,4,1,6,-1],"shift_direction":-1,"question_num":141,"has_decoy":false},{"rt":3255.399999976158,"stimulus":"[A] option 1, [L] option 2, [G] neither","key_press":76,"name":"choice","trial_type":"html-keyboard-response","trial_index":175,"time_elapsed":1163746,"internal_node_id":"0.0-175.0","subject":"S1C1659","sona":"41538","block":3,"time":"2021-09-22T22:41:32.116Z","response":"2nd","certainty":"high","char":"L","transposition":-3,"order":["swapped","shifted"],"probe_pitches":[13,11,12,5,10,9,11,5,3,10,7,12,9,12,13,8],"shifted_pitches":[13,11,12,5,10,9,11,5,4,10,7,12,9,12,13,8],"swapped_pitches":[13,11,12,5,10,9,11,3,5,10,7,12,9,12,13,8],"shift_direction":1,"question_num":151,"has_decoy":false},{"rt":3236.199999988079,"stimulus":"[A] option 1, [L] option 2, [G] neither","key_press":76,"name":"choice","trial_type":"html-keyboard-response","trial_index":186,"time_elapsed":1277868,"internal_node_id":"0.0-186.0","subject":"S1C1659","sona":"41538","block":3,"time":"2021-09-22T22:41:32.116Z","response":"2nd","certainty":"high","char":"L","transposition":3,"order":["swapped","shifted"],"probe_pitches":[13,9,3,11,9,12,5,9,8,12,5,1,6,1,11,2],"shifted_pitches":[13,9,3,11,9,12,5,10,8,12,5,1,6,1,11,2],"swapped_pitches":[13,9,3,11,9,12,5,8,9,12,5,1,6,1,11,2],"shift_direction":1,"question_num":161,"has_decoy":false},{"rt":3952,"stimulus":"[A] option 1, [L] option 2, [G] neither","key_press":76,"name":"choice","trial_type":"html-keyboard-response","trial_index":197,"time_elapsed":1304531,"internal_node_id":"0.0-197.0","subject":"S1C1659","sona":"41538","block":3,"time":"2021-09-22T22:41:32.116Z","response":"2nd","certainty":"high","char":"L","transposition":-1,"order":["shifted","swapped"],"probe_pitches":[2,5,3,9,3,8,4,8,12,10,8,5,4,1,4,3],"shifted_pitches":[2,5,3,9,3,8,4,7,12,10,8,5,4,1,4,3],"swapped_pitches":[2,5,3,9,3,8,4,12,8,10,8,5,4,1,4,3],"shift_direction":-1,"question_num":171,"has_decoy":false},{"rt":1202.5,"stimulus":"[A] option 1, [L] option 2, [G] neither","key_press":65,"name":"choice","trial_type":"html-keyboard-response","trial_index":208,"time_elapsed":1328550,"internal_node_id":"0.0-208.0","subject":"S1C1659","sona":"41538","block":3,"time":"2021-09-22T22:41:32.116Z","response":"1st","certainty":"high","char":"A","transposition":-1,"order":["shifted","swapped"],"probe_pitches":[-3,1,-3,1,-1,4,-1,9,1,-1,4,-3,6,-3,4,6],"shifted_pitches":[-3,1,-3,1,-1,4,-1,9,0,-1,4,-3,6,-3,4,6],"swapped_pitches":[-3,1,-3,1,-1,4,-1,1,9,-1,4,-3,6,-3,4,6],"shift_direction":-1,"question_num":181,"has_decoy":false},{"rt":605.6999999880791,"stimulus":"[A] option 1, [L] option 2, [G] neither","key_press":76,"name":"choice","trial_type":"html-keyboard-response","trial_index":219,"time_elapsed":1392360,"internal_node_id":"0.0-219.0","subject":"S1C1659","sona":"41538","block":3,"time":"2021-09-22T22:41:32.116Z","response":"2nd","certainty":"high","char":"L","transposition":-3,"order":["swapped","shifted"],"probe_pitches":[-3,0,5,2,7,-3,2,9,0,2,-3,5,2,-3,7,5],"shifted_pitches":[-3,0,5,2,7,-3,2,9,1,2,-3,5,2,-3,7,5],"swapped_pitches":[-3,0,5,2,7,-3,2,0,9,2,-3,5,2,-3,7,5],"shift_direction":1,"question_num":191,"has_decoy":false}]