[{"rt":3320.699999988079,"stimulus":"[A] option 1, [L] option 2, [G] neither","key_press":76,"name":"choice","trial_type":"html-keyboard-response","trial_index":10,"time_elapsed":26517,"internal_node_id":"0.0-10.0","subject":"S1C1659","sona":"41538","block":6,"time":"2021-09-22T23:29:29.556Z","response":"2nd","certainty":"high","char":"L","transposition":-3,"order":["swapped","shifted"],"probe_pitches":[6,7,0,-1,0,10,8,3,1,-1,3,5,4,9,6,-1],"shifted_pitches":[6,7,0,-1,0,10,8,3,2,-1,3,5,4,9,6,-1],"swapped_pitches":[6,7,0,-1,0,10,8,1,3,-1,3,5,4,9,6,-1],"shift_direction":1,"question_num":1,"has_decoy":false},{"rt":766.5,"stimulus":"[A] option 1, [L] option 2, [G] neither","key_press":65,"name":"choice","trial_type":"html-keyboard-response","trial_index":21,"time_elapsed":51628,"internal_node_id":"0.0-21.0","subject":"S1C1659","sona":"41538","block":6,"time":"2021-09-22T23:29:29.556Z","response":"1st","certainty":"high","char":"A","transposition":-1,"order":["shifted","swapped"],"probe_pitches":[5,1,5,13,5,10,13,10,3,8,10,13,10,13,10,3],"shifted_pitches":[5,1,5,13,5,10,13,11,3,8,10,13,10,13,10,3],"swapped_pitches":[5,1,5,13,5,10,13,3,10,8,10,13,10,13,10,3],"shift_direction":1,"question_num":11,"has_decoy":false},{"rt":2622,"stimulus":"[A] option 1, [L] option 2, [G] neither","key_press":65,"name":"choice","trial_type":"html-keyboard-response","trial_index":32,"time_elapsed":77412,"internal_node_id":"0.0-32.0","subject":"S1C1659","sona":"41538","block":6,"time":"2021-09-22T23:29:29.556Z","response":"1st","certainty":"high","char":"A","transposition":-2,"order":["swapped","shifted"],"probe_pitches":[-1,2,0,5,9,1,7,5,4,0,9,0,4,10,11,1],"shifted_pitches":[-1,2,0,5,9,1,7,6,4,0,9,0,4,10,11,1],"swapped_pitches":[-1,2,0,5,9,1,7,4,5,0,9,0,4,10,11,1],"shift_direction":1,"question_num":21,"has_decoy":false},{"rt":2222,"stimulus":"[A] option 1, [L] option 2, [G] neither","key_press":65,"name":"choice","trial_type":"html-keyboard-response","trial_index":43,"time_elapsed":102805,"internal_node_id":"0.0-43.0","subject":"S1C1659","sona":"41538","block":6,"time":"2021-09-22T23:29:29.556Z","response":"1st","certainty":"high","char":"A","transposition":-1,"order":["shifted","swapped"],"probe_pitches":[4,8,6,4,13,11,6,4,1,6,11,13,1,11,8,4],"shifted_pitches":[4,8,6,4,13,11,6,5,1,6,11,13,1,11,8,4],"swapped_pitches":[4,8,6,4,13,11,6,1,4,6,11,13,1,11,8,4],"shift_direction":1,"question_num":31,"has_decoy":false},{"rt":1574,"stimulus":"[A] option 1, [L] option 2, [G] neither","key_press":76,"name":"choice","trial_type":"html-keyboard-response","trial_index":54,"time_elapsed":234657,"internal_node_id":"0.0-54.0","subject":"S1C1659","sona":"41538","block":6,"time":"2021-09-22T23:29:29.556Z","response":"2nd","certainty":"high","char":"L","transposition":1,"order":["shifted","swapped"],"probe_pitches":[8,10,3,1,6,1,8,1,6,8,6,10,1,3,6,1],"shifted_pitches":[8,10,3,1,6,1,8,1,5,8,6,10,1,3,6,1],"swapped_pitches":[8,10,3,1,6,1,8,6,1,8,6,10,1,3,6,1],"shift_direction":-1,"question_num":41,"has_decoy":false},{"rt":17479.5,"stimulus":"[A] option 1, [L] option 2, [G] neither","key_press":76,"name":"choice","trial_type":"html-keyboard-response","trial_index":65,"time_elapsed":343492,"internal_node_id":"0.0-65.0","subject":"S1C1659","sona":"41538","block":6,"time":"2021-09-22T23:29:29.556Z","response":"2nd","certainty":"high","char":"L","transposition":-3,"order":["swapped","shifted"],"probe_pitches":[1,5,10,5,1,5,13,5,1,3,1,10,8,5,10,13],"shifted_pitches":[1,5,10,5,1,5,13,6,1,3,1,10,8,5,10,13],"swapped_pitches":[1,5,10,5,1,5,13,1,5,3,1,10,8,5,10,13],"shift_direction":1,"question_num":51,"has_decoy":false},{"rt":732.4000000357628,"stimulus":"[A] option 1, [L] option 2, [G] neither","key_press":65,"name":"choice","trial_type":"html-keyboard-response","trial_index":76,"time_elapsed":367557,"internal_node_id":"0.0-76.0","subject":"S1C1659","sona":"41538","block":6,"time":"2021-09-22T23:29:29.556Z","response":"1st","certainty":"high","char":"A","transposition":-3,"order":["shifted","swapped"],"probe_pitches":[9,13,11,4,1,9,4,6,11,13,4,1,4,13,1,6],"shifted_pitches":[9,13,11,4,1,9,4,6,10,13,4,1,4,13,1,6],"swapped_pitches":[9,13,11,4,1,9,4,11,6,13,4,1,4,13,1,6],"shift_direction":-1,"question_num":61,"has_decoy":false},{"rt":1457.699999988079,"stimulus":"[A] option 1, [L] option 2, [G] neither","key_press":65,"name":"choice","trial_type":"html-keyboard-response","trial_index":87,"time_elapsed":406132,"internal_node_id":"0.0-87.0","subject":"S1C1659","sona":"41538","block":6,"time":"2021-09-22T23:29:29.556Z","response":"1st","certainty":"high","char":"A","transposition":-2,"order":["shifted","swapped"],"probe_pitches":[7,4,5,2,-1,8,7,2,5,3,4,0,9,3,11,-1],"shifted_pitches":[7,4,5,2,-1,8,7,1,5,3,4,0,9,3,11,-1],"swapped_pitches":[7,4,5,2,-1,8,7,5,2,3,4,0,9,3,11,-1],"shift_direction":-1,"question_num":71,"has_decoy":false},{"rt":597.1999999880791,"stimulus":"[A] option 1, [L] option 2, [G] neither","key_press":76,"name":"choice","trial_type":"html-keyboard-response","trial_index":98,"time_elapsed":431862,"internal_node_id":"0.0-98.0","subject":"S1C1659","sona":"41538","block":6,"time":"2021-09-22T23:29:29.556Z","response":"2nd","certainty":"high","char":"L","transposition":3,"order":["swapped","shifted"],"probe_pitches":[7,8,3,2,8,2,6,8,1,3,11,4,5,10,11,10],"shifted_pitches":[7,8,3,2,8,2,6,9,1,3,11,4,5,10,11,10],"swapped_pitches":[7,8,3,2,8,2,6,1,8,3,11,4,5,10,11,10],"shift_direction":1,"question_num":81,"has_decoy":false},{"rt":6542.699999988079,"stimulus":"[A] option 1, [L] option 2, [G] neither","key_press":65,"name":"choice","trial_type":"html-keyboard-response","trial_index":109,"time_elapsed":487471,"internal_node_id":"0.0-109.0","subject":"S1C1659","sona":"41538","block":6,"time":"2021-09-22T23:29:29.556Z","response":"1st","certainty":"high","char":"A","transposition":-3,"order":["shifted","swapped"],"probe_pitches":[5,3,-1,1,8,10,4,-1,6,2,10,-1,1,9,11,-1],"shifted_pitches":[5,3,-1,1,8,10,4,-1,7,2,10,-1,1,9,11,-1],"swapped_pitches":[5,3,-1,1,8,10,4,6,-1,2,10,-1,1,9,11,-1],"shift_direction":1,"question_num":91,"has_decoy":false},{"rt":258.0999999642372,"stimulus":"[A] option 1, [L] option 2, [G] neither","key_press":76,"name":"choice","trial_type":"html-keyboard-response","trial_index":120,"time_elapsed":510468,"internal_node_id":"0.0-120.0","subject":"S1C1659","sona":"41538","block":6,"time":"2021-09-22T23:29:29.556Z","response":"2nd","certainty":"high","char":"L","transposition":-2,"order":["swapped","shifted"],"probe_pitches":[6,1,3,11,8,13,6,8,13,11,1,11,13,11,1,11],"shifted_pitches":[6,1,3,11,8,13,6,8,12,11,1,11,13,11,1,11],"swapped_pitches":[6,1,3,11,8,13,6,13,8,11,1,11,13,11,1,11],"shift_direction":-1,"question_num":101,"has_decoy":false},{"rt":782.1999999880791,"stimulus":"[A] option 1, [L] option 2, [G] neither","key_press":65,"name":"choice","trial_type":"html-keyboard-response","trial_index":131,"time_elapsed":533733,"internal_node_id":"0.0-131.0","subject":"S1C1659","sona":"41538","block":6,"time":"2021-09-22T23:29:29.556Z","response":"1st","certainty":"high","char":"A","transposition":0,"order":["shifted","swapped"],"probe_pitches":[5,1,2,8,5,9,7,4,9,0,8,11,2,11,6,11],"shifted_pitches":[5,1,2,8,5,9,7,3,9,0,8,11,2,11,6,11],"swapped_pitches":[5,1,2,8,5,9,7,9,4,0,8,11,2,11,6,11],"shift_direction":-1,"question_num":111,"has_decoy":false},{"rt":3053.399999976158,"stimulus":"[A] option 1, [L] option 2, [G] neither","key_press":76,"name":"choice","trial_type":"html-keyboard-response","trial_index":142,"time_elapsed":561814,"internal_node_id":"0.0-142.0","subject":"S1C1659","sona":"41538","block":6,"time":"2021-09-22T23:29:29.556Z","response":"2nd","certainty":"high","char":"L","transposition":1,"order":["swapped","shifted"],"probe_pitches":[-1,1,3,11,8,1,9,7,6,0,3,-1,1,8,9,0],"shifted_pitches":[-1,1,3,11,8,1,9,7,5,0,3,-1,1,8,9,0],"swapped_pitches":[-1,1,3,11,8,1,9,6,7,0,3,-1,1,8,9,0],"shift_direction":-1,"question_num":121,"has_decoy":false},{"rt":1739.1000000238419,"stimulus":"[A] option 1, [L] option 2, [G] neither","key_press":76,"name":"choice","trial_type":"html-keyboard-response","trial_index":153,"time_elapsed":645943,"internal_node_id":"0.0-153.0","subject":"S1C1659","sona":"41538","block":6,"time":"2021-09-22T23:29:29.556Z","response":"2nd","certainty":"high","char":"L","transposition":3,"order":["shifted","swapped"],"probe_pitches":[6,11,13,8,13,6,13,1,6,13,4,11,4,8,4,1],"shifted_pitches":[6,11,13,8,13,6,13,2,6,13,4,11,4,8,4,1],"swapped_pitches":[6,11,13,8,13,6,13,6,1,13,4,11,4,8,4,1],"shift_direction":1,"question_num":131,"has_decoy":false},{"rt":6479.899999976158,"stimulus":"[A] option 1, [L] option 2, [G] neither","key_press":76,"name":"choice","trial_type":"html-keyboard-response","trial_index":164,"time_elapsed":703589,"internal_node_id":"0.0-164.0","subject":"S1C1659","sona":"41538","block":6,"time":"2021-09-22T23:29:29.556Z","response":"2nd","certainty":"high","char":"L","transposition":0,"order":["swapped","shifted"],"probe_pitches":[13,11,13,6,13,3,1,8,11,6,11,13,11,1,8,1],"shifted_pitches":[13,11,13,6,13,3,1,8,10,6,11,13,11,1,8,1],"swapped_pitches":[13,11,13,6,13,3,1,11,8,6,11,13,11,1,8,1],"shift_direction":-1,"question_num":141,"has_decoy":false},{"rt":3344,"stimulus":"[A] option 1, [L] option 2, [G] neither","key_press":76,"name":"choice","trial_type":"html-keyboard-response","trial_index":175,"time_elapsed":729621,"internal_node_id":"0.0-175.0","subject":"S1C1659","sona":"41538","block":6,"time":"2021-09-22T23:29:29.556Z","response":"2nd","certainty":"high","char":"L","transposition":2,"order":["swapped","shifted"],"probe_pitches":[13,8,10,8,1,3,13,3,6,10,6,1,6,3,10,6],"shifted_pitches":[13,8,10,8,1,3,13,4,6,10,6,1,6,3,10,6],"swapped_pitches":[13,8,10,8,1,3,13,6,3,10,6,1,6,3,10,6],"shift_direction":1,"question_num":151,"has_decoy":false},{"rt":652.0999999642372,"stimulus":"[A] option 1, [L] option 2, [G] neither","key_press":76,"name":"choice","trial_type":"html-keyboard-response","trial_index":186,"time_elapsed":765498,"internal_node_id":"0.0-186.0","subject":"S1C1659","sona":"41538","block":6,"time":"2021-09-22T23:29:29.556Z","response":"2nd","certainty":"high","char":"L","transposition":2,"order":["swapped","shifted"],"probe_pitches":[7,6,1,0,2,10,1,11,7,6,1,0,10,7,11,9],"shifted_pitches":[7,6,1,0,2,10,1,11,8,6,1,0,10,7,11,9],"swapped_pitches":[7,6,1,0,2,10,1,7,11,6,1,0,10,7,11,9],"shift_direction":1,"question_num":161,"has_decoy":false},{"rt":8872.899999976158,"stimulus":"[A] option 1, [L] option 2, [G] neither","key_press":76,"name":"choice","trial_type":"html-keyboard-response","trial_index":197,"time_elapsed":798045,"internal_node_id":"0.0-197.0","subject":"S1C1659","sona":"41538","block":6,"time":"2021-09-22T23:29:29.556Z","response":"2nd","certainty":"high","char":"L","transposition":-1,"order":["shifted","swapped"],"probe_pitches":[1,0,5,1,3,0,3,5,8,6,-1,6,-1,10,0,10],"shifted_pitches":[1,0,5,1,3,0,3,4,8,6,-1,6,-1,10,0,10],"swapped_pitches":[1,0,5,1,3,0,3,8,5,6,-1,6,-1,10,0,10],"shift_direction":-1,"question_num":171,"has_decoy":false},{"rt":6226.899999976158,"stimulus":"[A] option 1, [L] option 2, [G] neither","key_press":76,"name":"choice","trial_type":"html-keyboard-response","trial_index":208,"time_elapsed":833934,"internal_node_id":"0.0-208.0","subject":"S1C1659","sona":"41538","block":6,"time":"2021-09-22T23:29:29.556Z","response":"2nd","certainty":"high","char":"L","transposition":-2,"order":["swapped","shifted"],"probe_pitches":[1,4,11,4,1,11,6,11,1,6,13,11,4,11,9,13],"shifted_pitches":[1,4,11,4,1,11,6,11,0,6,13,11,4,11,9,13],"swapped_pitches":[1,4,11,4,1,11,6,1,11,6,13,11,4,11,9,13],"shift_direction":-1,"question_num":181,"has_decoy":false},{"rt":4467.700000047684,"stimulus":"[A] option 1, [L] option 2, [G] neither","key_press":65,"name":"choice","trial_type":"html-keyboard-response","trial_index":219,"time_elapsed":910075,"internal_node_id":"0.0-219.0","subject":"S1C1659","sona":"41538","block":6,"time":"2021-09-22T23:29:29.556Z","response":"1st","certainty":"high","char":"A","transposition":-1,"order":["shifted","swapped"],"probe_pitches":[3,8,4,9,5,1,5,8,-1,0,11,4,-1,7,11,1],"shifted_pitches":[3,8,4,9,5,1,5,8,-2,0,11,4,-1,7,11,1],"swapped_pitches":[3,8,4,9,5,1,5,-1,8,0,11,4,-1,7,11,1],"shift_direction":-1,"question_num":191,"has_decoy":false}]