[{"rt":10099.600000023842,"stimulus":"[A] option 1, [L] option 2, [G] neither","key_press":65,"name":"choice","trial_type":"html-keyboard-response","trial_index":15,"time_elapsed":344521,"internal_node_id":"0.0-15.0","response":"1st","certainty":"high","char":"A","transposition":-2,"order":["swapped","shifted"],"probe_pitches":[6,9,7,-1,7,5,4,0,3,5,7,0,6,4,2,-1],"shifted_pitches":[6,9,7,-1,7,5,4,1,3,5,7,0,6,4,2,-1],"swapped_pitches":[6,9,7,-1,7,5,4,3,0,5,7,0,6,4,2,-1],"shift_direction":1,"question_num":1,"has_decoy":false,"subject":"S1C1659","sona":"41538","block":1,"time":"2021-09-22T22:02:58.107Z"},{"rt":11811.800000011921,"stimulus":"[A] option 1, [L] option 2, [G] neither","key_press":71,"name":"choice","trial_type":"html-keyboard-response","trial_index":26,"time_elapsed":381994,"internal_node_id":"0.0-26.0","response":"neither","certainty":"high","char":"G","transposition":3,"order":["swapped","shifted"],"probe_pitches":[9,8,7,8,11,3,6,1,3,7,-1,4,-1,3,9,11],"shifted_pitches":[9,8,7,8,11,3,6,1,2,7,-1,4,-1,3,9,11],"swapped_pitches":[9,8,7,8,11,3,6,3,1,7,-1,4,-1,3,9,11],"shift_direction":-1,"question_num":11,"has_decoy":false,"subject":"S1C1659","sona":"41538","block":1,"time":"2021-09-22T22:02:58.107Z"},{"rt":2604.300000011921,"stimulus":"[A] option 1, [L] option 2, [G] neither","key_press":76,"name":"choice","trial_type":"html-keyboard-response","trial_index":37,"time_elapsed":408095,"internal_node_id":"0.0-37.0","response":"2nd","certainty":"high","char":"L","transposition":2,"order":["shifted","swapped"],"probe_pitches":[6,3,0,6,8,9,-1,4,7,1,0,7,1,0,4,-1],"shifted_pitches":[6,3,0,6,8,9,-1,5,7,1,0,7,1,0,4,-1],"swapped_pitches":[6,3,0,6,8,9,-1,7,4,1,0,7,1,0,4,-1],"shift_direction":1,"question_num":21,"has_decoy":false,"subject":"S1C1659","sona":"41538","block":1,"time":"2021-09-22T22:02:58.107Z"},{"rt":837.6999999880791,"stimulus":"[A] option 1, [L] option 2, [G] neither","key_press":65,"name":"choice","trial_type":"html-keyboard-response","trial_index":48,"time_elapsed":432969,"internal_node_id":"0.0-48.0","response":"1st","certainty":"high","char":"A","transposition":-2,"order":["shifted","swapped"],"probe_pitches":[5,0,5,12,10,5,3,8,12,3,5,8,10,3,10,8],"shifted_pitches":[5,0,5,12,10,5,3,8,13,3,5,8,10,3,10,8],"swapped_pitches":[5,0,5,12,10,5,3,12,8,3,5,8,10,3,10,8],"shift_direction":1,"question_num":31,"has_decoy":false,"subject":"S1C1659","sona":"41538","block":1,"time":"2021-09-22T22:02:58.107Z"},{"rt":1253.5,"stimulus":"[A] option 1, [L] option 2, [G] neither","key_press":76,"name":"choice","trial_type":"html-keyboard-response","trial_index":59,"time_elapsed":458326,"internal_node_id":"0.0-59.0","response":"2nd","certainty":"high","char":"L","transposition":0,"order":["swapped","shifted"],"probe_pitches":[12,10,12,7,5,3,7,12,10,0,7,3,7,0,10,5],"shifted_pitches":[12,10,12,7,5,3,7,11,10,0,7,3,7,0,10,5],"swapped_pitches":[12,10,12,7,5,3,7,10,12,0,7,3,7,0,10,5],"shift_direction":-1,"question_num":41,"has_decoy":false,"subject":"S1C1659","sona":"41538","block":1,"time":"2021-09-22T22:02:58.107Z"},{"rt":575.3000000119209,"stimulus":"[A] option 1, [L] option 2, [G] neither","key_press":76,"name":"choice","trial_type":"html-keyboard-response","trial_index":70,"time_elapsed":482614,"internal_node_id":"0.0-70.0","response":"2nd","certainty":"high","char":"L","transposition":-3,"order":["swapped","shifted"],"probe_pitches":[3,7,4,3,11,6,4,1,11,9,6,4,7,11,4,1],"shifted_pitches":[3,7,4,3,11,6,4,1,10,9,6,4,7,11,4,1],"swapped_pitches":[3,7,4,3,11,6,4,11,1,9,6,4,7,11,4,1],"shift_direction":-1,"question_num":51,"has_decoy":false,"subject":"S1C1659","sona":"41538","block":1,"time":"2021-09-22T22:02:58.107Z"},{"rt":669.3000000119209,"stimulus":"[A] option 1, [L] option 2, [G] neither","key_press":76,"name":"choice","trial_type":"html-keyboard-response","trial_index":81,"time_elapsed":506229,"internal_node_id":"0.0-81.0","response":"2nd","certainty":"high","char":"L","transposition":-2,"order":["shifted","swapped"],"probe_pitches":[12,9,12,7,12,5,9,5,2,9,2,12,7,5,9,5],"shifted_pitches":[12,9,12,7,12,5,9,5,3,9,2,12,7,5,9,5],"swapped_pitches":[12,9,12,7,12,5,9,2,5,9,2,12,7,5,9,5],"shift_direction":1,"question_num":61,"has_decoy":false,"subject":"S1C1659","sona":"41538","block":1,"time":"2021-09-22T22:02:58.107Z"},{"rt":525.3999999761581,"stimulus":"[A] option 1, [L] option 2, [G] neither","key_press":76,"name":"choice","trial_type":"html-keyboard-response","trial_index":92,"time_elapsed":530011,"internal_node_id":"0.0-92.0","response":"2nd","certainty":"high","char":"L","transposition":2,"order":["shifted","swapped"],"probe_pitches":[3,0,5,0,5,3,8,0,5,12,5,3,0,8,10,5],"shifted_pitches":[3,0,5,0,5,3,8,1,5,12,5,3,0,8,10,5],"swapped_pitches":[3,0,5,0,5,3,8,5,0,12,5,3,0,8,10,5],"shift_direction":1,"question_num":71,"has_decoy":false,"subject":"S1C1659","sona":"41538","block":1,"time":"2021-09-22T22:02:58.107Z"},{"rt":1102.9000000357628,"stimulus":"[A] option 1, [L] option 2, [G] neither","key_press":76,"name":"choice","trial_type":"html-keyboard-response","trial_index":103,"time_elapsed":554739,"internal_node_id":"0.0-103.0","response":"2nd","certainty":"high","char":"L","transposition":-1,"order":["swapped","shifted"],"probe_pitches":[7,9,7,0,7,11,8,4,7,-1,9,8,9,11,10,-1],"shifted_pitches":[7,9,7,0,7,11,8,4,6,-1,9,8,9,11,10,-1],"swapped_pitches":[7,9,7,0,7,11,8,7,4,-1,9,8,9,11,10,-1],"shift_direction":-1,"question_num":81,"has_decoy":false,"subject":"S1C1659","sona":"41538","block":1,"time":"2021-09-22T22:02:58.107Z"},{"rt":462.80000001192093,"stimulus":"[A] option 1, [L] option 2, [G] neither","key_press":76,"name":"choice","trial_type":"html-keyboard-response","trial_index":114,"time_elapsed":578611,"internal_node_id":"0.0-114.0","response":"2nd","certainty":"high","char":"L","transposition":0,"order":["shifted","swapped"],"probe_pitches":[11,8,4,3,9,1,3,6,-1,11,3,5,-1,0,6,2],"shifted_pitches":[11,8,4,3,9,1,3,7,-1,11,3,5,-1,0,6,2],"swapped_pitches":[11,8,4,3,9,1,3,-1,6,11,3,5,-1,0,6,2],"shift_direction":1,"question_num":91,"has_decoy":false,"subject":"S1C1659","sona":"41538","block":1,"time":"2021-09-22T22:02:58.107Z"},{"rt":887.6000000238419,"stimulus":"[A] option 1, [L] option 2, [G] neither","key_press":76,"name":"choice","trial_type":"html-keyboard-response","trial_index":125,"time_elapsed":602742,"internal_node_id":"0.0-125.0","response":"2nd","certainty":"high","char":"L","transposition":-1,"order":["shifted","swapped"],"probe_pitches":[0,3,0,7,2,-1,2,8,5,1,-1,5,9,8,1,0],"shifted_pitches":[0,3,0,7,2,-1,2,8,4,1,-1,5,9,8,1,0],"swapped_pitches":[0,3,0,7,2,-1,2,5,8,1,-1,5,9,8,1,0],"shift_direction":-1,"question_num":101,"has_decoy":false,"subject":"S1C1659","sona":"41538","block":1,"time":"2021-09-22T22:02:58.107Z"},{"rt":614.1999999880791,"stimulus":"[A] option 1, [L] option 2, [G] neither","key_press":76,"name":"choice","trial_type":"html-keyboard-response","trial_index":136,"time_elapsed":626558,"internal_node_id":"0.0-136.0","response":"2nd","certainty":"high","char":"L","transposition":-3,"order":["shifted","swapped"],"probe_pitches":[0,4,7,9,7,0,4,12,2,0,9,0,7,9,0,4],"shifted_pitches":[0,4,7,9,7,0,4,11,2,0,9,0,7,9,0,4],"swapped_pitches":[0,4,7,9,7,0,4,2,12,0,9,0,7,9,0,4],"shift_direction":-1,"question_num":111,"has_decoy":false,"subject":"S1C1659","sona":"41538","block":1,"time":"2021-09-22T22:02:58.107Z"},{"rt":1415.7000000476837,"stimulus":"[A] option 1, [L] option 2, [G] neither","key_press":76,"name":"choice","trial_type":"html-keyboard-response","trial_index":147,"time_elapsed":651387,"internal_node_id":"0.0-147.0","response":"2nd","certainty":"high","char":"L","transposition":3,"order":["swapped","shifted"],"probe_pitches":[3,0,3,7,3,10,5,7,3,12,3,10,5,3,5,7],"shifted_pitches":[3,0,3,7,3,10,5,7,2,12,3,10,5,3,5,7],"swapped_pitches":[3,0,3,7,3,10,5,3,7,12,3,10,5,3,5,7],"shift_direction":-1,"question_num":121,"has_decoy":false,"subject":"S1C1659","sona":"41538","block":1,"time":"2021-09-22T22:02:58.107Z"},{"rt":849.5,"stimulus":"[A] option 1, [L] option 2, [G] neither","key_press":76,"name":"choice","trial_type":"html-keyboard-response","trial_index":158,"time_elapsed":676070,"internal_node_id":"0.0-158.0","response":"2nd","certainty":"high","char":"L","transposition":-1,"order":["swapped","shifted"],"probe_pitches":[12,9,12,4,7,2,7,2,12,0,9,0,9,4,9,4],"shifted_pitches":[12,9,12,4,7,2,7,3,12,0,9,0,9,4,9,4],"swapped_pitches":[12,9,12,4,7,2,7,12,2,0,9,0,9,4,9,4],"shift_direction":1,"question_num":131,"has_decoy":false,"subject":"S1C1659","sona":"41538","block":1,"time":"2021-09-22T22:02:58.107Z"},{"rt":578.0999999642372,"stimulus":"[A] option 1, [L] option 2, [G] neither","key_press":76,"name":"choice","trial_type":"html-keyboard-response","trial_index":169,"time_elapsed":700989,"internal_node_id":"0.0-169.0","response":"2nd","certainty":"high","char":"L","transposition":1,"order":["swapped","shifted"],"probe_pitches":[10,5,10,5,7,2,5,12,2,7,10,12,2,5,10,7],"shifted_pitches":[10,5,10,5,7,2,5,11,2,7,10,12,2,5,10,7],"swapped_pitches":[10,5,10,5,7,2,5,2,12,7,10,12,2,5,10,7],"shift_direction":-1,"question_num":141,"has_decoy":false,"subject":"S1C1659","sona":"41538","block":1,"time":"2021-09-22T22:02:58.107Z"},{"rt":4377.5,"stimulus":"[A] option 1, [L] option 2, [G] neither","key_press":76,"name":"choice","trial_type":"html-keyboard-response","trial_index":180,"time_elapsed":729227,"internal_node_id":"0.0-180.0","response":"2nd","certainty":"high","char":"L","transposition":1,"order":["shifted","swapped"],"probe_pitches":[11,5,6,2,8,2,-1,9,4,5,4,0,1,6,8,5],"shifted_pitches":[11,5,6,2,8,2,-1,9,3,5,4,0,1,6,8,5],"swapped_pitches":[11,5,6,2,8,2,-1,4,9,5,4,0,1,6,8,5],"shift_direction":-1,"question_num":151,"has_decoy":false,"subject":"S1C1659","sona":"41538","block":1,"time":"2021-09-22T22:02:58.107Z"},{"rt":1361.1000000238419,"stimulus":"[A] option 1, [L] option 2, [G] neither","key_press":76,"name":"choice","trial_type":"html-keyboard-response","trial_index":191,"time_elapsed":787393,"internal_node_id":"0.0-191.0","response":"2nd","certainty":"high","char":"L","transposition":-1,"order":["shifted","swapped"],"probe_pitches":[0,2,5,12,9,2,7,12,5,9,2,0,2,7,9,2],"shifted_pitches":[0,2,5,12,9,2,7,12,6,9,2,0,2,7,9,2],"swapped_pitches":[0,2,5,12,9,2,7,5,12,9,2,0,2,7,9,2],"shift_direction":1,"question_num":161,"has_decoy":false,"subject":"S1C1659","sona":"41538","block":1,"time":"2021-09-22T22:02:58.107Z"},{"rt":1344.199999988079,"stimulus":"[A] option 1, [L] option 2, [G] neither","key_press":76,"name":"choice","trial_type":"html-keyboard-response","trial_index":202,"time_elapsed":812108,"internal_node_id":"0.0-202.0","response":"2nd","certainty":"high","char":"L","transposition":-3,"order":["swapped","shifted"],"probe_pitches":[2,5,12,10,2,12,10,5,0,12,5,0,10,7,10,12],"shifted_pitches":[2,5,12,10,2,12,10,5,-1,12,5,0,10,7,10,12],"swapped_pitches":[2,5,12,10,2,12,10,0,5,12,5,0,10,7,10,12],"shift_direction":-1,"question_num":171,"has_decoy":false,"subject":"S1C1659","sona":"41538","block":1,"time":"2021-09-22T22:02:58.107Z"},{"rt":3227.600000023842,"stimulus":"[A] option 1, [L] option 2, [G] neither","key_press":76,"name":"choice","trial_type":"html-keyboard-response","trial_index":213,"time_elapsed":838601,"internal_node_id":"0.0-213.0","response":"2nd","certainty":"high","char":"L","transposition":-3,"order":["swapped","shifted"],"probe_pitches":[0,-1,3,11,10,6,10,8,2,1,3,8,6,8,-1,5],"shifted_pitches":[0,-1,3,11,10,6,10,9,2,1,3,8,6,8,-1,5],"swapped_pitches":[0,-1,3,11,10,6,10,2,8,1,3,8,6,8,-1,5],"shift_direction":1,"question_num":181,"has_decoy":false,"subject":"S1C1659","sona":"41538","block":1,"time":"2021-09-22T22:02:58.107Z"},{"rt":2690.600000023842,"stimulus":"[A] option 1, [L] option 2, [G] neither","key_press":76,"name":"choice","trial_type":"html-keyboard-response","trial_index":224,"time_elapsed":864060,"internal_node_id":"0.0-224.0","response":"2nd","certainty":"high","char":"L","transposition":-2,"order":["shifted","swapped"],"probe_pitches":[4,2,4,3,-1,7,0,7,6,5,7,9,10,-1,11,7],"shifted_pitches":[4,2,4,3,-1,7,0,8,6,5,7,9,10,-1,11,7],"swapped_pitches":[4,2,4,3,-1,7,0,6,7,5,7,9,10,-1,11,7],"shift_direction":1,"question_num":191,"has_decoy":false,"subject":"S1C1659","sona":"41538","block":1,"time":"2021-09-22T22:02:58.107Z"}]