[{"rt":1014.8999999761581,"stimulus":"[A] option 1, [L] option 2, [G] neither","key_press":76,"name":"choice","trial_type":"html-keyboard-response","trial_index":10,"time_elapsed":30248,"internal_node_id":"0.0-10.0","subject":"S1C1659","sona":"41538","block":4,"time":"2021-09-22T23:00:16.955Z","response":"2nd","certainty":"high","char":"L","transposition":-2,"order":["shifted","swapped"],"probe_pitches":[-1,4,9,5,1,10,6,4,-1,2,8,-1,4,2,5,2],"shifted_pitches":[-1,4,9,5,1,10,6,3,-1,2,8,-1,4,2,5,2],"swapped_pitches":[-1,4,9,5,1,10,6,-1,4,2,8,-1,4,2,5,2],"shift_direction":-1,"question_num":1,"has_decoy":false},{"rt":4221.599999964237,"stimulus":"[A] option 1, [L] option 2, [G] neither","key_press":76,"name":"choice","trial_type":"html-keyboard-response","trial_index":21,"time_elapsed":151265,"internal_node_id":"0.0-21.0","subject":"S1C1659","sona":"41538","block":4,"time":"2021-09-22T23:00:16.955Z","response":"2nd","certainty":"high","char":"L","transposition":-3,"order":["swapped","shifted"],"probe_pitches":[8,10,5,-2,1,10,1,-2,3,10,5,3,1,8,-2,5],"shifted_pitches":[8,10,5,-2,1,10,1,-1,3,10,5,3,1,8,-2,5],"swapped_pitches":[8,10,5,-2,1,10,1,3,-2,10,5,3,1,8,-2,5],"shift_direction":1,"question_num":11,"has_decoy":false},{"rt":2572.099999964237,"stimulus":"[A] option 1, [L] option 2, [G] neither","key_press":65,"name":"choice","trial_type":"html-keyboard-response","trial_index":32,"time_elapsed":193420,"internal_node_id":"0.0-32.0","subject":"S1C1659","sona":"41538","block":4,"time":"2021-09-22T23:00:16.955Z","response":"1st","certainty":"high","char":"A","transposition":-3,"order":["swapped","shifted"],"probe_pitches":[1,-1,1,8,10,0,2,5,11,3,9,3,2,-1,5,-1],"shifted_pitches":[1,-1,1,8,10,0,2,6,11,3,9,3,2,-1,5,-1],"swapped_pitches":[1,-1,1,8,10,0,2,11,5,3,9,3,2,-1,5,-1],"shift_direction":1,"question_num":21,"has_decoy":false},{"rt":972,"stimulus":"[A] option 1, [L] option 2, [G] neither","key_press":76,"name":"choice","trial_type":"html-keyboard-response","trial_index":43,"time_elapsed":218113,"internal_node_id":"0.0-43.0","subject":"S1C1659","sona":"41538","block":4,"time":"2021-09-22T23:00:16.955Z","response":"2nd","certainty":"high","char":"L","transposition":3,"order":["swapped","shifted"],"probe_pitches":[10,6,3,1,-2,8,10,3,8,-2,6,8,1,6,1,10],"shifted_pitches":[10,6,3,1,-2,8,10,3,7,-2,6,8,1,6,1,10],"swapped_pitches":[10,6,3,1,-2,8,10,8,3,-2,6,8,1,6,1,10],"shift_direction":-1,"question_num":31,"has_decoy":false},{"rt":836.5999999642372,"stimulus":"[A] option 1, [L] option 2, [G] neither","key_press":76,"name":"choice","trial_type":"html-keyboard-response","trial_index":54,"time_elapsed":320444,"internal_node_id":"0.0-54.0","subject":"S1C1659","sona":"41538","block":4,"time":"2021-09-22T23:00:16.955Z","response":"2nd","certainty":"high","char":"L","transposition":2,"order":["swapped","shifted"],"probe_pitches":[1,-1,2,8,5,6,5,1,8,0,9,11,4,3,1,4],"shifted_pitches":[1,-1,2,8,5,6,5,1,7,0,9,11,4,3,1,4],"swapped_pitches":[1,-1,2,8,5,6,5,8,1,0,9,11,4,3,1,4],"shift_direction":-1,"question_num":41,"has_decoy":false},{"rt":1130.699999988079,"stimulus":"[A] option 1, [L] option 2, [G] neither","key_press":65,"name":"choice","trial_type":"html-keyboard-response","trial_index":65,"time_elapsed":382736,"internal_node_id":"0.0-65.0","subject":"S1C1659","sona":"41538","block":4,"time":"2021-09-22T23:00:16.955Z","response":"1st","certainty":"high","char":"A","transposition":-1,"order":["shifted","swapped"],"probe_pitches":[10,8,1,6,8,10,8,3,1,6,8,3,8,1,10,8],"shifted_pitches":[10,8,1,6,8,10,8,4,1,6,8,3,8,1,10,8],"swapped_pitches":[10,8,1,6,8,10,8,1,3,6,8,3,8,1,10,8],"shift_direction":1,"question_num":51,"has_decoy":false},{"rt":1061.4000000357628,"stimulus":"[A] option 1, [L] option 2, [G] neither","key_press":76,"name":"choice","trial_type":"html-keyboard-response","trial_index":76,"time_elapsed":415608,"internal_node_id":"0.0-76.0","subject":"S1C1659","sona":"41538","block":4,"time":"2021-09-22T23:00:16.955Z","response":"2nd","certainty":"high","char":"L","transposition":-1,"order":["shifted","swapped"],"probe_pitches":[9,11,7,-1,5,4,2,9,11,3,4,7,3,0,1,7],"shifted_pitches":[9,11,7,-1,5,4,2,9,10,3,4,7,3,0,1,7],"swapped_pitches":[9,11,7,-1,5,4,2,11,9,3,4,7,3,0,1,7],"shift_direction":-1,"question_num":61,"has_decoy":false},{"rt":1097.4000000357628,"stimulus":"[A] option 1, [L] option 2, [G] neither","key_press":65,"name":"choice","trial_type":"html-keyboard-response","trial_index":87,"time_elapsed":511110,"internal_node_id":"0.0-87.0","subject":"S1C1659","sona":"41538","block":4,"time":"2021-09-22T23:00:16.955Z","response":"1st","certainty":"high","char":"A","transposition":-1,"order":["shifted","swapped"],"probe_pitches":[10,7,5,2,5,-2,2,0,10,5,0,2,5,0,2,-2],"shifted_pitches":[10,7,5,2,5,-2,2,-1,10,5,0,2,5,0,2,-2],"swapped_pitches":[10,7,5,2,5,-2,2,10,0,5,0,2,5,0,2,-2],"shift_direction":-1,"question_num":71,"has_decoy":false},{"rt":8483.799999952316,"stimulus":"[A] option 1, [L] option 2, [G] neither","key_press":65,"name":"choice","trial_type":"html-keyboard-response","trial_index":98,"time_elapsed":542060,"internal_node_id":"0.0-98.0","subject":"S1C1659","sona":"41538","block":4,"time":"2021-09-22T23:00:16.955Z","response":"1st","certainty":"high","char":"A","transposition":1,"order":["shifted","swapped"],"probe_pitches":[3,-2,0,-2,5,0,7,10,3,0,-2,5,3,0,5,-2],"shifted_pitches":[3,-2,0,-2,5,0,7,10,2,0,-2,5,3,0,5,-2],"swapped_pitches":[3,-2,0,-2,5,0,7,3,10,0,-2,5,3,0,5,-2],"shift_direction":-1,"question_num":81,"has_decoy":false},{"rt":1955.3999999761581,"stimulus":"[A] option 1, [L] option 2, [G] neither","key_press":65,"name":"choice","trial_type":"html-keyboard-response","trial_index":109,"time_elapsed":610865,"internal_node_id":"0.0-109.0","subject":"S1C1659","sona":"41538","block":4,"time":"2021-09-22T23:00:16.955Z","response":"1st","certainty":"high","char":"A","transposition":-2,"order":["shifted","swapped"],"probe_pitches":[7,3,10,7,5,3,10,-2,0,7,5,-2,10,7,3,7],"shifted_pitches":[7,3,10,7,5,3,10,-2,-1,7,5,-2,10,7,3,7],"swapped_pitches":[7,3,10,7,5,3,10,0,-2,7,5,-2,10,7,3,7],"shift_direction":-1,"question_num":91,"has_decoy":false},{"rt":1776.7000000476837,"stimulus":"[A] option 1, [L] option 2, [G] neither","key_press":65,"name":"choice","trial_type":"html-keyboard-response","trial_index":120,"time_elapsed":636639,"internal_node_id":"0.0-120.0","subject":"S1C1659","sona":"41538","block":4,"time":"2021-09-22T23:00:16.955Z","response":"1st","certainty":"high","char":"A","transposition":-3,"order":["shifted","swapped"],"probe_pitches":[8,5,3,10,5,3,10,3,5,8,10,5,8,0,10,5],"shifted_pitches":[8,5,3,10,5,3,10,3,6,8,10,5,8,0,10,5],"swapped_pitches":[8,5,3,10,5,3,10,5,3,8,10,5,8,0,10,5],"shift_direction":1,"question_num":101,"has_decoy":false},{"rt":905.6000000238419,"stimulus":"[A] option 1, [L] option 2, [G] neither","key_press":76,"name":"choice","trial_type":"html-keyboard-response","trial_index":131,"time_elapsed":672717,"internal_node_id":"0.0-131.0","subject":"S1C1659","sona":"41538","block":4,"time":"2021-09-22T23:00:16.955Z","response":"2nd","certainty":"high","char":"L","transposition":-2,"order":["shifted","swapped"],"probe_pitches":[7,5,4,10,8,0,7,8,2,-1,0,3,10,-1,2,7],"shifted_pitches":[7,5,4,10,8,0,7,8,1,-1,0,3,10,-1,2,7],"swapped_pitches":[7,5,4,10,8,0,7,2,8,-1,0,3,10,-1,2,7],"shift_direction":-1,"question_num":111,"has_decoy":false},{"rt":5809.199999988079,"stimulus":"[A] option 1, [L] option 2, [G] neither","key_press":76,"name":"choice","trial_type":"html-keyboard-response","trial_index":142,"time_elapsed":700630,"internal_node_id":"0.0-142.0","subject":"S1C1659","sona":"41538","block":4,"time":"2021-09-22T23:00:16.955Z","response":"2nd","certainty":"high","char":"L","transposition":-1,"order":["shifted","swapped"],"probe_pitches":[6,7,5,-1,3,8,3,10,11,3,10,2,10,3,7,0],"shifted_pitches":[6,7,5,-1,3,8,3,9,11,3,10,2,10,3,7,0],"swapped_pitches":[6,7,5,-1,3,8,3,11,10,3,10,2,10,3,7,0],"shift_direction":-1,"question_num":121,"has_decoy":false},{"rt":584.4000000357628,"stimulus":"[A] option 1, [L] option 2, [G] neither","key_press":76,"name":"choice","trial_type":"html-keyboard-response","trial_index":153,"time_elapsed":839579,"internal_node_id":"0.0-153.0","subject":"S1C1659","sona":"41538","block":4,"time":"2021-09-22T23:00:16.955Z","response":"2nd","certainty":"high","char":"L","transposition":-2,"order":["swapped","shifted"],"probe_pitches":[5,8,5,-2,3,8,-2,8,10,0,10,5,8,-2,8,3],"shifted_pitches":[5,8,5,-2,3,8,-2,8,11,0,10,5,8,-2,8,3],"swapped_pitches":[5,8,5,-2,3,8,-2,10,8,0,10,5,8,-2,8,3],"shift_direction":1,"question_num":131,"has_decoy":false},{"rt":1633.300000011921,"stimulus":"[A] option 1, [L] option 2, [G] neither","key_press":76,"name":"choice","trial_type":"html-keyboard-response","trial_index":164,"time_elapsed":889304,"internal_node_id":"0.0-164.0","subject":"S1C1659","sona":"41538","block":4,"time":"2021-09-22T23:00:16.955Z","response":"2nd","certainty":"high","char":"L","transposition":-3,"order":["shifted","swapped"],"probe_pitches":[1,5,2,9,4,-1,3,7,2,11,2,5,-1,10,1,10],"shifted_pitches":[1,5,2,9,4,-1,3,8,2,11,2,5,-1,10,1,10],"swapped_pitches":[1,5,2,9,4,-1,3,2,7,11,2,5,-1,10,1,10],"shift_direction":1,"question_num":141,"has_decoy":false},{"rt":6690.399999976158,"stimulus":"[A] option 1, [L] option 2, [G] neither","key_press":76,"name":"choice","trial_type":"html-keyboard-response","trial_index":175,"time_elapsed":923201,"internal_node_id":"0.0-175.0","subject":"S1C1659","sona":"41538","block":4,"time":"2021-09-22T23:00:16.955Z","response":"2nd","certainty":"high","char":"L","transposition":2,"order":["swapped","shifted"],"probe_pitches":[3,1,8,1,3,-2,8,-2,3,5,10,-2,8,-2,10,1],"shifted_pitches":[3,1,8,1,3,-2,8,-1,3,5,10,-2,8,-2,10,1],"swapped_pitches":[3,1,8,1,3,-2,8,3,-2,5,10,-2,8,-2,10,1],"shift_direction":1,"question_num":151,"has_decoy":false},{"rt":575.3000000119209,"stimulus":"[A] option 1, [L] option 2, [G] neither","key_press":76,"name":"choice","trial_type":"html-keyboard-response","trial_index":186,"time_elapsed":948243,"internal_node_id":"0.0-186.0","subject":"S1C1659","sona":"41538","block":4,"time":"2021-09-22T23:00:16.955Z","response":"2nd","certainty":"high","char":"L","transposition":0,"order":["swapped","shifted"],"probe_pitches":[0,-2,2,-2,5,0,5,10,-2,0,5,2,-2,7,0,5],"shifted_pitches":[0,-2,2,-2,5,0,5,9,-2,0,5,2,-2,7,0,5],"swapped_pitches":[0,-2,2,-2,5,0,5,-2,10,0,5,2,-2,7,0,5],"shift_direction":-1,"question_num":161,"has_decoy":false},{"rt":2971,"stimulus":"[A] option 1, [L] option 2, [G] neither","key_press":76,"name":"choice","trial_type":"html-keyboard-response","trial_index":197,"time_elapsed":974906,"internal_node_id":"0.0-197.0","subject":"S1C1659","sona":"41538","block":4,"time":"2021-09-22T23:00:16.955Z","response":"2nd","certainty":"high","char":"L","transposition":0,"order":["swapped","shifted"],"probe_pitches":[9,6,9,1,5,11,7,6,3,9,5,11,0,3,8,9],"shifted_pitches":[9,6,9,1,5,11,7,6,4,9,5,11,0,3,8,9],"swapped_pitches":[9,6,9,1,5,11,7,3,6,9,5,11,0,3,8,9],"shift_direction":1,"question_num":171,"has_decoy":false},{"rt":3422.5,"stimulus":"[A] option 1, [L] option 2, [G] neither","key_press":76,"name":"choice","trial_type":"html-keyboard-response","trial_index":208,"time_elapsed":1039505,"internal_node_id":"0.0-208.0","subject":"S1C1659","sona":"41538","block":4,"time":"2021-09-22T23:00:16.955Z","response":"2nd","certainty":"high","char":"L","transposition":3,"order":["swapped","shifted"],"probe_pitches":[6,9,8,10,11,7,6,8,4,10,6,8,0,1,6,10],"shifted_pitches":[6,9,8,10,11,7,6,8,5,10,6,8,0,1,6,10],"swapped_pitches":[6,9,8,10,11,7,6,4,8,10,6,8,0,1,6,10],"shift_direction":1,"question_num":181,"has_decoy":false},{"rt":3476.699999988079,"stimulus":"[A] option 1, [L] option 2, [G] neither","key_press":76,"name":"choice","trial_type":"html-keyboard-response","trial_index":219,"time_elapsed":1076450,"internal_node_id":"0.0-219.0","subject":"S1C1659","sona":"41538","block":4,"time":"2021-09-22T23:00:16.955Z","response":"2nd","certainty":"high","char":"L","transposition":1,"order":["swapped","shifted"],"probe_pitches":[7,6,9,11,10,11,8,1,11,5,7,3,11,5,0,1],"shifted_pitches":[7,6,9,11,10,11,8,2,11,5,7,3,11,5,0,1],"swapped_pitches":[7,6,9,11,10,11,8,11,1,5,7,3,11,5,0,1],"shift_direction":1,"question_num":191,"has_decoy":false}]