[{"rt":16730.40000000596,"stimulus":"[A] option 1, [L] option 2, [G] neither","key_press":76,"name":"choice","trial_type":"html-keyboard-response","trial_index":15,"time_elapsed":96931,"internal_node_id":"0.0-15.0","response":"2nd","certainty":"high","char":"L","transposition":2,"order":["shifted","swapped"],"probe_pitches":[-1,1,6,8,9,6,-2,1,9,2,0,3],"shifted_pitches":[-1,1,6,8,9,5,-2,1,9,2,0,3],"swapped_pitches":[-1,1,6,8,9,-2,6,1,9,2,0,3],"shift_direction":-1,"question_num":1,"has_decoy":false,"subject":"S1C1238","sona":"41853","block":1,"time":"2021-09-18T20:13:44.054Z"},{"rt":1707.0999999940395,"stimulus":"[A] option 1, [L] option 2, [G] neither","key_press":76,"name":"choice","trial_type":"html-keyboard-response","trial_index":26,"time_elapsed":118148,"internal_node_id":"0.0-26.0","response":"2nd","certainty":"high","char":"L","transposition":1,"order":["swapped","shifted"],"probe_pitches":[0,4,6,3,2,9,5,-2,7,10,-2,6],"shifted_pitches":[0,4,6,3,2,8,5,-2,7,10,-2,6],"swapped_pitches":[0,4,6,3,2,5,9,-2,7,10,-2,6],"shift_direction":-1,"question_num":11,"has_decoy":false,"subject":"S1C1238","sona":"41853","block":1,"time":"2021-09-18T20:13:44.054Z"},{"rt":1365.300000011921,"stimulus":"[A] option 1, [L] option 2, [G] neither","key_press":65,"name":"choice","trial_type":"html-keyboard-response","trial_index":37,"time_elapsed":137731,"internal_node_id":"0.0-37.0","response":"1st","certainty":"high","char":"A","transposition":3,"order":["shifted","swapped"],"probe_pitches":[7,4,10,6,7,-2,-1,7,6,5,-1,3],"shifted_pitches":[7,4,10,6,7,-3,-1,7,6,5,-1,3],"swapped_pitches":[7,4,10,6,7,-1,-2,7,6,5,-1,3],"shift_direction":-1,"question_num":21,"has_decoy":false,"subject":"S1C1238","sona":"41853","block":1,"time":"2021-09-18T20:13:44.054Z"},{"rt":996.9000000059605,"stimulus":"[A] option 1, [L] option 2, [G] neither","key_press":71,"name":"choice","trial_type":"html-keyboard-response","trial_index":48,"time_elapsed":163495,"internal_node_id":"0.0-48.0","response":"neither","certainty":"high","char":"G","transposition":3,"order":["swapped","shifted"],"probe_pitches":[4,1,6,1,4,-1,-3,1,4,-1,-3,-1],"shifted_pitches":[4,1,6,1,4,-2,-3,1,4,-1,-3,-1],"swapped_pitches":[4,1,6,1,4,-3,-1,1,4,-1,-3,-1],"shift_direction":-1,"question_num":31,"has_decoy":false,"subject":"S1C1238","sona":"41853","block":1,"time":"2021-09-18T20:13:44.054Z"},{"rt":3187,"stimulus":"[A] option 1, [L] option 2, [G] neither","key_press":76,"name":"choice","trial_type":"html-keyboard-response","trial_index":59,"time_elapsed":186730,"internal_node_id":"0.0-59.0","response":"2nd","certainty":"high","char":"L","transposition":-1,"order":["swapped","shifted"],"probe_pitches":[9,4,-1,1,-3,1,-1,-3,6,1,4,-1],"shifted_pitches":[9,4,-1,1,-3,1,-2,-3,6,1,4,-1],"swapped_pitches":[9,4,-1,1,-3,-1,1,-3,6,1,4,-1],"shift_direction":-1,"question_num":41,"has_decoy":false,"subject":"S1C1238","sona":"41853","block":1,"time":"2021-09-18T20:13:44.054Z"},{"rt":3924.699999988079,"stimulus":"[A] option 1, [L] option 2, [G] neither","key_press":71,"name":"choice","trial_type":"html-keyboard-response","trial_index":70,"time_elapsed":209241,"internal_node_id":"0.0-70.0","response":"neither","certainty":"high","char":"G","transposition":-1,"order":["shifted","swapped"],"probe_pitches":[4,-1,2,-3,2,4,-1,-3,2,6,2,-3],"shifted_pitches":[4,-1,2,-3,2,4,0,-3,2,6,2,-3],"swapped_pitches":[4,-1,2,-3,2,-1,4,-3,2,6,2,-3],"shift_direction":1,"question_num":51,"has_decoy":false,"subject":"S1C1238","sona":"41853","block":1,"time":"2021-09-18T20:13:44.054Z"},{"rt":1650.7999999821186,"stimulus":"[A] option 1, [L] option 2, [G] neither","key_press":76,"name":"choice","trial_type":"html-keyboard-response","trial_index":81,"time_elapsed":229328,"internal_node_id":"0.0-81.0","response":"2nd","certainty":"high","char":"L","transposition":-3,"order":["swapped","shifted"],"probe_pitches":[7,6,2,5,9,2,6,8,9,1,0,4],"shifted_pitches":[7,6,2,5,9,3,6,8,9,1,0,4],"swapped_pitches":[7,6,2,5,9,6,2,8,9,1,0,4],"shift_direction":1,"question_num":61,"has_decoy":false,"subject":"S1C1238","sona":"41853","block":1,"time":"2021-09-18T20:13:44.054Z"},{"rt":4457.700000017881,"stimulus":"[A] option 1, [L] option 2, [G] neither","key_press":71,"name":"choice","trial_type":"html-keyboard-response","trial_index":92,"time_elapsed":252668,"internal_node_id":"0.0-92.0","response":"neither","certainty":"high","char":"G","transposition":-3,"order":["swapped","shifted"],"probe_pitches":[1,6,5,8,10,0,1,8,-1,3,1,4],"shifted_pitches":[1,6,5,8,10,0,2,8,-1,3,1,4],"swapped_pitches":[1,6,5,8,10,1,0,8,-1,3,1,4],"shift_direction":1,"question_num":71,"has_decoy":false,"subject":"S1C1238","sona":"41853","block":1,"time":"2021-09-18T20:13:44.054Z"},{"rt":1409,"stimulus":"[A] option 1, [L] option 2, [G] neither","key_press":71,"name":"choice","trial_type":"html-keyboard-response","trial_index":103,"time_elapsed":424114,"internal_node_id":"0.0-103.0","response":"neither","certainty":"high","char":"G","transposition":-2,"order":["shifted","swapped"],"probe_pitches":[9,7,4,-3,2,-1,4,7,9,4,-3,9],"shifted_pitches":[9,7,4,-3,2,-1,3,7,9,4,-3,9],"swapped_pitches":[9,7,4,-3,2,4,-1,7,9,4,-3,9],"shift_direction":-1,"question_num":81,"has_decoy":false,"subject":"S1C1238","sona":"41853","block":1,"time":"2021-09-18T20:13:44.054Z"},{"rt":1678.4000000059605,"stimulus":"[A] option 1, [L] option 2, [G] neither","key_press":76,"name":"choice","trial_type":"html-keyboard-response","trial_index":114,"time_elapsed":446325,"internal_node_id":"0.0-114.0","response":"2nd","certainty":"high","char":"L","transposition":-3,"order":["shifted","swapped"],"probe_pitches":[7,5,2,5,-3,2,5,9,-3,9,0,9],"shifted_pitches":[7,5,2,5,-3,1,5,9,-3,9,0,9],"swapped_pitches":[7,5,2,5,-3,5,2,9,-3,9,0,9],"shift_direction":-1,"question_num":91,"has_decoy":false,"subject":"S1C1238","sona":"41853","block":1,"time":"2021-09-18T20:13:44.054Z"},{"rt":3186.199999988079,"stimulus":"[A] option 1, [L] option 2, [G] neither","key_press":76,"name":"choice","trial_type":"html-keyboard-response","trial_index":125,"time_elapsed":467635,"internal_node_id":"0.0-125.0","response":"2nd","certainty":"high","char":"L","transposition":0,"order":["swapped","shifted"],"probe_pitches":[7,9,2,7,4,7,-3,4,9,-1,7,9],"shifted_pitches":[7,9,2,7,4,8,-3,4,9,-1,7,9],"swapped_pitches":[7,9,2,7,4,-3,7,4,9,-1,7,9],"shift_direction":1,"question_num":101,"has_decoy":false,"subject":"S1C1238","sona":"41853","block":1,"time":"2021-09-18T20:13:44.054Z"},{"rt":2140.4000000059605,"stimulus":"[A] option 1, [L] option 2, [G] neither","key_press":71,"name":"choice","trial_type":"html-keyboard-response","trial_index":136,"time_elapsed":488280,"internal_node_id":"0.0-136.0","response":"neither","certainty":"high","char":"G","transposition":-2,"order":["shifted","swapped"],"probe_pitches":[10,4,0,1,3,5,6,10,3,-1,2,6],"shifted_pitches":[10,4,0,1,3,5,7,10,3,-1,2,6],"swapped_pitches":[10,4,0,1,3,6,5,10,3,-1,2,6],"shift_direction":1,"question_num":111,"has_decoy":false,"subject":"S1C1238","sona":"41853","block":1,"time":"2021-09-18T20:13:44.054Z"},{"rt":14090.299999982119,"stimulus":"[A] option 1, [L] option 2, [G] neither","key_press":71,"name":"choice","trial_type":"html-keyboard-response","trial_index":147,"time_elapsed":520597,"internal_node_id":"0.0-147.0","response":"neither","certainty":"high","char":"G","transposition":2,"order":["shifted","swapped"],"probe_pitches":[-1,4,-1,6,-1,4,-3,6,2,-1,2,-1],"shifted_pitches":[-1,4,-1,6,-1,5,-3,6,2,-1,2,-1],"swapped_pitches":[-1,4,-1,6,-1,-3,4,6,2,-1,2,-1],"shift_direction":1,"question_num":121,"has_decoy":false,"subject":"S1C1238","sona":"41853","block":1,"time":"2021-09-18T20:13:44.054Z"},{"rt":1298.5999999940395,"stimulus":"[A] option 1, [L] option 2, [G] neither","key_press":76,"name":"choice","trial_type":"html-keyboard-response","trial_index":158,"time_elapsed":540563,"internal_node_id":"0.0-158.0","response":"2nd","certainty":"high","char":"L","transposition":-3,"order":["swapped","shifted"],"probe_pitches":[0,-3,0,5,-3,7,2,0,5,2,9,-3],"shifted_pitches":[0,-3,0,5,-3,7,1,0,5,2,9,-3],"swapped_pitches":[0,-3,0,5,-3,2,7,0,5,2,9,-3],"shift_direction":-1,"question_num":131,"has_decoy":false,"subject":"S1C1238","sona":"41853","block":1,"time":"2021-09-18T20:13:44.054Z"},{"rt":3572,"stimulus":"[A] option 1, [L] option 2, [G] neither","key_press":76,"name":"choice","trial_type":"html-keyboard-response","trial_index":169,"time_elapsed":562857,"internal_node_id":"0.0-169.0","response":"2nd","certainty":"high","char":"L","transposition":1,"order":["swapped","shifted"],"probe_pitches":[-3,2,7,2,4,0,-3,7,-3,4,2,0],"shifted_pitches":[-3,2,7,2,4,1,-3,7,-3,4,2,0],"swapped_pitches":[-3,2,7,2,4,-3,0,7,-3,4,2,0],"shift_direction":1,"question_num":141,"has_decoy":false,"subject":"S1C1238","sona":"41853","block":1,"time":"2021-09-18T20:13:44.054Z"},{"rt":4107.5999999940395,"stimulus":"[A] option 1, [L] option 2, [G] neither","key_press":65,"name":"choice","trial_type":"html-keyboard-response","trial_index":180,"time_elapsed":586075,"internal_node_id":"0.0-180.0","response":"1st","certainty":"high","char":"A","transposition":-1,"order":["swapped","shifted"],"probe_pitches":[-2,4,-2,-1,-2,4,-1,2,9,-1,3,2],"shifted_pitches":[-2,4,-2,-1,-2,4,0,2,9,-1,3,2],"swapped_pitches":[-2,4,-2,-1,-2,-1,4,2,9,-1,3,2],"shift_direction":1,"question_num":151,"has_decoy":false,"subject":"S1C1238","sona":"41853","block":1,"time":"2021-09-18T20:13:44.054Z"},{"rt":5148,"stimulus":"[A] option 1, [L] option 2, [G] neither","key_press":76,"name":"choice","trial_type":"html-keyboard-response","trial_index":191,"time_elapsed":611820,"internal_node_id":"0.0-191.0","response":"2nd","certainty":"high","char":"L","transposition":-2,"order":["shifted","swapped"],"probe_pitches":[10,9,2,10,6,9,0,-2,9,7,-2,0],"shifted_pitches":[10,9,2,10,6,9,1,-2,9,7,-2,0],"swapped_pitches":[10,9,2,10,6,0,9,-2,9,7,-2,0],"shift_direction":1,"question_num":161,"has_decoy":false,"subject":"S1C1238","sona":"41853","block":1,"time":"2021-09-18T20:13:44.054Z"},{"rt":2169,"stimulus":"[A] option 1, [L] option 2, [G] neither","key_press":71,"name":"choice","trial_type":"html-keyboard-response","trial_index":202,"time_elapsed":632873,"internal_node_id":"0.0-202.0","response":"neither","certainty":"high","char":"G","transposition":-2,"order":["shifted","swapped"],"probe_pitches":[4,2,7,2,9,2,-3,7,-3,0,-3,9],"shifted_pitches":[4,2,7,2,9,2,-2,7,-3,0,-3,9],"swapped_pitches":[4,2,7,2,9,-3,2,7,-3,0,-3,9],"shift_direction":1,"question_num":171,"has_decoy":false,"subject":"S1C1238","sona":"41853","block":1,"time":"2021-09-18T20:13:44.054Z"},{"rt":3528.699999988079,"stimulus":"[A] option 1, [L] option 2, [G] neither","key_press":71,"name":"choice","trial_type":"html-keyboard-response","trial_index":213,"time_elapsed":656034,"internal_node_id":"0.0-213.0","response":"neither","certainty":"high","char":"G","transposition":0,"order":["shifted","swapped"],"probe_pitches":[1,7,10,9,2,3,5,-2,0,-2,10,1],"shifted_pitches":[1,7,10,9,2,3,4,-2,0,-2,10,1],"swapped_pitches":[1,7,10,9,2,5,3,-2,0,-2,10,1],"shift_direction":-1,"question_num":181,"has_decoy":false,"subject":"S1C1238","sona":"41853","block":1,"time":"2021-09-18T20:13:44.054Z"},{"rt":10086.5,"stimulus":"[A] option 1, [L] option 2, [G] neither","key_press":71,"name":"choice","trial_type":"html-keyboard-response","trial_index":224,"time_elapsed":684885,"internal_node_id":"0.0-224.0","response":"neither","certainty":"high","char":"G","transposition":-1,"order":["swapped","shifted"],"probe_pitches":[1,3,10,7,-1,7,1,2,7,-2,9,7],"shifted_pitches":[1,3,10,7,-1,6,1,2,7,-2,9,7],"swapped_pitches":[1,3,10,7,-1,1,7,2,7,-2,9,7],"shift_direction":-1,"question_num":191,"has_decoy":false,"subject":"S1C1238","sona":"41853","block":1,"time":"2021-09-18T20:13:44.054Z"}]