[{"rt":4527.300000011921,"stimulus":"[A] option 1, [L] option 2, [G] neither","key_press":71,"name":"choice","trial_type":"html-keyboard-response","trial_index":10,"time_elapsed":61744,"internal_node_id":"0.0-10.0","subject":"S1C1238","sona":"41853","block":5,"time":"2021-09-18T21:13:49.153Z","response":"neither","certainty":"high","char":"G","transposition":-2,"order":["shifted","swapped"],"probe_pitches":[5,8,3,1,3,-2,5,10,8,1,-2,8],"shifted_pitches":[5,8,3,1,3,-2,4,10,8,1,-2,8],"swapped_pitches":[5,8,3,1,3,5,-2,10,8,1,-2,8],"shift_direction":-1,"question_num":1,"has_decoy":false},{"rt":6346.899999976158,"stimulus":"[A] option 1, [L] option 2, [G] neither","key_press":76,"name":"choice","trial_type":"html-keyboard-response","trial_index":21,"time_elapsed":88482,"internal_node_id":"0.0-21.0","subject":"S1C1238","sona":"41853","block":5,"time":"2021-09-18T21:13:49.153Z","response":"2nd","certainty":"high","char":"L","transposition":2,"order":["swapped","shifted"],"probe_pitches":[-1,5,2,5,9,3,-1,8,3,-2,3,5],"shifted_pitches":[-1,5,2,5,9,4,-1,8,3,-2,3,5],"swapped_pitches":[-1,5,2,5,9,-1,3,8,3,-2,3,5],"shift_direction":1,"question_num":11,"has_decoy":false},{"rt":272.59999999403954,"stimulus":"[A] option 1, [L] option 2, [G] neither","key_press":76,"name":"choice","trial_type":"html-keyboard-response","trial_index":32,"time_elapsed":107986,"internal_node_id":"0.0-32.0","subject":"S1C1238","sona":"41853","block":5,"time":"2021-09-18T21:13:49.153Z","response":"2nd","certainty":"high","char":"L","transposition":-3,"order":["swapped","shifted"],"probe_pitches":[2,7,5,10,5,0,7,-2,0,7,-2,2],"shifted_pitches":[2,7,5,10,5,0,6,-2,0,7,-2,2],"swapped_pitches":[2,7,5,10,5,7,0,-2,0,7,-2,2],"shift_direction":-1,"question_num":21,"has_decoy":false},{"rt":3438.0999999940395,"stimulus":"[A] option 1, [L] option 2, [G] neither","key_press":71,"name":"choice","trial_type":"html-keyboard-response","trial_index":43,"time_elapsed":129573,"internal_node_id":"0.0-43.0","subject":"S1C1238","sona":"41853","block":5,"time":"2021-09-18T21:13:49.153Z","response":"neither","certainty":"high","char":"G","transposition":-3,"order":["shifted","swapped"],"probe_pitches":[-3,2,3,-3,4,3,2,0,5,2,5,0],"shifted_pitches":[-3,2,3,-3,4,3,1,0,5,2,5,0],"swapped_pitches":[-3,2,3,-3,4,2,3,0,5,2,5,0],"shift_direction":-1,"question_num":31,"has_decoy":false},{"rt":88389.59999999404,"stimulus":"[A] option 1, [L] option 2, [G] neither","key_press":71,"name":"choice","trial_type":"html-keyboard-response","trial_index":54,"time_elapsed":236442,"internal_node_id":"0.0-54.0","subject":"S1C1238","sona":"41853","block":5,"time":"2021-09-18T21:13:49.153Z","response":"neither","certainty":"high","char":"G","transposition":3,"order":["swapped","shifted"],"probe_pitches":[8,2,8,9,6,0,-2,-3,0,9,-3,5],"shifted_pitches":[8,2,8,9,6,-1,-2,-3,0,9,-3,5],"swapped_pitches":[8,2,8,9,6,-2,0,-3,0,9,-3,5],"shift_direction":-1,"question_num":41,"has_decoy":false},{"rt":851.3000000119209,"stimulus":"[A] option 1, [L] option 2, [G] neither","key_press":76,"name":"choice","trial_type":"html-keyboard-response","trial_index":65,"time_elapsed":255697,"internal_node_id":"0.0-65.0","subject":"S1C1238","sona":"41853","block":5,"time":"2021-09-18T21:13:49.153Z","response":"2nd","certainty":"high","char":"L","transposition":2,"order":["swapped","shifted"],"probe_pitches":[8,10,8,10,5,-2,1,8,5,3,5,-2],"shifted_pitches":[8,10,8,10,5,-1,1,8,5,3,5,-2],"swapped_pitches":[8,10,8,10,5,1,-2,8,5,3,5,-2],"shift_direction":1,"question_num":51,"has_decoy":false},{"rt":28819.90000000596,"stimulus":"[A] option 1, [L] option 2, [G] neither","key_press":65,"name":"choice","trial_type":"html-keyboard-response","trial_index":76,"time_elapsed":302593,"internal_node_id":"0.0-76.0","subject":"S1C1238","sona":"41853","block":5,"time":"2021-09-18T21:13:49.153Z","response":"1st","certainty":"high","char":"A","transposition":-1,"order":["swapped","shifted"],"probe_pitches":[8,3,-2,1,-2,3,6,-2,3,1,10,3],"shifted_pitches":[8,3,-2,1,-2,2,6,-2,3,1,10,3],"swapped_pitches":[8,3,-2,1,-2,6,3,-2,3,1,10,3],"shift_direction":-1,"question_num":61,"has_decoy":false},{"rt":43237,"stimulus":"[A] option 1, [L] option 2, [G] neither","key_press":71,"name":"choice","trial_type":"html-keyboard-response","trial_index":87,"time_elapsed":363927,"internal_node_id":"0.0-87.0","subject":"S1C1238","sona":"41853","block":5,"time":"2021-09-18T21:13:49.153Z","response":"neither","certainty":"high","char":"G","transposition":1,"order":["swapped","shifted"],"probe_pitches":[0,5,4,-2,3,8,6,9,-1,-2,5,-3],"shifted_pitches":[0,5,4,-2,3,8,7,9,-1,-2,5,-3],"swapped_pitches":[0,5,4,-2,3,6,8,9,-1,-2,5,-3],"shift_direction":1,"question_num":71,"has_decoy":false},{"rt":69726.69999998808,"stimulus":"[A] option 1, [L] option 2, [G] neither","key_press":71,"name":"choice","trial_type":"html-keyboard-response","trial_index":98,"time_elapsed":451747,"internal_node_id":"0.0-98.0","subject":"S1C1238","sona":"41853","block":5,"time":"2021-09-18T21:13:49.153Z","response":"neither","certainty":"high","char":"G","transposition":-1,"order":["shifted","swapped"],"probe_pitches":[-3,0,-3,4,-3,1,7,-1,3,-2,6,1],"shifted_pitches":[-3,0,-3,4,-3,1,8,-1,3,-2,6,1],"swapped_pitches":[-3,0,-3,4,-3,7,1,-1,3,-2,6,1],"shift_direction":1,"question_num":81,"has_decoy":false},{"rt":11846.199999988079,"stimulus":"[A] option 1, [L] option 2, [G] neither","key_press":76,"name":"choice","trial_type":"html-keyboard-response","trial_index":109,"time_elapsed":482006,"internal_node_id":"0.0-109.0","subject":"S1C1238","sona":"41853","block":5,"time":"2021-09-18T21:13:49.153Z","response":"2nd","certainty":"high","char":"L","transposition":0,"order":["shifted","swapped"],"probe_pitches":[1,4,-3,4,7,8,1,6,-3,8,7,-3],"shifted_pitches":[1,4,-3,4,7,8,2,6,-3,8,7,-3],"swapped_pitches":[1,4,-3,4,7,1,8,6,-3,8,7,-3],"shift_direction":1,"question_num":91,"has_decoy":false},{"rt":3880.699999988079,"stimulus":"[A] option 1, [L] option 2, [G] neither","key_press":76,"name":"choice","trial_type":"html-keyboard-response","trial_index":120,"time_elapsed":504270,"internal_node_id":"0.0-120.0","subject":"S1C1238","sona":"41853","block":5,"time":"2021-09-18T21:13:49.153Z","response":"2nd","certainty":"high","char":"L","transposition":-1,"order":["shifted","swapped"],"probe_pitches":[5,0,3,-3,0,7,-3,3,0,1,-3,2],"shifted_pitches":[5,0,3,-3,0,6,-3,3,0,1,-3,2],"swapped_pitches":[5,0,3,-3,0,-3,7,3,0,1,-3,2],"shift_direction":-1,"question_num":101,"has_decoy":false},{"rt":30122.80000001192,"stimulus":"[A] option 1, [L] option 2, [G] neither","key_press":71,"name":"choice","trial_type":"html-keyboard-response","trial_index":131,"time_elapsed":552719,"internal_node_id":"0.0-131.0","subject":"S1C1238","sona":"41853","block":5,"time":"2021-09-18T21:13:49.153Z","response":"neither","certainty":"high","char":"G","transposition":-3,"order":["swapped","shifted"],"probe_pitches":[-3,-1,2,6,-3,4,8,2,5,7,5,-3],"shifted_pitches":[-3,-1,2,6,-3,3,8,2,5,7,5,-3],"swapped_pitches":[-3,-1,2,6,-3,8,4,2,5,7,5,-3],"shift_direction":-1,"question_num":111,"has_decoy":false},{"rt":30812.69999998808,"stimulus":"[A] option 1, [L] option 2, [G] neither","key_press":71,"name":"choice","trial_type":"html-keyboard-response","trial_index":142,"time_elapsed":604526,"internal_node_id":"0.0-142.0","subject":"S1C1238","sona":"41853","block":5,"time":"2021-09-18T21:13:49.153Z","response":"neither","certainty":"high","char":"G","transposition":1,"order":["shifted","swapped"],"probe_pitches":[3,7,0,-2,3,5,10,-2,0,5,10,5],"shifted_pitches":[3,7,0,-2,3,4,10,-2,0,5,10,5],"swapped_pitches":[3,7,0,-2,3,10,5,-2,0,5,10,5],"shift_direction":-1,"question_num":121,"has_decoy":false},{"rt":50038.80000001192,"stimulus":"[A] option 1, [L] option 2, [G] neither","key_press":71,"name":"choice","trial_type":"html-keyboard-response","trial_index":153,"time_elapsed":673307,"internal_node_id":"0.0-153.0","subject":"S1C1238","sona":"41853","block":5,"time":"2021-09-18T21:13:49.153Z","response":"neither","certainty":"high","char":"G","transposition":-2,"order":["swapped","shifted"],"probe_pitches":[-3,-2,1,3,6,3,-1,2,-2,9,8,-3],"shifted_pitches":[-3,-2,1,3,6,3,0,2,-2,9,8,-3],"swapped_pitches":[-3,-2,1,3,6,-1,3,2,-2,9,8,-3],"shift_direction":1,"question_num":131,"has_decoy":false},{"rt":3175,"stimulus":"[A] option 1, [L] option 2, [G] neither","key_press":71,"name":"choice","trial_type":"html-keyboard-response","trial_index":164,"time_elapsed":695317,"internal_node_id":"0.0-164.0","subject":"S1C1238","sona":"41853","block":5,"time":"2021-09-18T21:13:49.153Z","response":"neither","certainty":"high","char":"G","transposition":3,"order":["shifted","swapped"],"probe_pitches":[0,2,5,7,5,0,10,2,-2,7,5,0],"shifted_pitches":[0,2,5,7,5,1,10,2,-2,7,5,0],"swapped_pitches":[0,2,5,7,5,10,0,2,-2,7,5,0],"shift_direction":1,"question_num":141,"has_decoy":false},{"rt":1481.9000000059605,"stimulus":"[A] option 1, [L] option 2, [G] neither","key_press":76,"name":"choice","trial_type":"html-keyboard-response","trial_index":175,"time_elapsed":714899,"internal_node_id":"0.0-175.0","subject":"S1C1238","sona":"41853","block":5,"time":"2021-09-18T21:13:49.153Z","response":"2nd","certainty":"high","char":"L","transposition":-2,"order":["shifted","swapped"],"probe_pitches":[0,1,0,1,8,6,1,2,1,4,-1,7],"shifted_pitches":[0,1,0,1,8,5,1,2,1,4,-1,7],"swapped_pitches":[0,1,0,1,8,1,6,2,1,4,-1,7],"shift_direction":-1,"question_num":151,"has_decoy":false},{"rt":2767,"stimulus":"[A] option 1, [L] option 2, [G] neither","key_press":71,"name":"choice","trial_type":"html-keyboard-response","trial_index":186,"time_elapsed":735810,"internal_node_id":"0.0-186.0","subject":"S1C1238","sona":"41853","block":5,"time":"2021-09-18T21:13:49.153Z","response":"neither","certainty":"high","char":"G","transposition":-3,"order":["shifted","swapped"],"probe_pitches":[8,3,8,3,-2,3,1,-2,3,6,8,6],"shifted_pitches":[8,3,8,3,-2,3,0,-2,3,6,8,6],"swapped_pitches":[8,3,8,3,-2,1,3,-2,3,6,8,6],"shift_direction":-1,"question_num":161,"has_decoy":false},{"rt":1879.5,"stimulus":"[A] option 1, [L] option 2, [G] neither","key_press":71,"name":"choice","trial_type":"html-keyboard-response","trial_index":197,"time_elapsed":756251,"internal_node_id":"0.0-197.0","subject":"S1C1238","sona":"41853","block":5,"time":"2021-09-18T21:13:49.153Z","response":"neither","certainty":"high","char":"G","transposition":-2,"order":["swapped","shifted"],"probe_pitches":[10,5,7,10,5,10,3,5,0,-2,7,5],"shifted_pitches":[10,5,7,10,5,11,3,5,0,-2,7,5],"swapped_pitches":[10,5,7,10,5,3,10,5,0,-2,7,5],"shift_direction":1,"question_num":171,"has_decoy":false},{"rt":1604.4000000059605,"stimulus":"[A] option 1, [L] option 2, [G] neither","key_press":76,"name":"choice","trial_type":"html-keyboard-response","trial_index":208,"time_elapsed":776205,"internal_node_id":"0.0-208.0","subject":"S1C1238","sona":"41853","block":5,"time":"2021-09-18T21:13:49.153Z","response":"2nd","certainty":"high","char":"L","transposition":-1,"order":["swapped","shifted"],"probe_pitches":[5,0,-2,5,0,10,3,8,0,3,0,10],"shifted_pitches":[5,0,-2,5,0,10,4,8,0,3,0,10],"swapped_pitches":[5,0,-2,5,0,3,10,8,0,3,0,10],"shift_direction":1,"question_num":181,"has_decoy":false},{"rt":1453.7999999821186,"stimulus":"[A] option 1, [L] option 2, [G] neither","key_press":65,"name":"choice","trial_type":"html-keyboard-response","trial_index":219,"time_elapsed":795964,"internal_node_id":"0.0-219.0","subject":"S1C1238","sona":"41853","block":5,"time":"2021-09-18T21:13:49.153Z","response":"1st","certainty":"high","char":"A","transposition":0,"order":["shifted","swapped"],"probe_pitches":[0,5,-2,5,8,3,10,-2,8,3,5,0],"shifted_pitches":[0,5,-2,5,8,3,11,-2,8,3,5,0],"swapped_pitches":[0,5,-2,5,8,10,3,-2,8,3,5,0],"shift_direction":1,"question_num":191,"has_decoy":false}]