[{"rt":1312.5,"stimulus":"[A] option 1, [L] option 2, [G] neither","key_press":65,"name":"choice","trial_type":"html-keyboard-response","trial_index":10,"time_elapsed":20201,"internal_node_id":"0.0-10.0","subject":"S1C1238","sona":"41853","block":6,"time":"2021-09-18T21:29:53.115Z","response":"1st","certainty":"high","char":"A","transposition":-1,"order":["swapped","shifted"],"probe_pitches":[10,6,5,12,4,2,8,11,10,8,1,8],"shifted_pitches":[10,6,5,12,4,2,7,11,10,8,1,8],"swapped_pitches":[10,6,5,12,4,8,2,11,10,8,1,8],"shift_direction":-1,"question_num":1,"has_decoy":false},{"rt":12739.40000000596,"stimulus":"[A] option 1, [L] option 2, [G] neither","key_press":76,"name":"choice","trial_type":"html-keyboard-response","trial_index":21,"time_elapsed":51259,"internal_node_id":"0.0-21.0","subject":"S1C1238","sona":"41853","block":6,"time":"2021-09-18T21:29:53.115Z","response":"2nd","certainty":"high","char":"L","transposition":-1,"order":["swapped","shifted"],"probe_pitches":[-2,0,7,5,10,5,7,10,-2,5,-2,2],"shifted_pitches":[-2,0,7,5,10,6,7,10,-2,5,-2,2],"swapped_pitches":[-2,0,7,5,10,7,5,10,-2,5,-2,2],"shift_direction":1,"question_num":11,"has_decoy":false},{"rt":1065.8999999761581,"stimulus":"[A] option 1, [L] option 2, [G] neither","key_press":76,"name":"choice","trial_type":"html-keyboard-response","trial_index":32,"time_elapsed":70466,"internal_node_id":"0.0-32.0","subject":"S1C1238","sona":"41853","block":6,"time":"2021-09-18T21:29:53.115Z","response":"2nd","certainty":"high","char":"L","transposition":2,"order":["swapped","shifted"],"probe_pitches":[3,7,3,0,5,7,0,-2,5,0,5,10],"shifted_pitches":[3,7,3,0,5,7,1,-2,5,0,5,10],"swapped_pitches":[3,7,3,0,5,0,7,-2,5,0,5,10],"shift_direction":1,"question_num":21,"has_decoy":false},{"rt":28417.59999999404,"stimulus":"[A] option 1, [L] option 2, [G] neither","key_press":71,"name":"choice","trial_type":"html-keyboard-response","trial_index":43,"time_elapsed":117172,"internal_node_id":"0.0-43.0","subject":"S1C1238","sona":"41853","block":6,"time":"2021-09-18T21:29:53.115Z","response":"neither","certainty":"high","char":"G","transposition":2,"order":["shifted","swapped"],"probe_pitches":[1,0,6,11,10,8,3,0,2,10,1,5],"shifted_pitches":[1,0,6,11,10,8,4,0,2,10,1,5],"swapped_pitches":[1,0,6,11,10,3,8,0,2,10,1,5],"shift_direction":1,"question_num":31,"has_decoy":false},{"rt":4362.800000011921,"stimulus":"[A] option 1, [L] option 2, [G] neither","key_press":71,"name":"choice","trial_type":"html-keyboard-response","trial_index":54,"time_elapsed":140105,"internal_node_id":"0.0-54.0","subject":"S1C1238","sona":"41853","block":6,"time":"2021-09-18T21:29:53.115Z","response":"neither","certainty":"high","char":"G","transposition":-3,"order":["swapped","shifted"],"probe_pitches":[7,2,9,3,9,5,1,10,7,1,10,3],"shifted_pitches":[7,2,9,3,9,6,1,10,7,1,10,3],"swapped_pitches":[7,2,9,3,9,1,5,10,7,1,10,3],"shift_direction":1,"question_num":41,"has_decoy":false},{"rt":24997.5,"stimulus":"[A] option 1, [L] option 2, [G] neither","key_press":71,"name":"choice","trial_type":"html-keyboard-response","trial_index":65,"time_elapsed":184339,"internal_node_id":"0.0-65.0","subject":"S1C1238","sona":"41853","block":6,"time":"2021-09-18T21:29:53.115Z","response":"neither","certainty":"high","char":"G","transposition":-2,"order":["swapped","shifted"],"probe_pitches":[2,5,4,9,10,9,6,4,11,6,9,2],"shifted_pitches":[2,5,4,9,10,8,6,4,11,6,9,2],"swapped_pitches":[2,5,4,9,10,6,9,4,11,6,9,2],"shift_direction":-1,"question_num":51,"has_decoy":false},{"rt":10351.699999988079,"stimulus":"[A] option 1, [L] option 2, [G] neither","key_press":65,"name":"choice","trial_type":"html-keyboard-response","trial_index":76,"time_elapsed":213016,"internal_node_id":"0.0-76.0","subject":"S1C1238","sona":"41853","block":6,"time":"2021-09-18T21:29:53.115Z","response":"1st","certainty":"high","char":"A","transposition":3,"order":["shifted","swapped"],"probe_pitches":[-2,3,0,5,0,-2,7,5,3,5,3,0],"shifted_pitches":[-2,3,0,5,0,-2,6,5,3,5,3,0],"swapped_pitches":[-2,3,0,5,0,7,-2,5,3,5,3,0],"shift_direction":-1,"question_num":61,"has_decoy":false},{"rt":17945.09999999404,"stimulus":"[A] option 1, [L] option 2, [G] neither","key_press":71,"name":"choice","trial_type":"html-keyboard-response","trial_index":87,"time_elapsed":252721,"internal_node_id":"0.0-87.0","subject":"S1C1238","sona":"41853","block":6,"time":"2021-09-18T21:29:53.115Z","response":"neither","certainty":"high","char":"G","transposition":1,"order":["shifted","swapped"],"probe_pitches":[10,12,7,12,4,2,11,12,11,12,2,10],"shifted_pitches":[10,12,7,12,4,3,11,12,11,12,2,10],"swapped_pitches":[10,12,7,12,4,11,2,12,11,12,2,10],"shift_direction":1,"question_num":71,"has_decoy":false},{"rt":23838,"stimulus":"[A] option 1, [L] option 2, [G] neither","key_press":71,"name":"choice","trial_type":"html-keyboard-response","trial_index":98,"time_elapsed":300305,"internal_node_id":"0.0-98.0","subject":"S1C1238","sona":"41853","block":6,"time":"2021-09-18T21:29:53.115Z","response":"neither","certainty":"high","char":"G","transposition":0,"order":["shifted","swapped"],"probe_pitches":[5,0,6,11,12,3,8,1,3,12,7,4],"shifted_pitches":[5,0,6,11,12,2,8,1,3,12,7,4],"swapped_pitches":[5,0,6,11,12,8,3,1,3,12,7,4],"shift_direction":-1,"question_num":81,"has_decoy":false},{"rt":186287.59999999404,"stimulus":"[A] option 1, [L] option 2, [G] neither","key_press":71,"name":"choice","trial_type":"html-keyboard-response","trial_index":109,"time_elapsed":504777,"internal_node_id":"0.0-109.0","subject":"S1C1238","sona":"41853","block":6,"time":"2021-09-18T21:29:53.115Z","response":"neither","certainty":"high","char":"G","transposition":-3,"order":["swapped","shifted"],"probe_pitches":[8,10,5,3,-2,1,10,3,10,1,10,5],"shifted_pitches":[8,10,5,3,-2,2,10,3,10,1,10,5],"swapped_pitches":[8,10,5,3,-2,10,1,3,10,1,10,5],"shift_direction":1,"question_num":91,"has_decoy":false},{"rt":13573.700000017881,"stimulus":"[A] option 1, [L] option 2, [G] neither","key_press":76,"name":"choice","trial_type":"html-keyboard-response","trial_index":120,"time_elapsed":538968,"internal_node_id":"0.0-120.0","subject":"S1C1238","sona":"41853","block":6,"time":"2021-09-18T21:29:53.115Z","response":"2nd","certainty":"high","char":"L","transposition":-3,"order":["shifted","swapped"],"probe_pitches":[10,7,5,10,5,7,2,-2,0,7,10,2],"shifted_pitches":[10,7,5,10,5,6,2,-2,0,7,10,2],"swapped_pitches":[10,7,5,10,5,2,7,-2,0,7,10,2],"shift_direction":-1,"question_num":101,"has_decoy":false},{"rt":8451,"stimulus":"[A] option 1, [L] option 2, [G] neither","key_press":65,"name":"choice","trial_type":"html-keyboard-response","trial_index":131,"time_elapsed":565771,"internal_node_id":"0.0-131.0","subject":"S1C1238","sona":"41853","block":6,"time":"2021-09-18T21:29:53.115Z","response":"1st","certainty":"high","char":"A","transposition":-2,"order":["swapped","shifted"],"probe_pitches":[-2,3,10,3,8,6,1,10,-2,10,-2,10],"shifted_pitches":[-2,3,10,3,8,6,2,10,-2,10,-2,10],"swapped_pitches":[-2,3,10,3,8,1,6,10,-2,10,-2,10],"shift_direction":1,"question_num":111,"has_decoy":false},{"rt":1143.0999999940395,"stimulus":"[A] option 1, [L] option 2, [G] neither","key_press":76,"name":"choice","trial_type":"html-keyboard-response","trial_index":142,"time_elapsed":585306,"internal_node_id":"0.0-142.0","subject":"S1C1238","sona":"41853","block":6,"time":"2021-09-18T21:29:53.115Z","response":"2nd","certainty":"high","char":"L","transposition":-3,"order":["shifted","swapped"],"probe_pitches":[2,5,0,7,12,11,4,9,5,6,3,1],"shifted_pitches":[2,5,0,7,12,10,4,9,5,6,3,1],"swapped_pitches":[2,5,0,7,12,4,11,9,5,6,3,1],"shift_direction":-1,"question_num":121,"has_decoy":false},{"rt":6111,"stimulus":"[A] option 1, [L] option 2, [G] neither","key_press":71,"name":"choice","trial_type":"html-keyboard-response","trial_index":153,"time_elapsed":610194,"internal_node_id":"0.0-153.0","subject":"S1C1238","sona":"41853","block":6,"time":"2021-09-18T21:29:53.115Z","response":"neither","certainty":"high","char":"G","transposition":1,"order":["swapped","shifted"],"probe_pitches":[3,1,-2,6,3,10,1,3,1,10,8,1],"shifted_pitches":[3,1,-2,6,3,11,1,3,1,10,8,1],"swapped_pitches":[3,1,-2,6,3,1,10,3,1,10,8,1],"shift_direction":1,"question_num":131,"has_decoy":false},{"rt":2618.300000011921,"stimulus":"[A] option 1, [L] option 2, [G] neither","key_press":65,"name":"choice","trial_type":"html-keyboard-response","trial_index":164,"time_elapsed":631240,"internal_node_id":"0.0-164.0","subject":"S1C1238","sona":"41853","block":6,"time":"2021-09-18T21:29:53.115Z","response":"1st","certainty":"high","char":"A","transposition":3,"order":["swapped","shifted"],"probe_pitches":[4,3,1,7,1,6,8,11,8,12,5,7],"shifted_pitches":[4,3,1,7,1,6,9,11,8,12,5,7],"swapped_pitches":[4,3,1,7,1,8,6,11,8,12,5,7],"shift_direction":1,"question_num":141,"has_decoy":false},{"rt":46873.60000002384,"stimulus":"[A] option 1, [L] option 2, [G] neither","key_press":71,"name":"choice","trial_type":"html-keyboard-response","trial_index":175,"time_elapsed":697612,"internal_node_id":"0.0-175.0","subject":"S1C1238","sona":"41853","block":6,"time":"2021-09-18T21:29:53.115Z","response":"neither","certainty":"high","char":"G","transposition":0,"order":["shifted","swapped"],"probe_pitches":[10,8,5,8,10,3,1,10,1,8,10,8],"shifted_pitches":[10,8,5,8,10,3,0,10,1,8,10,8],"swapped_pitches":[10,8,5,8,10,1,3,10,1,8,10,8],"shift_direction":-1,"question_num":151,"has_decoy":false},{"rt":6737,"stimulus":"[A] option 1, [L] option 2, [G] neither","key_press":71,"name":"choice","trial_type":"html-keyboard-response","trial_index":186,"time_elapsed":899398,"internal_node_id":"0.0-186.0","subject":"S1C1238","sona":"41853","block":6,"time":"2021-09-18T21:29:53.115Z","response":"neither","certainty":"high","char":"G","transposition":-2,"order":["shifted","swapped"],"probe_pitches":[3,-2,0,8,5,10,3,5,8,0,3,0],"shifted_pitches":[3,-2,0,8,5,9,3,5,8,0,3,0],"swapped_pitches":[3,-2,0,8,5,3,10,5,8,0,3,0],"shift_direction":-1,"question_num":161,"has_decoy":false},{"rt":2283.300000011921,"stimulus":"[A] option 1, [L] option 2, [G] neither","key_press":71,"name":"choice","trial_type":"html-keyboard-response","trial_index":197,"time_elapsed":919759,"internal_node_id":"0.0-197.0","subject":"S1C1238","sona":"41853","block":6,"time":"2021-09-18T21:29:53.115Z","response":"neither","certainty":"high","char":"G","transposition":-1,"order":["shifted","swapped"],"probe_pitches":[3,-2,5,3,5,10,0,8,-2,10,8,5],"shifted_pitches":[3,-2,5,3,5,10,-1,8,-2,10,8,5],"swapped_pitches":[3,-2,5,3,5,0,10,8,-2,10,8,5],"shift_direction":-1,"question_num":171,"has_decoy":false},{"rt":2128.5999999940395,"stimulus":"[A] option 1, [L] option 2, [G] neither","key_press":76,"name":"choice","trial_type":"html-keyboard-response","trial_index":208,"time_elapsed":940356,"internal_node_id":"0.0-208.0","subject":"S1C1238","sona":"41853","block":6,"time":"2021-09-18T21:29:53.115Z","response":"2nd","certainty":"high","char":"L","transposition":-2,"order":["swapped","shifted"],"probe_pitches":[6,5,3,10,12,2,0,6,3,0,3,5],"shifted_pitches":[6,5,3,10,12,2,-1,6,3,0,3,5],"swapped_pitches":[6,5,3,10,12,0,2,6,3,0,3,5],"shift_direction":-1,"question_num":181,"has_decoy":false},{"rt":1508.800000011921,"stimulus":"[A] option 1, [L] option 2, [G] neither","key_press":65,"name":"choice","trial_type":"html-keyboard-response","trial_index":219,"time_elapsed":961048,"internal_node_id":"0.0-219.0","subject":"S1C1238","sona":"41853","block":6,"time":"2021-09-18T21:29:53.115Z","response":"1st","certainty":"high","char":"A","transposition":-1,"order":["shifted","swapped"],"probe_pitches":[2,7,4,2,9,7,4,12,2,1,9,4],"shifted_pitches":[2,7,4,2,9,7,5,12,2,1,9,4],"swapped_pitches":[2,7,4,2,9,4,7,12,2,1,9,4],"shift_direction":1,"question_num":191,"has_decoy":false}]