[{"rt":4221,"stimulus":"[A] option 1, [L] option 2, [G] neither","key_press":76,"name":"choice","trial_type":"html-keyboard-response","trial_index":10,"time_elapsed":28475,"internal_node_id":"0.0-10.0","subject":"S1C1238","sona":"41853","block":2,"time":"2021-09-18T20:23:14.436Z","response":"2nd","certainty":"high","char":"L","transposition":-2,"order":["shifted","swapped"],"probe_pitches":[3,-2,1,3,10,8,5,1,-2,8,10,5],"shifted_pitches":[3,-2,1,3,10,7,5,1,-2,8,10,5],"swapped_pitches":[3,-2,1,3,10,5,8,1,-2,8,10,5],"shift_direction":-1,"question_num":1,"has_decoy":false},{"rt":15372.59999999404,"stimulus":"[A] option 1, [L] option 2, [G] neither","key_press":71,"name":"choice","trial_type":"html-keyboard-response","trial_index":21,"time_elapsed":63631,"internal_node_id":"0.0-21.0","subject":"S1C1238","sona":"41853","block":2,"time":"2021-09-18T20:23:14.436Z","response":"neither","certainty":"high","char":"G","transposition":2,"order":["swapped","shifted"],"probe_pitches":[5,0,7,3,5,7,0,-2,7,3,7,10],"shifted_pitches":[5,0,7,3,5,8,0,-2,7,3,7,10],"swapped_pitches":[5,0,7,3,5,0,7,-2,7,3,7,10],"shift_direction":1,"question_num":11,"has_decoy":false},{"rt":1367.4000000059605,"stimulus":"[A] option 1, [L] option 2, [G] neither","key_press":71,"name":"choice","trial_type":"html-keyboard-response","trial_index":32,"time_elapsed":83892,"internal_node_id":"0.0-32.0","subject":"S1C1238","sona":"41853","block":2,"time":"2021-09-18T20:23:14.436Z","response":"neither","certainty":"high","char":"G","transposition":-3,"order":["swapped","shifted"],"probe_pitches":[0,-2,2,7,10,2,5,0,-2,2,0,7],"shifted_pitches":[0,-2,2,7,10,3,5,0,-2,2,0,7],"swapped_pitches":[0,-2,2,7,10,5,2,0,-2,2,0,7],"shift_direction":1,"question_num":21,"has_decoy":false},{"rt":1718.7000000178814,"stimulus":"[A] option 1, [L] option 2, [G] neither","key_press":76,"name":"choice","trial_type":"html-keyboard-response","trial_index":43,"time_elapsed":103721,"internal_node_id":"0.0-43.0","subject":"S1C1238","sona":"41853","block":2,"time":"2021-09-18T20:23:14.436Z","response":"2nd","certainty":"high","char":"L","transposition":-2,"order":["swapped","shifted"],"probe_pitches":[4,7,4,9,6,10,13,4,6,3,6,12],"shifted_pitches":[4,7,4,9,6,11,13,4,6,3,6,12],"swapped_pitches":[4,7,4,9,6,13,10,4,6,3,6,12],"shift_direction":1,"question_num":31,"has_decoy":false},{"rt":54985.59999999404,"stimulus":"[A] option 1, [L] option 2, [G] neither","key_press":76,"name":"choice","trial_type":"html-keyboard-response","trial_index":54,"time_elapsed":177290,"internal_node_id":"0.0-54.0","subject":"S1C1238","sona":"41853","block":2,"time":"2021-09-18T20:23:14.436Z","response":"2nd","certainty":"high","char":"L","transposition":3,"order":["shifted","swapped"],"probe_pitches":[10,7,10,7,2,5,0,2,7,0,-2,5],"shifted_pitches":[10,7,10,7,2,5,1,2,7,0,-2,5],"swapped_pitches":[10,7,10,7,2,0,5,2,7,0,-2,5],"shift_direction":1,"question_num":41,"has_decoy":false},{"rt":2820.5,"stimulus":"[A] option 1, [L] option 2, [G] neither","key_press":71,"name":"choice","trial_type":"html-keyboard-response","trial_index":65,"time_elapsed":200512,"internal_node_id":"0.0-65.0","subject":"S1C1238","sona":"41853","block":2,"time":"2021-09-18T20:23:14.436Z","response":"neither","certainty":"high","char":"G","transposition":-2,"order":["swapped","shifted"],"probe_pitches":[10,15,12,6,5,8,10,4,8,11,8,14],"shifted_pitches":[10,15,12,6,5,7,10,4,8,11,8,14],"swapped_pitches":[10,15,12,6,5,10,8,4,8,11,8,14],"shift_direction":-1,"question_num":51,"has_decoy":false},{"rt":2383.5999999940395,"stimulus":"[A] option 1, [L] option 2, [G] neither","key_press":76,"name":"choice","trial_type":"html-keyboard-response","trial_index":76,"time_elapsed":221135,"internal_node_id":"0.0-76.0","subject":"S1C1238","sona":"41853","block":2,"time":"2021-09-18T20:23:14.436Z","response":"2nd","certainty":"high","char":"L","transposition":-1,"order":["shifted","swapped"],"probe_pitches":[14,13,15,8,14,15,11,5,3,15,4,5],"shifted_pitches":[14,13,15,8,14,15,10,5,3,15,4,5],"swapped_pitches":[14,13,15,8,14,11,15,5,3,15,4,5],"shift_direction":-1,"question_num":61,"has_decoy":false},{"rt":1893.5999999940395,"stimulus":"[A] option 1, [L] option 2, [G] neither","key_press":71,"name":"choice","trial_type":"html-keyboard-response","trial_index":87,"time_elapsed":241605,"internal_node_id":"0.0-87.0","subject":"S1C1238","sona":"41853","block":2,"time":"2021-09-18T20:23:14.436Z","response":"neither","certainty":"high","char":"G","transposition":-3,"order":["swapped","shifted"],"probe_pitches":[11,7,5,3,10,12,7,15,4,11,3,9],"shifted_pitches":[11,7,5,3,10,13,7,15,4,11,3,9],"swapped_pitches":[11,7,5,3,10,7,12,15,4,11,3,9],"shift_direction":1,"question_num":71,"has_decoy":false},{"rt":2833.4000000059605,"stimulus":"[A] option 1, [L] option 2, [G] neither","key_press":71,"name":"choice","trial_type":"html-keyboard-response","trial_index":98,"time_elapsed":262822,"internal_node_id":"0.0-98.0","subject":"S1C1238","sona":"41853","block":2,"time":"2021-09-18T20:23:14.436Z","response":"neither","certainty":"high","char":"G","transposition":0,"order":["shifted","swapped"],"probe_pitches":[8,6,1,-2,3,8,-2,10,1,-2,10,3],"shifted_pitches":[8,6,1,-2,3,8,-3,10,1,-2,10,3],"swapped_pitches":[8,6,1,-2,3,-2,8,10,1,-2,10,3],"shift_direction":-1,"question_num":81,"has_decoy":false},{"rt":3483.7000000178814,"stimulus":"[A] option 1, [L] option 2, [G] neither","key_press":71,"name":"choice","trial_type":"html-keyboard-response","trial_index":109,"time_elapsed":286853,"internal_node_id":"0.0-109.0","subject":"S1C1238","sona":"41853","block":2,"time":"2021-09-18T20:23:14.436Z","response":"neither","certainty":"high","char":"G","transposition":-1,"order":["shifted","swapped"],"probe_pitches":[3,5,3,10,15,10,8,4,8,12,10,7],"shifted_pitches":[3,5,3,10,15,10,9,4,8,12,10,7],"swapped_pitches":[3,5,3,10,15,8,10,4,8,12,10,7],"shift_direction":1,"question_num":91,"has_decoy":false},{"rt":1152.5,"stimulus":"[A] option 1, [L] option 2, [G] neither","key_press":76,"name":"choice","trial_type":"html-keyboard-response","trial_index":120,"time_elapsed":306409,"internal_node_id":"0.0-120.0","subject":"S1C1238","sona":"41853","block":2,"time":"2021-09-18T20:23:14.436Z","response":"2nd","certainty":"high","char":"L","transposition":1,"order":["swapped","shifted"],"probe_pitches":[14,12,8,10,9,10,4,12,11,4,8,6],"shifted_pitches":[14,12,8,10,9,10,5,12,11,4,8,6],"swapped_pitches":[14,12,8,10,9,4,10,12,11,4,8,6],"shift_direction":1,"question_num":101,"has_decoy":false},{"rt":84177,"stimulus":"[A] option 1, [L] option 2, [G] neither","key_press":71,"name":"choice","trial_type":"html-keyboard-response","trial_index":131,"time_elapsed":408738,"internal_node_id":"0.0-131.0","subject":"S1C1238","sona":"41853","block":2,"time":"2021-09-18T20:23:14.436Z","response":"neither","certainty":"high","char":"G","transposition":-3,"order":["shifted","swapped"],"probe_pitches":[3,8,3,6,9,11,13,14,8,13,8,14],"shifted_pitches":[3,8,3,6,9,11,12,14,8,13,8,14],"swapped_pitches":[3,8,3,6,9,13,11,14,8,13,8,14],"shift_direction":-1,"question_num":111,"has_decoy":false},{"rt":1028.5,"stimulus":"[A] option 1, [L] option 2, [G] neither","key_press":65,"name":"choice","trial_type":"html-keyboard-response","trial_index":142,"time_elapsed":427868,"internal_node_id":"0.0-142.0","subject":"S1C1238","sona":"41853","block":2,"time":"2021-09-18T20:23:14.436Z","response":"1st","certainty":"high","char":"A","transposition":-1,"order":["shifted","swapped"],"probe_pitches":[10,5,3,1,10,1,5,-2,8,10,8,10],"shifted_pitches":[10,5,3,1,10,2,5,-2,8,10,8,10],"swapped_pitches":[10,5,3,1,10,5,1,-2,8,10,8,10],"shift_direction":1,"question_num":121,"has_decoy":false},{"rt":1172,"stimulus":"[A] option 1, [L] option 2, [G] neither","key_press":76,"name":"choice","trial_type":"html-keyboard-response","trial_index":153,"time_elapsed":447105,"internal_node_id":"0.0-153.0","subject":"S1C1238","sona":"41853","block":2,"time":"2021-09-18T20:23:14.436Z","response":"2nd","certainty":"high","char":"L","transposition":-1,"order":["swapped","shifted"],"probe_pitches":[-2,1,-2,3,-2,6,3,1,10,8,6,-2],"shifted_pitches":[-2,1,-2,3,-2,6,2,1,10,8,6,-2],"swapped_pitches":[-2,1,-2,3,-2,3,6,1,10,8,6,-2],"shift_direction":-1,"question_num":131,"has_decoy":false},{"rt":760.1999999880791,"stimulus":"[A] option 1, [L] option 2, [G] neither","key_press":76,"name":"choice","trial_type":"html-keyboard-response","trial_index":164,"time_elapsed":466608,"internal_node_id":"0.0-164.0","subject":"S1C1238","sona":"41853","block":2,"time":"2021-09-18T20:23:14.436Z","response":"2nd","certainty":"high","char":"L","transposition":1,"order":["swapped","shifted"],"probe_pitches":[3,0,-2,5,0,-2,5,0,3,-2,0,8],"shifted_pitches":[3,0,-2,5,0,-3,5,0,3,-2,0,8],"swapped_pitches":[3,0,-2,5,0,5,-2,0,3,-2,0,8],"shift_direction":-1,"question_num":141,"has_decoy":false},{"rt":1271.5999999940395,"stimulus":"[A] option 1, [L] option 2, [G] neither","key_press":71,"name":"choice","trial_type":"html-keyboard-response","trial_index":175,"time_elapsed":485919,"internal_node_id":"0.0-175.0","subject":"S1C1238","sona":"41853","block":2,"time":"2021-09-18T20:23:14.436Z","response":"neither","certainty":"high","char":"G","transposition":3,"order":["shifted","swapped"],"probe_pitches":[8,4,7,8,9,5,7,8,14,15,4,14],"shifted_pitches":[8,4,7,8,9,6,7,8,14,15,4,14],"swapped_pitches":[8,4,7,8,9,7,5,8,14,15,4,14],"shift_direction":1,"question_num":151,"has_decoy":false},{"rt":903.1999999880791,"stimulus":"[A] option 1, [L] option 2, [G] neither","key_press":76,"name":"choice","trial_type":"html-keyboard-response","trial_index":186,"time_elapsed":505748,"internal_node_id":"0.0-186.0","subject":"S1C1238","sona":"41853","block":2,"time":"2021-09-18T20:23:14.436Z","response":"2nd","certainty":"high","char":"L","transposition":-3,"order":["swapped","shifted"],"probe_pitches":[3,5,8,0,-2,0,10,3,0,3,10,8],"shifted_pitches":[3,5,8,0,-2,0,11,3,0,3,10,8],"swapped_pitches":[3,5,8,0,-2,10,0,3,0,3,10,8],"shift_direction":1,"question_num":161,"has_decoy":false},{"rt":1966.199999988079,"stimulus":"[A] option 1, [L] option 2, [G] neither","key_press":71,"name":"choice","trial_type":"html-keyboard-response","trial_index":197,"time_elapsed":526523,"internal_node_id":"0.0-197.0","subject":"S1C1238","sona":"41853","block":2,"time":"2021-09-18T20:23:14.436Z","response":"neither","certainty":"high","char":"G","transposition":0,"order":["shifted","swapped"],"probe_pitches":[3,7,14,6,14,9,13,6,11,9,5,13],"shifted_pitches":[3,7,14,6,14,8,13,6,11,9,5,13],"swapped_pitches":[3,7,14,6,14,13,9,6,11,9,5,13],"shift_direction":-1,"question_num":171,"has_decoy":false},{"rt":1755.9000000059605,"stimulus":"[A] option 1, [L] option 2, [G] neither","key_press":71,"name":"choice","trial_type":"html-keyboard-response","trial_index":208,"time_elapsed":546398,"internal_node_id":"0.0-208.0","subject":"S1C1238","sona":"41853","block":2,"time":"2021-09-18T20:23:14.436Z","response":"neither","certainty":"high","char":"G","transposition":2,"order":["swapped","shifted"],"probe_pitches":[6,10,7,15,10,13,15,4,12,4,7,13],"shifted_pitches":[6,10,7,15,10,13,14,4,12,4,7,13],"swapped_pitches":[6,10,7,15,10,15,13,4,12,4,7,13],"shift_direction":-1,"question_num":181,"has_decoy":false},{"rt":1349.6000000238419,"stimulus":"[A] option 1, [L] option 2, [G] neither","key_press":65,"name":"choice","trial_type":"html-keyboard-response","trial_index":219,"time_elapsed":565960,"internal_node_id":"0.0-219.0","subject":"S1C1238","sona":"41853","block":2,"time":"2021-09-18T20:23:14.436Z","response":"1st","certainty":"high","char":"A","transposition":-2,"order":["shifted","swapped"],"probe_pitches":[0,5,-2,0,7,0,5,3,5,3,-2,3],"shifted_pitches":[0,5,-2,0,7,0,4,3,5,3,-2,3],"swapped_pitches":[0,5,-2,0,7,5,0,3,5,3,-2,3],"shift_direction":-1,"question_num":191,"has_decoy":false}]