[{"rt":266.30000001192093,"stimulus":"[A] option 1, [L] option 2, [G] neither","key_press":65,"name":"choice","trial_type":"html-keyboard-response","trial_index":10,"time_elapsed":19191,"internal_node_id":"0.0-10.0","subject":"S1C1238","sona":"41853","block":4,"time":"2021-09-18T21:00:30.035Z","response":"1st","certainty":"high","char":"A","transposition":-1,"order":["shifted","swapped"],"probe_pitches":[2,6,2,4,9,-1,2,6,2,4,6,9],"shifted_pitches":[2,6,2,4,9,-2,2,6,2,4,6,9],"swapped_pitches":[2,6,2,4,9,2,-1,6,2,4,6,9],"shift_direction":-1,"question_num":1,"has_decoy":false},{"rt":1979.1000000238419,"stimulus":"[A] option 1, [L] option 2, [G] neither","key_press":76,"name":"choice","trial_type":"html-keyboard-response","trial_index":21,"time_elapsed":39554,"internal_node_id":"0.0-21.0","subject":"S1C1238","sona":"41853","block":4,"time":"2021-09-18T21:00:30.035Z","response":"2nd","certainty":"high","char":"L","transposition":2,"order":["swapped","shifted"],"probe_pitches":[6,8,4,1,4,-1,8,4,1,4,-1,8],"shifted_pitches":[6,8,4,1,4,-1,7,4,1,4,-1,8],"swapped_pitches":[6,8,4,1,4,8,-1,4,1,4,-1,8],"shift_direction":-1,"question_num":11,"has_decoy":false},{"rt":351.40000000596046,"stimulus":"[A] option 1, [L] option 2, [G] neither","key_press":76,"name":"choice","trial_type":"html-keyboard-response","trial_index":32,"time_elapsed":62918,"internal_node_id":"0.0-32.0","subject":"S1C1238","sona":"41853","block":4,"time":"2021-09-18T21:00:30.035Z","response":"2nd","certainty":"high","char":"L","transposition":3,"order":["swapped","shifted"],"probe_pitches":[-1,4,9,4,11,6,1,11,-1,9,-1,1],"shifted_pitches":[-1,4,9,4,11,7,1,11,-1,9,-1,1],"swapped_pitches":[-1,4,9,4,11,1,6,11,-1,9,-1,1],"shift_direction":1,"question_num":21,"has_decoy":false},{"rt":5768,"stimulus":"[A] option 1, [L] option 2, [G] neither","key_press":76,"name":"choice","trial_type":"html-keyboard-response","trial_index":43,"time_elapsed":87929,"internal_node_id":"0.0-43.0","subject":"S1C1238","sona":"41853","block":4,"time":"2021-09-18T21:00:30.035Z","response":"2nd","certainty":"high","char":"L","transposition":-1,"order":["swapped","shifted"],"probe_pitches":[2,-1,6,1,5,0,7,2,10,4,5,2],"shifted_pitches":[2,-1,6,1,5,0,8,2,10,4,5,2],"swapped_pitches":[2,-1,6,1,5,7,0,2,10,4,5,2],"shift_direction":1,"question_num":31,"has_decoy":false},{"rt":2529.5999999940395,"stimulus":"[A] option 1, [L] option 2, [G] neither","key_press":76,"name":"choice","trial_type":"html-keyboard-response","trial_index":54,"time_elapsed":108584,"internal_node_id":"0.0-54.0","subject":"S1C1238","sona":"41853","block":4,"time":"2021-09-18T21:00:30.035Z","response":"2nd","certainty":"high","char":"L","transposition":3,"order":["shifted","swapped"],"probe_pitches":[0,2,7,-1,5,11,4,3,0,8,0,8],"shifted_pitches":[0,2,7,-1,5,10,4,3,0,8,0,8],"swapped_pitches":[0,2,7,-1,5,4,11,3,0,8,0,8],"shift_direction":-1,"question_num":41,"has_decoy":false},{"rt":3531.199999988079,"stimulus":"[A] option 1, [L] option 2, [G] neither","key_press":65,"name":"choice","trial_type":"html-keyboard-response","trial_index":65,"time_elapsed":130242,"internal_node_id":"0.0-65.0","subject":"S1C1238","sona":"41853","block":4,"time":"2021-09-18T21:00:30.035Z","response":"1st","certainty":"high","char":"A","transposition":-3,"order":["shifted","swapped"],"probe_pitches":[0,2,-1,6,9,-1,6,1,4,0,4,9],"shifted_pitches":[0,2,-1,6,9,-1,5,1,4,0,4,9],"swapped_pitches":[0,2,-1,6,9,6,-1,1,4,0,4,9],"shift_direction":-1,"question_num":51,"has_decoy":false},{"rt":240.5,"stimulus":"[A] option 1, [L] option 2, [G] neither","key_press":65,"name":"choice","trial_type":"html-keyboard-response","trial_index":76,"time_elapsed":150855,"internal_node_id":"0.0-76.0","subject":"S1C1238","sona":"41853","block":4,"time":"2021-09-18T21:00:30.035Z","response":"1st","certainty":"high","char":"A","transposition":1,"order":["shifted","swapped"],"probe_pitches":[4,9,6,9,11,4,2,-1,6,9,2,9],"shifted_pitches":[4,9,6,9,11,3,2,-1,6,9,2,9],"swapped_pitches":[4,9,6,9,11,2,4,-1,6,9,2,9],"shift_direction":-1,"question_num":61,"has_decoy":false},{"rt":616.3000000119209,"stimulus":"[A] option 1, [L] option 2, [G] neither","key_press":65,"name":"choice","trial_type":"html-keyboard-response","trial_index":87,"time_elapsed":170474,"internal_node_id":"0.0-87.0","subject":"S1C1238","sona":"41853","block":4,"time":"2021-09-18T21:00:30.035Z","response":"1st","certainty":"high","char":"A","transposition":-1,"order":["shifted","swapped"],"probe_pitches":[1,-1,6,8,11,6,4,-1,11,8,1,11],"shifted_pitches":[1,-1,6,8,11,6,5,-1,11,8,1,11],"swapped_pitches":[1,-1,6,8,11,4,6,-1,11,8,1,11],"shift_direction":1,"question_num":71,"has_decoy":false},{"rt":5826.299999982119,"stimulus":"[A] option 1, [L] option 2, [G] neither","key_press":71,"name":"choice","trial_type":"html-keyboard-response","trial_index":98,"time_elapsed":194687,"internal_node_id":"0.0-98.0","subject":"S1C1238","sona":"41853","block":4,"time":"2021-09-18T21:00:30.035Z","response":"neither","certainty":"high","char":"G","transposition":-3,"order":["swapped","shifted"],"probe_pitches":[8,11,8,9,5,7,8,0,2,0,1,2],"shifted_pitches":[8,11,8,9,5,6,8,0,2,0,1,2],"swapped_pitches":[8,11,8,9,5,8,7,0,2,0,1,2],"shift_direction":-1,"question_num":81,"has_decoy":false},{"rt":63524.09999999404,"stimulus":"[A] option 1, [L] option 2, [G] neither","key_press":71,"name":"choice","trial_type":"html-keyboard-response","trial_index":109,"time_elapsed":276255,"internal_node_id":"0.0-109.0","subject":"S1C1238","sona":"41853","block":4,"time":"2021-09-18T21:00:30.035Z","response":"neither","certainty":"high","char":"G","transposition":0,"order":["shifted","swapped"],"probe_pitches":[3,8,1,8,-1,3,8,11,3,11,1,6],"shifted_pitches":[3,8,1,8,-1,3,9,11,3,11,1,6],"swapped_pitches":[3,8,1,8,-1,8,3,11,3,11,1,6],"shift_direction":1,"question_num":91,"has_decoy":false},{"rt":4648.5999999940395,"stimulus":"[A] option 1, [L] option 2, [G] neither","key_press":71,"name":"choice","trial_type":"html-keyboard-response","trial_index":120,"time_elapsed":299095,"internal_node_id":"0.0-120.0","subject":"S1C1238","sona":"41853","block":4,"time":"2021-09-18T21:00:30.035Z","response":"neither","certainty":"high","char":"G","transposition":-2,"order":["swapped","shifted"],"probe_pitches":[7,2,7,2,4,9,2,-1,7,-1,7,11],"shifted_pitches":[7,2,7,2,4,9,1,-1,7,-1,7,11],"swapped_pitches":[7,2,7,2,4,2,9,-1,7,-1,7,11],"shift_direction":-1,"question_num":101,"has_decoy":false},{"rt":507.59999999403954,"stimulus":"[A] option 1, [L] option 2, [G] neither","key_press":65,"name":"choice","trial_type":"html-keyboard-response","trial_index":131,"time_elapsed":317674,"internal_node_id":"0.0-131.0","subject":"S1C1238","sona":"41853","block":4,"time":"2021-09-18T21:00:30.035Z","response":"1st","certainty":"high","char":"A","transposition":-2,"order":["shifted","swapped"],"probe_pitches":[9,7,4,11,9,2,11,9,-1,2,7,11],"shifted_pitches":[9,7,4,11,9,2,12,9,-1,2,7,11],"swapped_pitches":[9,7,4,11,9,11,2,9,-1,2,7,11],"shift_direction":1,"question_num":111,"has_decoy":false},{"rt":973.6999999880791,"stimulus":"[A] option 1, [L] option 2, [G] neither","key_press":71,"name":"choice","trial_type":"html-keyboard-response","trial_index":142,"time_elapsed":337004,"internal_node_id":"0.0-142.0","subject":"S1C1238","sona":"41853","block":4,"time":"2021-09-18T21:00:30.035Z","response":"neither","certainty":"high","char":"G","transposition":-3,"order":["swapped","shifted"],"probe_pitches":[1,-1,6,11,9,-1,4,11,-1,4,1,-1],"shifted_pitches":[1,-1,6,11,9,-2,4,11,-1,4,1,-1],"swapped_pitches":[1,-1,6,11,9,4,-1,11,-1,4,1,-1],"shift_direction":-1,"question_num":121,"has_decoy":false},{"rt":234.5,"stimulus":"[A] option 1, [L] option 2, [G] neither","key_press":76,"name":"choice","trial_type":"html-keyboard-response","trial_index":153,"time_elapsed":355449,"internal_node_id":"0.0-153.0","subject":"S1C1238","sona":"41853","block":4,"time":"2021-09-18T21:00:30.035Z","response":"2nd","certainty":"high","char":"L","transposition":-3,"order":["swapped","shifted"],"probe_pitches":[1,3,-1,3,8,11,6,-1,1,6,1,3],"shifted_pitches":[1,3,-1,3,8,12,6,-1,1,6,1,3],"swapped_pitches":[1,3,-1,3,8,6,11,-1,1,6,1,3],"shift_direction":1,"question_num":131,"has_decoy":false},{"rt":6186.300000011921,"stimulus":"[A] option 1, [L] option 2, [G] neither","key_press":71,"name":"choice","trial_type":"html-keyboard-response","trial_index":164,"time_elapsed":379683,"internal_node_id":"0.0-164.0","subject":"S1C1238","sona":"41853","block":4,"time":"2021-09-18T21:00:30.035Z","response":"neither","certainty":"high","char":"G","transposition":-2,"order":["shifted","swapped"],"probe_pitches":[11,6,4,9,3,6,-1,8,-1,1,-1,0],"shifted_pitches":[11,6,4,9,3,7,-1,8,-1,1,-1,0],"swapped_pitches":[11,6,4,9,3,-1,6,8,-1,1,-1,0],"shift_direction":1,"question_num":141,"has_decoy":false},{"rt":999.3000000119209,"stimulus":"[A] option 1, [L] option 2, [G] neither","key_press":71,"name":"choice","trial_type":"html-keyboard-response","trial_index":175,"time_elapsed":398795,"internal_node_id":"0.0-175.0","subject":"S1C1238","sona":"41853","block":4,"time":"2021-09-18T21:00:30.035Z","response":"neither","certainty":"high","char":"G","transposition":-1,"order":["swapped","shifted"],"probe_pitches":[1,4,10,4,9,7,4,1,4,10,5,9],"shifted_pitches":[1,4,10,4,9,7,3,1,4,10,5,9],"swapped_pitches":[1,4,10,4,9,4,7,1,4,10,5,9],"shift_direction":-1,"question_num":151,"has_decoy":false},{"rt":5428.5,"stimulus":"[A] option 1, [L] option 2, [G] neither","key_press":71,"name":"choice","trial_type":"html-keyboard-response","trial_index":186,"time_elapsed":422467,"internal_node_id":"0.0-186.0","subject":"S1C1238","sona":"41853","block":4,"time":"2021-09-18T21:00:30.035Z","response":"neither","certainty":"high","char":"G","transposition":-2,"order":["swapped","shifted"],"probe_pitches":[1,-1,0,5,1,3,0,-1,7,10,1,10],"shifted_pitches":[1,-1,0,5,1,4,0,-1,7,10,1,10],"swapped_pitches":[1,-1,0,5,1,0,3,-1,7,10,1,10],"shift_direction":1,"question_num":161,"has_decoy":false},{"rt":6882.100000023842,"stimulus":"[A] option 1, [L] option 2, [G] neither","key_press":71,"name":"choice","trial_type":"html-keyboard-response","trial_index":197,"time_elapsed":448475,"internal_node_id":"0.0-197.0","subject":"S1C1238","sona":"41853","block":4,"time":"2021-09-18T21:00:30.035Z","response":"neither","certainty":"high","char":"G","transposition":2,"order":["swapped","shifted"],"probe_pitches":[1,5,10,11,5,4,8,7,2,-1,0,4],"shifted_pitches":[1,5,10,11,5,4,9,7,2,-1,0,4],"swapped_pitches":[1,5,10,11,5,8,4,7,2,-1,0,4],"shift_direction":1,"question_num":171,"has_decoy":false},{"rt":2550.699999988079,"stimulus":"[A] option 1, [L] option 2, [G] neither","key_press":71,"name":"choice","trial_type":"html-keyboard-response","trial_index":208,"time_elapsed":469093,"internal_node_id":"0.0-208.0","subject":"S1C1238","sona":"41853","block":4,"time":"2021-09-18T21:00:30.035Z","response":"neither","certainty":"high","char":"G","transposition":0,"order":["shifted","swapped"],"probe_pitches":[10,8,1,-1,3,1,4,11,3,1,-1,7],"shifted_pitches":[10,8,1,-1,3,2,4,11,3,1,-1,7],"swapped_pitches":[10,8,1,-1,3,4,1,11,3,1,-1,7],"shift_direction":1,"question_num":181,"has_decoy":false},{"rt":3629.5,"stimulus":"[A] option 1, [L] option 2, [G] neither","key_press":71,"name":"choice","trial_type":"html-keyboard-response","trial_index":219,"time_elapsed":491095,"internal_node_id":"0.0-219.0","subject":"S1C1238","sona":"41853","block":4,"time":"2021-09-18T21:00:30.035Z","response":"neither","certainty":"high","char":"G","transposition":1,"order":["shifted","swapped"],"probe_pitches":[6,0,-1,7,-1,6,2,11,2,7,0,7],"shifted_pitches":[6,0,-1,7,-1,6,1,11,2,7,0,7],"swapped_pitches":[6,0,-1,7,-1,2,6,11,2,7,0,7],"shift_direction":-1,"question_num":191,"has_decoy":false}]