[{"rt":1011.4000000059605,"stimulus":"[A] option 1, [L] option 2, [G] neither","key_press":76,"name":"choice","trial_type":"html-keyboard-response","trial_index":10,"time_elapsed":44955,"internal_node_id":"0.0-10.0","subject":"S1C1238","sona":"41853","block":3,"time":"2021-09-18T20:52:15.114Z","response":"2nd","certainty":"high","char":"L","transposition":0,"order":["swapped","shifted"],"probe_pitches":[2,3,1,4,5,-1,4,6,9,10,4,9],"shifted_pitches":[2,3,1,4,5,0,4,6,9,10,4,9],"swapped_pitches":[2,3,1,4,5,4,-1,6,9,10,4,9],"shift_direction":1,"question_num":1,"has_decoy":false},{"rt":1182,"stimulus":"[A] option 1, [L] option 2, [G] neither","key_press":76,"name":"choice","trial_type":"html-keyboard-response","trial_index":21,"time_elapsed":64182,"internal_node_id":"0.0-21.0","subject":"S1C1238","sona":"41853","block":3,"time":"2021-09-18T20:52:15.114Z","response":"2nd","certainty":"high","char":"L","transposition":-1,"order":["shifted","swapped"],"probe_pitches":[4,6,9,1,-1,6,9,4,1,4,9,11],"shifted_pitches":[4,6,9,1,-1,6,10,4,1,4,9,11],"swapped_pitches":[4,6,9,1,-1,9,6,4,1,4,9,11],"shift_direction":1,"question_num":11,"has_decoy":false},{"rt":2536.0999999940395,"stimulus":"[A] option 1, [L] option 2, [G] neither","key_press":65,"name":"choice","trial_type":"html-keyboard-response","trial_index":32,"time_elapsed":84800,"internal_node_id":"0.0-32.0","subject":"S1C1238","sona":"41853","block":3,"time":"2021-09-18T20:52:15.114Z","response":"1st","certainty":"high","char":"A","transposition":3,"order":["swapped","shifted"],"probe_pitches":[11,6,8,4,8,11,1,-1,11,1,11,1],"shifted_pitches":[11,6,8,4,8,10,1,-1,11,1,11,1],"swapped_pitches":[11,6,8,4,8,1,11,-1,11,1,11,1],"shift_direction":-1,"question_num":21,"has_decoy":false},{"rt":1817.5,"stimulus":"[A] option 1, [L] option 2, [G] neither","key_press":71,"name":"choice","trial_type":"html-keyboard-response","trial_index":43,"time_elapsed":105319,"internal_node_id":"0.0-43.0","subject":"S1C1238","sona":"41853","block":3,"time":"2021-09-18T20:52:15.114Z","response":"neither","certainty":"high","char":"G","transposition":1,"order":["swapped","shifted"],"probe_pitches":[8,11,4,6,11,4,-1,8,1,4,6,1],"shifted_pitches":[8,11,4,6,11,4,0,8,1,4,6,1],"swapped_pitches":[8,11,4,6,11,-1,4,8,1,4,6,1],"shift_direction":1,"question_num":31,"has_decoy":false},{"rt":1019.5999999940395,"stimulus":"[A] option 1, [L] option 2, [G] neither","key_press":65,"name":"choice","trial_type":"html-keyboard-response","trial_index":54,"time_elapsed":124520,"internal_node_id":"0.0-54.0","subject":"S1C1238","sona":"41853","block":3,"time":"2021-09-18T20:52:15.114Z","response":"1st","certainty":"high","char":"A","transposition":0,"order":["shifted","swapped"],"probe_pitches":[-1,2,-1,6,11,9,4,11,6,4,11,-1],"shifted_pitches":[-1,2,-1,6,11,10,4,11,6,4,11,-1],"swapped_pitches":[-1,2,-1,6,11,4,9,11,6,4,11,-1],"shift_direction":1,"question_num":41,"has_decoy":false},{"rt":3963.7999999821186,"stimulus":"[A] option 1, [L] option 2, [G] neither","key_press":71,"name":"choice","trial_type":"html-keyboard-response","trial_index":65,"time_elapsed":148568,"internal_node_id":"0.0-65.0","subject":"S1C1238","sona":"41853","block":3,"time":"2021-09-18T20:52:15.114Z","response":"neither","certainty":"high","char":"G","transposition":-1,"order":["swapped","shifted"],"probe_pitches":[7,10,7,10,2,-2,7,0,10,5,1,-2],"shifted_pitches":[7,10,7,10,2,-2,8,0,10,5,1,-2],"swapped_pitches":[7,10,7,10,2,7,-2,0,10,5,1,-2],"shift_direction":1,"question_num":51,"has_decoy":false},{"rt":8446.600000023842,"stimulus":"[A] option 1, [L] option 2, [G] neither","key_press":76,"name":"choice","trial_type":"html-keyboard-response","trial_index":76,"time_elapsed":458313,"internal_node_id":"0.0-76.0","subject":"S1C1238","sona":"41853","block":3,"time":"2021-09-18T20:52:15.114Z","response":"2nd","certainty":"high","char":"L","transposition":-1,"order":["shifted","swapped"],"probe_pitches":[-2,3,8,3,1,0,3,9,3,8,7,0],"shifted_pitches":[-2,3,8,3,1,0,2,9,3,8,7,0],"swapped_pitches":[-2,3,8,3,1,3,0,9,3,8,7,0],"shift_direction":-1,"question_num":61,"has_decoy":false},{"rt":1378.2000000178814,"stimulus":"[A] option 1, [L] option 2, [G] neither","key_press":65,"name":"choice","trial_type":"html-keyboard-response","trial_index":87,"time_elapsed":480498,"internal_node_id":"0.0-87.0","subject":"S1C1238","sona":"41853","block":3,"time":"2021-09-18T20:52:15.114Z","response":"1st","certainty":"high","char":"A","transposition":-1,"order":["shifted","swapped"],"probe_pitches":[3,1,8,11,3,11,1,6,11,3,8,1],"shifted_pitches":[3,1,8,11,3,11,0,6,11,3,8,1],"swapped_pitches":[3,1,8,11,3,1,11,6,11,3,8,1],"shift_direction":-1,"question_num":71,"has_decoy":false},{"rt":1787.5,"stimulus":"[A] option 1, [L] option 2, [G] neither","key_press":71,"name":"choice","trial_type":"html-keyboard-response","trial_index":98,"time_elapsed":500411,"internal_node_id":"0.0-98.0","subject":"S1C1238","sona":"41853","block":3,"time":"2021-09-18T20:52:15.114Z","response":"neither","certainty":"high","char":"G","transposition":1,"order":["shifted","swapped"],"probe_pitches":[7,2,-2,3,6,4,1,10,-2,3,-1,1],"shifted_pitches":[7,2,-2,3,6,5,1,10,-2,3,-1,1],"swapped_pitches":[7,2,-2,3,6,1,4,10,-2,3,-1,1],"shift_direction":1,"question_num":81,"has_decoy":false},{"rt":16751,"stimulus":"[A] option 1, [L] option 2, [G] neither","key_press":76,"name":"choice","trial_type":"html-keyboard-response","trial_index":109,"time_elapsed":535326,"internal_node_id":"0.0-109.0","subject":"S1C1238","sona":"41853","block":3,"time":"2021-09-18T20:52:15.114Z","response":"2nd","certainty":"high","char":"L","transposition":2,"order":["shifted","swapped"],"probe_pitches":[-1,2,9,4,7,-1,9,7,2,9,4,2],"shifted_pitches":[-1,2,9,4,7,-2,9,7,2,9,4,2],"swapped_pitches":[-1,2,9,4,7,9,-1,7,2,9,4,2],"shift_direction":-1,"question_num":91,"has_decoy":false},{"rt":3646.9000000059605,"stimulus":"[A] option 1, [L] option 2, [G] neither","key_press":71,"name":"choice","trial_type":"html-keyboard-response","trial_index":120,"time_elapsed":560137,"internal_node_id":"0.0-120.0","subject":"S1C1238","sona":"41853","block":3,"time":"2021-09-18T20:52:15.114Z","response":"neither","certainty":"high","char":"G","transposition":-2,"order":["shifted","swapped"],"probe_pitches":[11,9,11,4,2,11,4,7,9,2,-1,4],"shifted_pitches":[11,9,11,4,2,11,3,7,9,2,-1,4],"swapped_pitches":[11,9,11,4,2,4,11,7,9,2,-1,4],"shift_direction":-1,"question_num":101,"has_decoy":false},{"rt":2422.0999999940395,"stimulus":"[A] option 1, [L] option 2, [G] neither","key_press":71,"name":"choice","trial_type":"html-keyboard-response","trial_index":131,"time_elapsed":580774,"internal_node_id":"0.0-131.0","subject":"S1C1238","sona":"41853","block":3,"time":"2021-09-18T20:52:15.114Z","response":"neither","certainty":"high","char":"G","transposition":2,"order":["shifted","swapped"],"probe_pitches":[-2,-1,2,9,8,5,0,3,10,1,5,3],"shifted_pitches":[-2,-1,2,9,8,4,0,3,10,1,5,3],"swapped_pitches":[-2,-1,2,9,8,0,5,3,10,1,5,3],"shift_direction":-1,"question_num":111,"has_decoy":false},{"rt":14356.40000000596,"stimulus":"[A] option 1, [L] option 2, [G] neither","key_press":65,"name":"choice","trial_type":"html-keyboard-response","trial_index":142,"time_elapsed":613540,"internal_node_id":"0.0-142.0","subject":"S1C1238","sona":"41853","block":3,"time":"2021-09-18T20:52:15.114Z","response":"1st","certainty":"high","char":"A","transposition":-3,"order":["swapped","shifted"],"probe_pitches":[3,8,7,3,9,0,7,9,8,10,2,9],"shifted_pitches":[3,8,7,3,9,0,6,9,8,10,2,9],"swapped_pitches":[3,8,7,3,9,7,0,9,8,10,2,9],"shift_direction":-1,"question_num":121,"has_decoy":false},{"rt":4967.399999976158,"stimulus":"[A] option 1, [L] option 2, [G] neither","key_press":71,"name":"choice","trial_type":"html-keyboard-response","trial_index":153,"time_elapsed":637719,"internal_node_id":"0.0-153.0","subject":"S1C1238","sona":"41853","block":3,"time":"2021-09-18T20:52:15.114Z","response":"neither","certainty":"high","char":"G","transposition":3,"order":["swapped","shifted"],"probe_pitches":[-2,1,8,10,5,8,2,5,10,-2,7,10],"shifted_pitches":[-2,1,8,10,5,8,3,5,10,-2,7,10],"swapped_pitches":[-2,1,8,10,5,2,8,5,10,-2,7,10],"shift_direction":1,"question_num":131,"has_decoy":false},{"rt":1453.5999999940395,"stimulus":"[A] option 1, [L] option 2, [G] neither","key_press":76,"name":"choice","trial_type":"html-keyboard-response","trial_index":164,"time_elapsed":657320,"internal_node_id":"0.0-164.0","subject":"S1C1238","sona":"41853","block":3,"time":"2021-09-18T20:52:15.114Z","response":"2nd","certainty":"high","char":"L","transposition":-2,"order":["swapped","shifted"],"probe_pitches":[9,10,6,5,8,10,2,4,-1,9,6,8],"shifted_pitches":[9,10,6,5,8,10,1,4,-1,9,6,8],"swapped_pitches":[9,10,6,5,8,2,10,4,-1,9,6,8],"shift_direction":-1,"question_num":141,"has_decoy":false},{"rt":9486.300000011921,"stimulus":"[A] option 1, [L] option 2, [G] neither","key_press":71,"name":"choice","trial_type":"html-keyboard-response","trial_index":175,"time_elapsed":684883,"internal_node_id":"0.0-175.0","subject":"S1C1238","sona":"41853","block":3,"time":"2021-09-18T20:52:15.114Z","response":"neither","certainty":"high","char":"G","transposition":-2,"order":["shifted","swapped"],"probe_pitches":[3,-1,1,8,2,6,-1,10,1,2,4,-2],"shifted_pitches":[3,-1,1,8,2,7,-1,10,1,2,4,-2],"swapped_pitches":[3,-1,1,8,2,-1,6,10,1,2,4,-2],"shift_direction":1,"question_num":151,"has_decoy":false},{"rt":2685.5,"stimulus":"[A] option 1, [L] option 2, [G] neither","key_press":71,"name":"choice","trial_type":"html-keyboard-response","trial_index":186,"time_elapsed":709374,"internal_node_id":"0.0-186.0","subject":"S1C1238","sona":"41853","block":3,"time":"2021-09-18T20:52:15.114Z","response":"neither","certainty":"high","char":"G","transposition":-3,"order":["swapped","shifted"],"probe_pitches":[6,2,-1,4,6,-1,9,11,4,11,6,9],"shifted_pitches":[6,2,-1,4,6,-2,9,11,4,11,6,9],"swapped_pitches":[6,2,-1,4,6,9,-1,11,4,11,6,9],"shift_direction":-1,"question_num":161,"has_decoy":false},{"rt":48330.40000000596,"stimulus":"[A] option 1, [L] option 2, [G] neither","key_press":71,"name":"choice","trial_type":"html-keyboard-response","trial_index":197,"time_elapsed":776132,"internal_node_id":"0.0-197.0","subject":"S1C1238","sona":"41853","block":3,"time":"2021-09-18T20:52:15.114Z","response":"neither","certainty":"high","char":"G","transposition":-3,"order":["swapped","shifted"],"probe_pitches":[3,8,3,1,-1,1,8,6,1,8,11,3],"shifted_pitches":[3,8,3,1,-1,1,9,6,1,8,11,3],"swapped_pitches":[3,8,3,1,-1,8,1,6,1,8,11,3],"shift_direction":1,"question_num":171,"has_decoy":false},{"rt":2588.2999999821186,"stimulus":"[A] option 1, [L] option 2, [G] neither","key_press":71,"name":"choice","trial_type":"html-keyboard-response","trial_index":208,"time_elapsed":799439,"internal_node_id":"0.0-208.0","subject":"S1C1238","sona":"41853","block":3,"time":"2021-09-18T20:52:15.114Z","response":"neither","certainty":"high","char":"G","transposition":-3,"order":["shifted","swapped"],"probe_pitches":[3,0,-1,3,8,10,6,5,8,1,0,4],"shifted_pitches":[3,0,-1,3,8,9,6,5,8,1,0,4],"swapped_pitches":[3,0,-1,3,8,6,10,5,8,1,0,4],"shift_direction":-1,"question_num":181,"has_decoy":false},{"rt":3412.199999988079,"stimulus":"[A] option 1, [L] option 2, [G] neither","key_press":65,"name":"choice","trial_type":"html-keyboard-response","trial_index":219,"time_elapsed":821660,"internal_node_id":"0.0-219.0","subject":"S1C1238","sona":"41853","block":3,"time":"2021-09-18T20:52:15.114Z","response":"1st","certainty":"high","char":"A","transposition":-2,"order":["swapped","shifted"],"probe_pitches":[-1,4,11,6,11,1,9,11,-1,9,1,6],"shifted_pitches":[-1,4,11,6,11,2,9,11,-1,9,1,6],"swapped_pitches":[-1,4,11,6,11,9,1,11,-1,9,1,6],"shift_direction":1,"question_num":191,"has_decoy":false}]