[{"rt":9507.5,"stimulus":"[A] option 1, [L] option 2, [G] neither","key_press":76,"name":"choice","trial_type":"html-keyboard-response","trial_index":15,"time_elapsed":168784226,"internal_node_id":"0.0-15.0","response":"2nd","certainty":"high","char":"L","transposition":-3,"order":["swapped","shifted"],"probe_pitches":[9,7,14,7,2,7,4,11,7,14,9,2],"shifted_pitches":[9,7,14,7,2,7,3,11,7,14,9,2],"swapped_pitches":[9,7,14,7,2,4,7,11,7,14,9,2],"shift_direction":-1,"question_num":1,"has_decoy":false,"subject":"S1C1214","sona":"41439","block":1,"time":"2021-09-17T16:04:55.747Z"},{"rt":4028.9000000059605,"stimulus":"[A] option 1, [L] option 2, [G] neither","key_press":65,"name":"choice","trial_type":"html-keyboard-response","trial_index":26,"time_elapsed":168810687,"internal_node_id":"0.0-26.0","response":"1st","certainty":"high","char":"A","transposition":2,"order":["shifted","swapped"],"probe_pitches":[5,2,5,10,2,5,14,2,7,12,7,5],"shifted_pitches":[5,2,5,10,2,5,13,2,7,12,7,5],"swapped_pitches":[5,2,5,10,2,14,5,2,7,12,7,5],"shift_direction":-1,"question_num":11,"has_decoy":false,"subject":"S1C1214","sona":"41439","block":1,"time":"2021-09-17T16:04:55.747Z"},{"rt":5479.29999999702,"stimulus":"[A] option 1, [L] option 2, [G] neither","key_press":76,"name":"choice","trial_type":"html-keyboard-response","trial_index":37,"time_elapsed":168835554,"internal_node_id":"0.0-37.0","response":"2nd","certainty":"high","char":"L","transposition":-1,"order":["shifted","swapped"],"probe_pitches":[7,10,9,6,7,4,8,-2,6,8,6,0],"shifted_pitches":[7,10,9,6,7,3,8,-2,6,8,6,0],"swapped_pitches":[7,10,9,6,7,8,4,-2,6,8,6,0],"shift_direction":-1,"question_num":21,"has_decoy":false,"subject":"S1C1214","sona":"41439","block":1,"time":"2021-09-17T16:04:55.747Z"},{"rt":5676.300000011921,"stimulus":"[A] option 1, [L] option 2, [G] neither","key_press":71,"name":"choice","trial_type":"html-keyboard-response","trial_index":48,"time_elapsed":168861346,"internal_node_id":"0.0-48.0","response":"neither","certainty":"high","char":"G","transposition":0,"order":["shifted","swapped"],"probe_pitches":[-1,5,4,10,3,0,5,4,5,-2,6,9],"shifted_pitches":[-1,5,4,10,3,1,5,4,5,-2,6,9],"swapped_pitches":[-1,5,4,10,3,5,0,4,5,-2,6,9],"shift_direction":1,"question_num":31,"has_decoy":false,"subject":"S1C1214","sona":"41439","block":1,"time":"2021-09-17T16:04:55.747Z"},{"rt":8169.0999999940395,"stimulus":"[A] option 1, [L] option 2, [G] neither","key_press":71,"name":"choice","trial_type":"html-keyboard-response","trial_index":59,"time_elapsed":168889485,"internal_node_id":"0.0-59.0","response":"neither","certainty":"high","char":"G","transposition":-1,"order":["shifted","swapped"],"probe_pitches":[12,7,2,7,9,4,14,12,7,4,2,4],"shifted_pitches":[12,7,2,7,9,5,14,12,7,4,2,4],"swapped_pitches":[12,7,2,7,9,14,4,12,7,4,2,4],"shift_direction":1,"question_num":41,"has_decoy":false,"subject":"S1C1214","sona":"41439","block":1,"time":"2021-09-17T16:04:55.747Z"},{"rt":1048.2000000029802,"stimulus":"[A] option 1, [L] option 2, [G] neither","key_press":76,"name":"choice","trial_type":"html-keyboard-response","trial_index":70,"time_elapsed":168909864,"internal_node_id":"0.0-70.0","response":"2nd","certainty":"high","char":"L","transposition":-3,"order":["shifted","swapped"],"probe_pitches":[10,6,10,7,1,3,2,6,1,6,1,-1],"shifted_pitches":[10,6,10,7,1,4,2,6,1,6,1,-1],"swapped_pitches":[10,6,10,7,1,2,3,6,1,6,1,-1],"shift_direction":1,"question_num":51,"has_decoy":false,"subject":"S1C1214","sona":"41439","block":1,"time":"2021-09-17T16:04:55.747Z"},{"rt":1202.5999999940395,"stimulus":"[A] option 1, [L] option 2, [G] neither","key_press":71,"name":"choice","trial_type":"html-keyboard-response","trial_index":81,"time_elapsed":168930259,"internal_node_id":"0.0-81.0","response":"neither","certainty":"high","char":"G","transposition":1,"order":["shifted","swapped"],"probe_pitches":[2,6,9,4,2,5,1,10,8,10,5,8],"shifted_pitches":[2,6,9,4,2,5,0,10,8,10,5,8],"swapped_pitches":[2,6,9,4,2,1,5,10,8,10,5,8],"shift_direction":-1,"question_num":61,"has_decoy":false,"subject":"S1C1214","sona":"41439","block":1,"time":"2021-09-17T16:04:55.747Z"},{"rt":4547.9000000059605,"stimulus":"[A] option 1, [L] option 2, [G] neither","key_press":71,"name":"choice","trial_type":"html-keyboard-response","trial_index":92,"time_elapsed":168953933,"internal_node_id":"0.0-92.0","response":"neither","certainty":"high","char":"G","transposition":-3,"order":["shifted","swapped"],"probe_pitches":[12,9,7,14,7,2,12,5,12,2,7,14],"shifted_pitches":[12,9,7,14,7,3,12,5,12,2,7,14],"swapped_pitches":[12,9,7,14,7,12,2,5,12,2,7,14],"shift_direction":1,"question_num":71,"has_decoy":false,"subject":"S1C1214","sona":"41439","block":1,"time":"2021-09-17T16:04:55.747Z"},{"rt":934.7000000029802,"stimulus":"[A] option 1, [L] option 2, [G] neither","key_press":76,"name":"choice","trial_type":"html-keyboard-response","trial_index":103,"time_elapsed":168974295,"internal_node_id":"0.0-103.0","response":"2nd","certainty":"high","char":"L","transposition":-2,"order":["swapped","shifted"],"probe_pitches":[8,6,0,-2,7,5,8,10,3,0,1,10],"shifted_pitches":[8,6,0,-2,7,5,9,10,3,0,1,10],"swapped_pitches":[8,6,0,-2,7,8,5,10,3,0,1,10],"shift_direction":1,"question_num":81,"has_decoy":false,"subject":"S1C1214","sona":"41439","block":1,"time":"2021-09-17T16:04:55.747Z"},{"rt":1153.7999999970198,"stimulus":"[A] option 1, [L] option 2, [G] neither","key_press":71,"name":"choice","trial_type":"html-keyboard-response","trial_index":114,"time_elapsed":168994878,"internal_node_id":"0.0-114.0","response":"neither","certainty":"high","char":"G","transposition":1,"order":["shifted","swapped"],"probe_pitches":[4,2,9,14,7,9,2,12,14,7,2,4],"shifted_pitches":[4,2,9,14,7,9,3,12,14,7,2,4],"swapped_pitches":[4,2,9,14,7,2,9,12,14,7,2,4],"shift_direction":1,"question_num":91,"has_decoy":false,"subject":"S1C1214","sona":"41439","block":1,"time":"2021-09-17T16:04:55.747Z"},{"rt":1032.4000000059605,"stimulus":"[A] option 1, [L] option 2, [G] neither","key_press":71,"name":"choice","trial_type":"html-keyboard-response","trial_index":125,"time_elapsed":169015173,"internal_node_id":"0.0-125.0","response":"neither","certainty":"high","char":"G","transposition":0,"order":["swapped","shifted"],"probe_pitches":[14,11,9,4,9,11,6,4,6,4,6,9],"shifted_pitches":[14,11,9,4,9,11,5,4,6,4,6,9],"swapped_pitches":[14,11,9,4,9,6,11,4,6,4,6,9],"shift_direction":-1,"question_num":101,"has_decoy":false,"subject":"S1C1214","sona":"41439","block":1,"time":"2021-09-17T16:04:55.747Z"},{"rt":428.80000001192093,"stimulus":"[A] option 1, [L] option 2, [G] neither","key_press":71,"name":"choice","trial_type":"html-keyboard-response","trial_index":136,"time_elapsed":169034881,"internal_node_id":"0.0-136.0","response":"neither","certainty":"high","char":"G","transposition":2,"order":["swapped","shifted"],"probe_pitches":[2,8,10,3,8,6,7,0,2,10,9,6],"shifted_pitches":[2,8,10,3,8,5,7,0,2,10,9,6],"swapped_pitches":[2,8,10,3,8,7,6,0,2,10,9,6],"shift_direction":-1,"question_num":111,"has_decoy":false,"subject":"S1C1214","sona":"41439","block":1,"time":"2021-09-17T16:04:55.747Z"},{"rt":840.2000000029802,"stimulus":"[A] option 1, [L] option 2, [G] neither","key_press":71,"name":"choice","trial_type":"html-keyboard-response","trial_index":147,"time_elapsed":169054839,"internal_node_id":"0.0-147.0","response":"neither","certainty":"high","char":"G","transposition":-1,"order":["shifted","swapped"],"probe_pitches":[2,0,5,9,8,-1,7,4,-1,2,1,8],"shifted_pitches":[2,0,5,9,8,-1,6,4,-1,2,1,8],"swapped_pitches":[2,0,5,9,8,7,-1,4,-1,2,1,8],"shift_direction":-1,"question_num":121,"has_decoy":false,"subject":"S1C1214","sona":"41439","block":1,"time":"2021-09-17T16:04:55.747Z"},{"rt":714.5,"stimulus":"[A] option 1, [L] option 2, [G] neither","key_press":76,"name":"choice","trial_type":"html-keyboard-response","trial_index":158,"time_elapsed":169074902,"internal_node_id":"0.0-158.0","response":"2nd","certainty":"high","char":"L","transposition":-1,"order":["swapped","shifted"],"probe_pitches":[6,11,9,6,14,11,6,9,11,6,9,4],"shifted_pitches":[6,11,9,6,14,10,6,9,11,6,9,4],"swapped_pitches":[6,11,9,6,14,6,11,9,11,6,9,4],"shift_direction":-1,"question_num":131,"has_decoy":false,"subject":"S1C1214","sona":"41439","block":1,"time":"2021-09-17T16:04:55.747Z"},{"rt":1371.9000000059605,"stimulus":"[A] option 1, [L] option 2, [G] neither","key_press":71,"name":"choice","trial_type":"html-keyboard-response","trial_index":169,"time_elapsed":169095256,"internal_node_id":"0.0-169.0","response":"neither","certainty":"high","char":"G","transposition":3,"order":["swapped","shifted"],"probe_pitches":[9,5,-2,1,6,2,9,-1,7,3,6,7],"shifted_pitches":[9,5,-2,1,6,2,8,-1,7,3,6,7],"swapped_pitches":[9,5,-2,1,6,9,2,-1,7,3,6,7],"shift_direction":-1,"question_num":141,"has_decoy":false,"subject":"S1C1214","sona":"41439","block":1,"time":"2021-09-17T16:04:55.747Z"},{"rt":932.0999999940395,"stimulus":"[A] option 1, [L] option 2, [G] neither","key_press":76,"name":"choice","trial_type":"html-keyboard-response","trial_index":180,"time_elapsed":169114350,"internal_node_id":"0.0-180.0","response":"2nd","certainty":"high","char":"L","transposition":-2,"order":["swapped","shifted"],"probe_pitches":[10,14,7,5,7,5,2,14,12,5,14,10],"shifted_pitches":[10,14,7,5,7,6,2,14,12,5,14,10],"swapped_pitches":[10,14,7,5,7,2,5,14,12,5,14,10],"shift_direction":1,"question_num":151,"has_decoy":false,"subject":"S1C1214","sona":"41439","block":1,"time":"2021-09-17T16:04:55.747Z"},{"rt":776.7000000029802,"stimulus":"[A] option 1, [L] option 2, [G] neither","key_press":71,"name":"choice","trial_type":"html-keyboard-response","trial_index":191,"time_elapsed":169134309,"internal_node_id":"0.0-191.0","response":"neither","certainty":"high","char":"G","transposition":-2,"order":["swapped","shifted"],"probe_pitches":[-1,0,5,3,4,-1,1,-2,4,6,10,5],"shifted_pitches":[-1,0,5,3,4,-1,2,-2,4,6,10,5],"swapped_pitches":[-1,0,5,3,4,1,-1,-2,4,6,10,5],"shift_direction":1,"question_num":161,"has_decoy":false,"subject":"S1C1214","sona":"41439","block":1,"time":"2021-09-17T16:04:55.747Z"},{"rt":428.70000000298023,"stimulus":"[A] option 1, [L] option 2, [G] neither","key_press":76,"name":"choice","trial_type":"html-keyboard-response","trial_index":202,"time_elapsed":169154052,"internal_node_id":"0.0-202.0","response":"2nd","certainty":"high","char":"L","transposition":-2,"order":["swapped","shifted"],"probe_pitches":[2,7,9,5,9,2,12,9,7,5,14,5],"shifted_pitches":[2,7,9,5,9,1,12,9,7,5,14,5],"swapped_pitches":[2,7,9,5,9,12,2,9,7,5,14,5],"shift_direction":-1,"question_num":171,"has_decoy":false,"subject":"S1C1214","sona":"41439","block":1,"time":"2021-09-17T16:04:55.747Z"},{"rt":3494.2999999970198,"stimulus":"[A] option 1, [L] option 2, [G] neither","key_press":71,"name":"choice","trial_type":"html-keyboard-response","trial_index":213,"time_elapsed":169176634,"internal_node_id":"0.0-213.0","response":"neither","certainty":"high","char":"G","transposition":3,"order":["shifted","swapped"],"probe_pitches":[7,11,4,11,7,2,11,9,4,9,11,7],"shifted_pitches":[7,11,4,11,7,2,12,9,4,9,11,7],"swapped_pitches":[7,11,4,11,7,11,2,9,4,9,11,7],"shift_direction":1,"question_num":181,"has_decoy":false,"subject":"S1C1214","sona":"41439","block":1,"time":"2021-09-17T16:04:55.747Z"},{"rt":837,"stimulus":"[A] option 1, [L] option 2, [G] neither","key_press":71,"name":"choice","trial_type":"html-keyboard-response","trial_index":224,"time_elapsed":169196442,"internal_node_id":"0.0-224.0","response":"neither","certainty":"high","char":"G","transposition":-3,"order":["swapped","shifted"],"probe_pitches":[9,4,10,9,10,6,2,5,-2,9,0,10],"shifted_pitches":[9,4,10,9,10,7,2,5,-2,9,0,10],"swapped_pitches":[9,4,10,9,10,2,6,5,-2,9,0,10],"shift_direction":1,"question_num":191,"has_decoy":false,"subject":"S1C1214","sona":"41439","block":1,"time":"2021-09-17T16:04:55.747Z"}]