[{"rt":3814.7999999970198,"stimulus":"[A] option 1, [L] option 2, [G] neither","key_press":65,"name":"choice","trial_type":"html-keyboard-response","trial_index":10,"time_elapsed":24248,"internal_node_id":"0.0-10.0","subject":"S1C1214","sona":"41439","block":4,"time":"2021-09-18T16:02:12.588Z","response":"1st","certainty":"high","char":"A","transposition":1,"order":["shifted","swapped"],"probe_pitches":[0,2,-3,2,5,2,-3,5,9,0,7,2],"shifted_pitches":[0,2,-3,2,5,3,-3,5,9,0,7,2],"swapped_pitches":[0,2,-3,2,5,-3,2,5,9,0,7,2],"shift_direction":1,"question_num":1,"has_decoy":false},{"rt":721.2000000029802,"stimulus":"[A] option 1, [L] option 2, [G] neither","key_press":71,"name":"choice","trial_type":"html-keyboard-response","trial_index":21,"time_elapsed":46157,"internal_node_id":"0.0-21.0","subject":"S1C1214","sona":"41439","block":4,"time":"2021-09-18T16:02:12.588Z","response":"neither","certainty":"high","char":"G","transposition":-3,"order":["shifted","swapped"],"probe_pitches":[2,6,2,4,-1,6,4,2,4,9,6,2],"shifted_pitches":[2,6,2,4,-1,6,3,2,4,9,6,2],"swapped_pitches":[2,6,2,4,-1,4,6,2,4,9,6,2],"shift_direction":-1,"question_num":11,"has_decoy":false},{"rt":2417.4000000059605,"stimulus":"[A] option 1, [L] option 2, [G] neither","key_press":71,"name":"choice","trial_type":"html-keyboard-response","trial_index":32,"time_elapsed":67846,"internal_node_id":"0.0-32.0","subject":"S1C1214","sona":"41439","block":4,"time":"2021-09-18T16:02:12.588Z","response":"neither","certainty":"high","char":"G","transposition":-2,"order":["shifted","swapped"],"probe_pitches":[12,6,9,1,2,12,4,6,11,7,13,6],"shifted_pitches":[12,6,9,1,2,12,5,6,11,7,13,6],"swapped_pitches":[12,6,9,1,2,4,12,6,11,7,13,6],"shift_direction":1,"question_num":21,"has_decoy":false},{"rt":659.0999999940395,"stimulus":"[A] option 1, [L] option 2, [G] neither","key_press":71,"name":"choice","trial_type":"html-keyboard-response","trial_index":43,"time_elapsed":87729,"internal_node_id":"0.0-43.0","subject":"S1C1214","sona":"41439","block":4,"time":"2021-09-18T16:02:12.588Z","response":"neither","certainty":"high","char":"G","transposition":-3,"order":["swapped","shifted"],"probe_pitches":[13,11,7,3,10,3,7,1,2,3,2,9],"shifted_pitches":[13,11,7,3,10,3,6,1,2,3,2,9],"swapped_pitches":[13,11,7,3,10,7,3,1,2,3,2,9],"shift_direction":-1,"question_num":31,"has_decoy":false},{"rt":561.5,"stimulus":"[A] option 1, [L] option 2, [G] neither","key_press":71,"name":"choice","trial_type":"html-keyboard-response","trial_index":54,"time_elapsed":106747,"internal_node_id":"0.0-54.0","subject":"S1C1214","sona":"41439","block":4,"time":"2021-09-18T16:02:12.588Z","response":"neither","certainty":"high","char":"G","transposition":3,"order":["shifted","swapped"],"probe_pitches":[7,5,8,9,13,5,1,11,1,7,3,7],"shifted_pitches":[7,5,8,9,13,4,1,11,1,7,3,7],"swapped_pitches":[7,5,8,9,13,1,5,11,1,7,3,7],"shift_direction":-1,"question_num":41,"has_decoy":false},{"rt":705.2999999970198,"stimulus":"[A] option 1, [L] option 2, [G] neither","key_press":71,"name":"choice","trial_type":"html-keyboard-response","trial_index":65,"time_elapsed":142847,"internal_node_id":"0.0-65.0","subject":"S1C1214","sona":"41439","block":4,"time":"2021-09-18T16:02:12.588Z","response":"neither","certainty":"high","char":"G","transposition":1,"order":["swapped","shifted"],"probe_pitches":[5,8,2,7,10,12,8,5,11,1,5,7],"shifted_pitches":[5,8,2,7,10,12,9,5,11,1,5,7],"swapped_pitches":[5,8,2,7,10,8,12,5,11,1,5,7],"shift_direction":1,"question_num":51,"has_decoy":false},{"rt":820,"stimulus":"[A] option 1, [L] option 2, [G] neither","key_press":71,"name":"choice","trial_type":"html-keyboard-response","trial_index":76,"time_elapsed":162670,"internal_node_id":"0.0-76.0","subject":"S1C1214","sona":"41439","block":4,"time":"2021-09-18T16:02:12.588Z","response":"neither","certainty":"high","char":"G","transposition":-3,"order":["shifted","swapped"],"probe_pitches":[9,10,9,1,5,9,8,12,4,3,5,3],"shifted_pitches":[9,10,9,1,5,9,7,12,4,3,5,3],"swapped_pitches":[9,10,9,1,5,8,9,12,4,3,5,3],"shift_direction":-1,"question_num":61,"has_decoy":false},{"rt":890,"stimulus":"[A] option 1, [L] option 2, [G] neither","key_press":71,"name":"choice","trial_type":"html-keyboard-response","trial_index":87,"time_elapsed":182309,"internal_node_id":"0.0-87.0","subject":"S1C1214","sona":"41439","block":4,"time":"2021-09-18T16:02:12.588Z","response":"neither","certainty":"high","char":"G","transposition":3,"order":["shifted","swapped"],"probe_pitches":[9,4,7,2,-1,2,7,-3,-1,4,9,-1],"shifted_pitches":[9,4,7,2,-1,2,8,-3,-1,4,9,-1],"swapped_pitches":[9,4,7,2,-1,7,2,-3,-1,4,9,-1],"shift_direction":1,"question_num":71,"has_decoy":false},{"rt":792.1999999880791,"stimulus":"[A] option 1, [L] option 2, [G] neither","key_press":76,"name":"choice","trial_type":"html-keyboard-response","trial_index":98,"time_elapsed":201507,"internal_node_id":"0.0-98.0","subject":"S1C1214","sona":"41439","block":4,"time":"2021-09-18T16:02:12.588Z","response":"2nd","certainty":"high","char":"L","transposition":-1,"order":["shifted","swapped"],"probe_pitches":[6,7,9,1,2,12,4,6,1,9,12,5],"shifted_pitches":[6,7,9,1,2,12,3,6,1,9,12,5],"swapped_pitches":[6,7,9,1,2,4,12,6,1,9,12,5],"shift_direction":-1,"question_num":81,"has_decoy":false},{"rt":1087.8999999910593,"stimulus":"[A] option 1, [L] option 2, [G] neither","key_press":71,"name":"choice","trial_type":"html-keyboard-response","trial_index":109,"time_elapsed":220971,"internal_node_id":"0.0-109.0","subject":"S1C1214","sona":"41439","block":4,"time":"2021-09-18T16:02:12.588Z","response":"neither","certainty":"high","char":"G","transposition":-2,"order":["swapped","shifted"],"probe_pitches":[-3,2,7,4,7,0,2,4,7,4,9,-3],"shifted_pitches":[-3,2,7,4,7,-1,2,4,7,4,9,-3],"swapped_pitches":[-3,2,7,4,7,2,0,4,7,4,9,-3],"shift_direction":-1,"question_num":91,"has_decoy":false},{"rt":1613.7999999970198,"stimulus":"[A] option 1, [L] option 2, [G] neither","key_press":71,"name":"choice","trial_type":"html-keyboard-response","trial_index":120,"time_elapsed":241657,"internal_node_id":"0.0-120.0","subject":"S1C1214","sona":"41439","block":4,"time":"2021-09-18T16:02:12.588Z","response":"neither","certainty":"high","char":"G","transposition":-1,"order":["shifted","swapped"],"probe_pitches":[4,2,-1,7,9,4,-1,9,2,-3,2,4],"shifted_pitches":[4,2,-1,7,9,3,-1,9,2,-3,2,4],"swapped_pitches":[4,2,-1,7,9,-1,4,9,2,-3,2,4],"shift_direction":-1,"question_num":101,"has_decoy":false},{"rt":4205.800000011921,"stimulus":"[A] option 1, [L] option 2, [G] neither","key_press":71,"name":"choice","trial_type":"html-keyboard-response","trial_index":131,"time_elapsed":265432,"internal_node_id":"0.0-131.0","subject":"S1C1214","sona":"41439","block":4,"time":"2021-09-18T16:02:12.588Z","response":"neither","certainty":"high","char":"G","transposition":-2,"order":["swapped","shifted"],"probe_pitches":[5,6,8,6,5,11,6,3,2,9,11,3],"shifted_pitches":[5,6,8,6,5,12,6,3,2,9,11,3],"swapped_pitches":[5,6,8,6,5,6,11,3,2,9,11,3],"shift_direction":1,"question_num":111,"has_decoy":false},{"rt":1367.6000000089407,"stimulus":"[A] option 1, [L] option 2, [G] neither","key_press":76,"name":"choice","trial_type":"html-keyboard-response","trial_index":142,"time_elapsed":286144,"internal_node_id":"0.0-142.0","subject":"S1C1214","sona":"41439","block":4,"time":"2021-09-18T16:02:12.588Z","response":"2nd","certainty":"high","char":"L","transposition":-3,"order":["shifted","swapped"],"probe_pitches":[0,2,9,2,0,4,-3,0,4,7,4,-3],"shifted_pitches":[0,2,9,2,0,5,-3,0,4,7,4,-3],"swapped_pitches":[0,2,9,2,0,-3,4,0,4,7,4,-3],"shift_direction":1,"question_num":121,"has_decoy":false},{"rt":1922.699999988079,"stimulus":"[A] option 1, [L] option 2, [G] neither","key_press":71,"name":"choice","trial_type":"html-keyboard-response","trial_index":153,"time_elapsed":306710,"internal_node_id":"0.0-153.0","subject":"S1C1214","sona":"41439","block":4,"time":"2021-09-18T16:02:12.588Z","response":"neither","certainty":"high","char":"G","transposition":2,"order":["shifted","swapped"],"probe_pitches":[5,9,3,4,7,10,9,2,9,6,13,12],"shifted_pitches":[5,9,3,4,7,11,9,2,9,6,13,12],"swapped_pitches":[5,9,3,4,7,9,10,2,9,6,13,12],"shift_direction":1,"question_num":131,"has_decoy":false},{"rt":1091.2000000029802,"stimulus":"[A] option 1, [L] option 2, [G] neither","key_press":76,"name":"choice","trial_type":"html-keyboard-response","trial_index":164,"time_elapsed":327462,"internal_node_id":"0.0-164.0","subject":"S1C1214","sona":"41439","block":4,"time":"2021-09-18T16:02:12.588Z","response":"2nd","certainty":"high","char":"L","transposition":0,"order":["swapped","shifted"],"probe_pitches":[4,6,1,-3,6,-1,9,6,-1,-3,1,-1],"shifted_pitches":[4,6,1,-3,6,-1,8,6,-1,-3,1,-1],"swapped_pitches":[4,6,1,-3,6,9,-1,6,-1,-3,1,-1],"shift_direction":-1,"question_num":141,"has_decoy":false},{"rt":1442.6000000089407,"stimulus":"[A] option 1, [L] option 2, [G] neither","key_press":71,"name":"choice","trial_type":"html-keyboard-response","trial_index":175,"time_elapsed":347254,"internal_node_id":"0.0-175.0","subject":"S1C1214","sona":"41439","block":4,"time":"2021-09-18T16:02:12.588Z","response":"neither","certainty":"high","char":"G","transposition":-1,"order":["swapped","shifted"],"probe_pitches":[0,2,9,7,2,-3,7,9,-3,7,5,9],"shifted_pitches":[0,2,9,7,2,-3,8,9,-3,7,5,9],"swapped_pitches":[0,2,9,7,2,7,-3,9,-3,7,5,9],"shift_direction":1,"question_num":151,"has_decoy":false},{"rt":917.5999999940395,"stimulus":"[A] option 1, [L] option 2, [G] neither","key_press":76,"name":"choice","trial_type":"html-keyboard-response","trial_index":186,"time_elapsed":367719,"internal_node_id":"0.0-186.0","subject":"S1C1214","sona":"41439","block":4,"time":"2021-09-18T16:02:12.588Z","response":"2nd","certainty":"high","char":"L","transposition":2,"order":["swapped","shifted"],"probe_pitches":[1,6,1,4,9,-1,1,9,-1,4,-1,4],"shifted_pitches":[1,6,1,4,9,-2,1,9,-1,4,-1,4],"swapped_pitches":[1,6,1,4,9,1,-1,9,-1,4,-1,4],"shift_direction":-1,"question_num":161,"has_decoy":false},{"rt":987.2999999970198,"stimulus":"[A] option 1, [L] option 2, [G] neither","key_press":71,"name":"choice","trial_type":"html-keyboard-response","trial_index":197,"time_elapsed":387672,"internal_node_id":"0.0-197.0","subject":"S1C1214","sona":"41439","block":4,"time":"2021-09-18T16:02:12.588Z","response":"neither","certainty":"high","char":"G","transposition":0,"order":["swapped","shifted"],"probe_pitches":[4,1,3,11,5,9,7,12,6,13,3,2],"shifted_pitches":[4,1,3,11,5,10,7,12,6,13,3,2],"swapped_pitches":[4,1,3,11,5,7,9,12,6,13,3,2],"shift_direction":1,"question_num":171,"has_decoy":false},{"rt":778.3999999910593,"stimulus":"[A] option 1, [L] option 2, [G] neither","key_press":76,"name":"choice","trial_type":"html-keyboard-response","trial_index":208,"time_elapsed":407043,"internal_node_id":"0.0-208.0","subject":"S1C1214","sona":"41439","block":4,"time":"2021-09-18T16:02:12.588Z","response":"2nd","certainty":"high","char":"L","transposition":-2,"order":["swapped","shifted"],"probe_pitches":[-3,2,4,-1,4,6,9,4,9,6,4,2],"shifted_pitches":[-3,2,4,-1,4,6,10,4,9,6,4,2],"swapped_pitches":[-3,2,4,-1,4,9,6,4,9,6,4,2],"shift_direction":1,"question_num":181,"has_decoy":false},{"rt":741.6999999880791,"stimulus":"[A] option 1, [L] option 2, [G] neither","key_press":76,"name":"choice","trial_type":"html-keyboard-response","trial_index":219,"time_elapsed":426308,"internal_node_id":"0.0-219.0","subject":"S1C1214","sona":"41439","block":4,"time":"2021-09-18T16:02:12.588Z","response":"2nd","certainty":"high","char":"L","transposition":-1,"order":["swapped","shifted"],"probe_pitches":[12,13,9,13,10,9,5,13,1,4,12,7],"shifted_pitches":[12,13,9,13,10,8,5,13,1,4,12,7],"swapped_pitches":[12,13,9,13,10,5,9,13,1,4,12,7],"shift_direction":-1,"question_num":191,"has_decoy":false}]