[{"rt":5801.199999988079,"stimulus":"[A] option 1, [L] option 2, [G] neither","key_press":76,"name":"choice","trial_type":"html-keyboard-response","trial_index":10,"time_elapsed":28554,"internal_node_id":"0.0-10.0","subject":"S1C1214","sona":"41439","block":5,"time":"2021-09-18T16:09:19.088Z","response":"2nd","certainty":"high","char":"L","transposition":0,"order":["shifted","swapped"],"probe_pitches":[3,8,1,7,3,0,1,9,-2,4,5,1],"shifted_pitches":[3,8,1,7,3,0,2,9,-2,4,5,1],"swapped_pitches":[3,8,1,7,3,1,0,9,-2,4,5,1],"shift_direction":1,"question_num":1,"has_decoy":false},{"rt":1347.2000000029802,"stimulus":"[A] option 1, [L] option 2, [G] neither","key_press":71,"name":"choice","trial_type":"html-keyboard-response","trial_index":21,"time_elapsed":49538,"internal_node_id":"0.0-21.0","subject":"S1C1214","sona":"41439","block":5,"time":"2021-09-18T16:09:19.088Z","response":"neither","certainty":"high","char":"G","transposition":1,"order":["swapped","shifted"],"probe_pitches":[0,-3,0,-1,1,2,3,8,7,6,-3,9],"shifted_pitches":[0,-3,0,-1,1,2,4,8,7,6,-3,9],"swapped_pitches":[0,-3,0,-1,1,3,2,8,7,6,-3,9],"shift_direction":1,"question_num":11,"has_decoy":false},{"rt":435.3999999910593,"stimulus":"[A] option 1, [L] option 2, [G] neither","key_press":76,"name":"choice","trial_type":"html-keyboard-response","trial_index":32,"time_elapsed":68607,"internal_node_id":"0.0-32.0","subject":"S1C1214","sona":"41439","block":5,"time":"2021-09-18T16:09:19.088Z","response":"2nd","certainty":"high","char":"L","transposition":2,"order":["swapped","shifted"],"probe_pitches":[0,2,-2,2,5,0,10,5,0,5,-2,7],"shifted_pitches":[0,2,-2,2,5,0,11,5,0,5,-2,7],"swapped_pitches":[0,2,-2,2,5,10,0,5,0,5,-2,7],"shift_direction":1,"question_num":21,"has_decoy":false},{"rt":587.5,"stimulus":"[A] option 1, [L] option 2, [G] neither","key_press":71,"name":"choice","trial_type":"html-keyboard-response","trial_index":43,"time_elapsed":88740,"internal_node_id":"0.0-43.0","subject":"S1C1214","sona":"41439","block":5,"time":"2021-09-18T16:09:19.088Z","response":"neither","certainty":"high","char":"G","transposition":-2,"order":["shifted","swapped"],"probe_pitches":[10,5,3,8,3,5,1,10,5,-2,5,10],"shifted_pitches":[10,5,3,8,3,4,1,10,5,-2,5,10],"swapped_pitches":[10,5,3,8,3,1,5,10,5,-2,5,10],"shift_direction":-1,"question_num":31,"has_decoy":false},{"rt":963.2999999970198,"stimulus":"[A] option 1, [L] option 2, [G] neither","key_press":71,"name":"choice","trial_type":"html-keyboard-response","trial_index":54,"time_elapsed":108366,"internal_node_id":"0.0-54.0","subject":"S1C1214","sona":"41439","block":5,"time":"2021-09-18T16:09:19.088Z","response":"neither","certainty":"high","char":"G","transposition":-1,"order":["swapped","shifted"],"probe_pitches":[5,-1,-3,2,8,4,0,6,5,0,5,7],"shifted_pitches":[5,-1,-3,2,8,4,1,6,5,0,5,7],"swapped_pitches":[5,-1,-3,2,8,0,4,6,5,0,5,7],"shift_direction":1,"question_num":41,"has_decoy":false},{"rt":507.09999999403954,"stimulus":"[A] option 1, [L] option 2, [G] neither","key_press":71,"name":"choice","trial_type":"html-keyboard-response","trial_index":65,"time_elapsed":127687,"internal_node_id":"0.0-65.0","subject":"S1C1214","sona":"41439","block":5,"time":"2021-09-18T16:09:19.088Z","response":"neither","certainty":"high","char":"G","transposition":-3,"order":["swapped","shifted"],"probe_pitches":[10,7,5,10,5,2,-2,7,0,5,10,0],"shifted_pitches":[10,7,5,10,5,2,-1,7,0,5,10,0],"swapped_pitches":[10,7,5,10,5,-2,2,7,0,5,10,0],"shift_direction":1,"question_num":51,"has_decoy":false},{"rt":2159.1000000089407,"stimulus":"[A] option 1, [L] option 2, [G] neither","key_press":71,"name":"choice","trial_type":"html-keyboard-response","trial_index":76,"time_elapsed":148548,"internal_node_id":"0.0-76.0","subject":"S1C1214","sona":"41439","block":5,"time":"2021-09-18T16:09:19.088Z","response":"neither","certainty":"high","char":"G","transposition":2,"order":["shifted","swapped"],"probe_pitches":[3,1,3,2,-2,8,1,9,8,-1,5,1],"shifted_pitches":[3,1,3,2,-2,7,1,9,8,-1,5,1],"swapped_pitches":[3,1,3,2,-2,1,8,9,8,-1,5,1],"shift_direction":-1,"question_num":61,"has_decoy":false},{"rt":1889.4000000059605,"stimulus":"[A] option 1, [L] option 2, [G] neither","key_press":71,"name":"choice","trial_type":"html-keyboard-response","trial_index":87,"time_elapsed":169245,"internal_node_id":"0.0-87.0","subject":"S1C1214","sona":"41439","block":5,"time":"2021-09-18T16:09:19.088Z","response":"neither","certainty":"high","char":"G","transposition":0,"order":["shifted","swapped"],"probe_pitches":[6,10,3,10,8,-2,1,8,10,-2,8,10],"shifted_pitches":[6,10,3,10,8,-2,0,8,10,-2,8,10],"swapped_pitches":[6,10,3,10,8,1,-2,8,10,-2,8,10],"shift_direction":-1,"question_num":71,"has_decoy":false},{"rt":659.5,"stimulus":"[A] option 1, [L] option 2, [G] neither","key_press":71,"name":"choice","trial_type":"html-keyboard-response","trial_index":98,"time_elapsed":188287,"internal_node_id":"0.0-98.0","subject":"S1C1214","sona":"41439","block":5,"time":"2021-09-18T16:09:19.088Z","response":"neither","certainty":"high","char":"G","transposition":-1,"order":["shifted","swapped"],"probe_pitches":[8,5,-2,1,10,3,1,8,3,10,5,1],"shifted_pitches":[8,5,-2,1,10,4,1,8,3,10,5,1],"swapped_pitches":[8,5,-2,1,10,1,3,8,3,10,5,1],"shift_direction":1,"question_num":81,"has_decoy":false},{"rt":707.5,"stimulus":"[A] option 1, [L] option 2, [G] neither","key_press":71,"name":"choice","trial_type":"html-keyboard-response","trial_index":109,"time_elapsed":207544,"internal_node_id":"0.0-109.0","subject":"S1C1214","sona":"41439","block":5,"time":"2021-09-18T16:09:19.088Z","response":"neither","certainty":"high","char":"G","transposition":-2,"order":["shifted","swapped"],"probe_pitches":[2,-1,0,-2,1,7,6,0,2,9,3,2],"shifted_pitches":[2,-1,0,-2,1,7,5,0,2,9,3,2],"swapped_pitches":[2,-1,0,-2,1,6,7,0,2,9,3,2],"shift_direction":-1,"question_num":91,"has_decoy":false},{"rt":1197.699999988079,"stimulus":"[A] option 1, [L] option 2, [G] neither","key_press":65,"name":"choice","trial_type":"html-keyboard-response","trial_index":120,"time_elapsed":227051,"internal_node_id":"0.0-120.0","subject":"S1C1214","sona":"41439","block":5,"time":"2021-09-18T16:09:19.088Z","response":"1st","certainty":"high","char":"A","transposition":-2,"order":["shifted","swapped"],"probe_pitches":[-3,-1,4,2,-1,-2,-3,3,-1,5,1,4],"shifted_pitches":[-3,-1,4,2,-1,-2,-4,3,-1,5,1,4],"swapped_pitches":[-3,-1,4,2,-1,-3,-2,3,-1,5,1,4],"shift_direction":-1,"question_num":101,"has_decoy":false},{"rt":425,"stimulus":"[A] option 1, [L] option 2, [G] neither","key_press":71,"name":"choice","trial_type":"html-keyboard-response","trial_index":131,"time_elapsed":245760,"internal_node_id":"0.0-131.0","subject":"S1C1214","sona":"41439","block":5,"time":"2021-09-18T16:09:19.088Z","response":"neither","certainty":"high","char":"G","transposition":-3,"order":["swapped","shifted"],"probe_pitches":[1,2,9,8,5,1,8,4,5,8,4,9],"shifted_pitches":[1,2,9,8,5,0,8,4,5,8,4,9],"swapped_pitches":[1,2,9,8,5,8,1,4,5,8,4,9],"shift_direction":-1,"question_num":111,"has_decoy":false},{"rt":740.4000000059605,"stimulus":"[A] option 1, [L] option 2, [G] neither","key_press":76,"name":"choice","trial_type":"html-keyboard-response","trial_index":142,"time_elapsed":264953,"internal_node_id":"0.0-142.0","subject":"S1C1214","sona":"41439","block":5,"time":"2021-09-18T16:09:19.088Z","response":"2nd","certainty":"high","char":"L","transposition":-1,"order":["swapped","shifted"],"probe_pitches":[10,6,8,10,8,3,1,-2,10,3,10,3],"shifted_pitches":[10,6,8,10,8,3,0,-2,10,3,10,3],"swapped_pitches":[10,6,8,10,8,1,3,-2,10,3,10,3],"shift_direction":-1,"question_num":121,"has_decoy":false},{"rt":1532.8999999910593,"stimulus":"[A] option 1, [L] option 2, [G] neither","key_press":71,"name":"choice","trial_type":"html-keyboard-response","trial_index":153,"time_elapsed":284815,"internal_node_id":"0.0-153.0","subject":"S1C1214","sona":"41439","block":5,"time":"2021-09-18T16:09:19.088Z","response":"neither","certainty":"high","char":"G","transposition":-2,"order":["shifted","swapped"],"probe_pitches":[3,7,10,7,3,0,5,-2,0,-2,0,7],"shifted_pitches":[3,7,10,7,3,0,6,-2,0,-2,0,7],"swapped_pitches":[3,7,10,7,3,5,0,-2,0,-2,0,7],"shift_direction":1,"question_num":131,"has_decoy":false},{"rt":857.0999999940395,"stimulus":"[A] option 1, [L] option 2, [G] neither","key_press":71,"name":"choice","trial_type":"html-keyboard-response","trial_index":164,"time_elapsed":306866,"internal_node_id":"0.0-164.0","subject":"S1C1214","sona":"41439","block":5,"time":"2021-09-18T16:09:19.088Z","response":"neither","certainty":"high","char":"G","transposition":-1,"order":["swapped","shifted"],"probe_pitches":[2,6,7,6,2,-2,5,4,-2,0,3,-3],"shifted_pitches":[2,6,7,6,2,-1,5,4,-2,0,3,-3],"swapped_pitches":[2,6,7,6,2,5,-2,4,-2,0,3,-3],"shift_direction":1,"question_num":141,"has_decoy":false},{"rt":1048.0999999940395,"stimulus":"[A] option 1, [L] option 2, [G] neither","key_press":71,"name":"choice","trial_type":"html-keyboard-response","trial_index":175,"time_elapsed":327398,"internal_node_id":"0.0-175.0","subject":"S1C1214","sona":"41439","block":5,"time":"2021-09-18T16:09:19.088Z","response":"neither","certainty":"high","char":"G","transposition":3,"order":["shifted","swapped"],"probe_pitches":[9,5,9,2,3,5,-1,9,2,-2,9,-1],"shifted_pitches":[9,5,9,2,3,6,-1,9,2,-2,9,-1],"swapped_pitches":[9,5,9,2,3,-1,5,9,2,-2,9,-1],"shift_direction":1,"question_num":151,"has_decoy":false},{"rt":1183.6000000089407,"stimulus":"[A] option 1, [L] option 2, [G] neither","key_press":71,"name":"choice","trial_type":"html-keyboard-response","trial_index":186,"time_elapsed":347962,"internal_node_id":"0.0-186.0","subject":"S1C1214","sona":"41439","block":5,"time":"2021-09-18T16:09:19.088Z","response":"neither","certainty":"high","char":"G","transposition":-3,"order":["swapped","shifted"],"probe_pitches":[-2,1,-2,-3,0,4,8,2,5,1,-1,9],"shifted_pitches":[-2,1,-2,-3,0,3,8,2,5,1,-1,9],"swapped_pitches":[-2,1,-2,-3,0,8,4,2,5,1,-1,9],"shift_direction":-1,"question_num":161,"has_decoy":false},{"rt":827.7000000029802,"stimulus":"[A] option 1, [L] option 2, [G] neither","key_press":71,"name":"choice","trial_type":"html-keyboard-response","trial_index":197,"time_elapsed":367743,"internal_node_id":"0.0-197.0","subject":"S1C1214","sona":"41439","block":5,"time":"2021-09-18T16:09:19.088Z","response":"neither","certainty":"high","char":"G","transposition":-3,"order":["swapped","shifted"],"probe_pitches":[8,3,10,5,-2,5,3,-2,0,-2,5,-2],"shifted_pitches":[8,3,10,5,-2,4,3,-2,0,-2,5,-2],"swapped_pitches":[8,3,10,5,-2,3,5,-2,0,-2,5,-2],"shift_direction":-1,"question_num":171,"has_decoy":false},{"rt":2465,"stimulus":"[A] option 1, [L] option 2, [G] neither","key_press":71,"name":"choice","trial_type":"html-keyboard-response","trial_index":208,"time_elapsed":391840,"internal_node_id":"0.0-208.0","subject":"S1C1214","sona":"41439","block":5,"time":"2021-09-18T16:09:19.088Z","response":"neither","certainty":"high","char":"G","transposition":1,"order":["swapped","shifted"],"probe_pitches":[0,-2,0,3,0,7,3,10,7,10,5,10],"shifted_pitches":[0,-2,0,3,0,8,3,10,7,10,5,10],"swapped_pitches":[0,-2,0,3,0,3,7,10,7,10,5,10],"shift_direction":1,"question_num":181,"has_decoy":false},{"rt":4148.5,"stimulus":"[A] option 1, [L] option 2, [G] neither","key_press":71,"name":"choice","trial_type":"html-keyboard-response","trial_index":219,"time_elapsed":422897,"internal_node_id":"0.0-219.0","subject":"S1C1214","sona":"41439","block":5,"time":"2021-09-18T16:09:19.088Z","response":"neither","certainty":"high","char":"G","transposition":3,"order":["shifted","swapped"],"probe_pitches":[3,5,0,8,5,-2,0,8,0,3,8,3],"shifted_pitches":[3,5,0,8,5,-3,0,8,0,3,8,3],"swapped_pitches":[3,5,0,8,5,0,-2,8,0,3,8,3],"shift_direction":-1,"question_num":191,"has_decoy":false}]