[{"rt":652,"stimulus":"[A] option 1, [L] option 2, [G] neither","key_press":65,"name":"choice","trial_type":"html-keyboard-response","trial_index":10,"time_elapsed":20792,"internal_node_id":"0.0-10.0","subject":"S1C1214","sona":"41439","block":6,"time":"2021-09-18T16:16:12.722Z","response":"1st","certainty":"high","char":"A","transposition":-1,"order":["shifted","swapped"],"probe_pitches":[10,8,6,9,5,8,4,-1,1,10,9,8],"shifted_pitches":[10,8,6,9,5,7,4,-1,1,10,9,8],"swapped_pitches":[10,8,6,9,5,4,8,-1,1,10,9,8],"shift_direction":-1,"question_num":1,"has_decoy":false},{"rt":1312.9000000059605,"stimulus":"[A] option 1, [L] option 2, [G] neither","key_press":71,"name":"choice","trial_type":"html-keyboard-response","trial_index":21,"time_elapsed":40732,"internal_node_id":"0.0-21.0","subject":"S1C1214","sona":"41439","block":6,"time":"2021-09-18T16:16:12.722Z","response":"neither","certainty":"high","char":"G","transposition":3,"order":["swapped","shifted"],"probe_pitches":[-1,2,-2,1,-1,1,2,9,7,5,9,10],"shifted_pitches":[-1,2,-2,1,-1,1,3,9,7,5,9,10],"swapped_pitches":[-1,2,-2,1,-1,2,1,9,7,5,9,10],"shift_direction":1,"question_num":11,"has_decoy":false},{"rt":1365.7999999970198,"stimulus":"[A] option 1, [L] option 2, [G] neither","key_press":65,"name":"choice","trial_type":"html-keyboard-response","trial_index":32,"time_elapsed":61741,"internal_node_id":"0.0-32.0","subject":"S1C1214","sona":"41439","block":6,"time":"2021-09-18T16:16:12.722Z","response":"1st","certainty":"high","char":"A","transposition":-1,"order":["shifted","swapped"],"probe_pitches":[12,7,9,4,7,2,12,4,7,9,2,12],"shifted_pitches":[12,7,9,4,7,2,13,4,7,9,2,12],"swapped_pitches":[12,7,9,4,7,12,2,4,7,9,2,12],"shift_direction":1,"question_num":21,"has_decoy":false},{"rt":1123.9000000059605,"stimulus":"[A] option 1, [L] option 2, [G] neither","key_press":76,"name":"choice","trial_type":"html-keyboard-response","trial_index":43,"time_elapsed":81671,"internal_node_id":"0.0-43.0","subject":"S1C1214","sona":"41439","block":6,"time":"2021-09-18T16:16:12.722Z","response":"2nd","certainty":"high","char":"L","transposition":-2,"order":["swapped","shifted"],"probe_pitches":[4,9,7,14,7,12,14,9,12,4,12,4],"shifted_pitches":[4,9,7,14,7,11,14,9,12,4,12,4],"swapped_pitches":[4,9,7,14,7,14,12,9,12,4,12,4],"shift_direction":-1,"question_num":31,"has_decoy":false},{"rt":789.2999999970198,"stimulus":"[A] option 1, [L] option 2, [G] neither","key_press":71,"name":"choice","trial_type":"html-keyboard-response","trial_index":54,"time_elapsed":100900,"internal_node_id":"0.0-54.0","subject":"S1C1214","sona":"41439","block":6,"time":"2021-09-18T16:16:12.722Z","response":"neither","certainty":"high","char":"G","transposition":-2,"order":["swapped","shifted"],"probe_pitches":[4,9,2,9,14,4,9,14,6,11,2,11],"shifted_pitches":[4,9,2,9,14,5,9,14,6,11,2,11],"swapped_pitches":[4,9,2,9,14,9,4,14,6,11,2,11],"shift_direction":1,"question_num":41,"has_decoy":false},{"rt":2134.1000000089407,"stimulus":"[A] option 1, [L] option 2, [G] neither","key_press":71,"name":"choice","trial_type":"html-keyboard-response","trial_index":65,"time_elapsed":121505,"internal_node_id":"0.0-65.0","subject":"S1C1214","sona":"41439","block":6,"time":"2021-09-18T16:16:12.722Z","response":"neither","certainty":"high","char":"G","transposition":1,"order":["shifted","swapped"],"probe_pitches":[8,2,-2,2,-1,3,8,7,9,5,9,0],"shifted_pitches":[8,2,-2,2,-1,4,8,7,9,5,9,0],"swapped_pitches":[8,2,-2,2,-1,8,3,7,9,5,9,0],"shift_direction":1,"question_num":51,"has_decoy":false},{"rt":2754.4000000059605,"stimulus":"[A] option 1, [L] option 2, [G] neither","key_press":71,"name":"choice","trial_type":"html-keyboard-response","trial_index":76,"time_elapsed":143181,"internal_node_id":"0.0-76.0","subject":"S1C1214","sona":"41439","block":6,"time":"2021-09-18T16:16:12.722Z","response":"neither","certainty":"high","char":"G","transposition":1,"order":["shifted","swapped"],"probe_pitches":[7,9,2,9,12,7,9,5,9,5,9,5],"shifted_pitches":[7,9,2,9,12,7,10,5,9,5,9,5],"swapped_pitches":[7,9,2,9,12,9,7,5,9,5,9,5],"shift_direction":1,"question_num":61,"has_decoy":false},{"rt":694.0999999940395,"stimulus":"[A] option 1, [L] option 2, [G] neither","key_press":71,"name":"choice","trial_type":"html-keyboard-response","trial_index":87,"time_elapsed":164433,"internal_node_id":"0.0-87.0","subject":"S1C1214","sona":"41439","block":6,"time":"2021-09-18T16:16:12.722Z","response":"neither","certainty":"high","char":"G","transposition":-3,"order":["shifted","swapped"],"probe_pitches":[12,7,14,12,10,2,5,14,2,10,7,14],"shifted_pitches":[12,7,14,12,10,1,5,14,2,10,7,14],"swapped_pitches":[12,7,14,12,10,5,2,14,2,10,7,14],"shift_direction":-1,"question_num":71,"has_decoy":false},{"rt":1459.7999999970198,"stimulus":"[A] option 1, [L] option 2, [G] neither","key_press":71,"name":"choice","trial_type":"html-keyboard-response","trial_index":98,"time_elapsed":184507,"internal_node_id":"0.0-98.0","subject":"S1C1214","sona":"41439","block":6,"time":"2021-09-18T16:16:12.722Z","response":"neither","certainty":"high","char":"G","transposition":-3,"order":["swapped","shifted"],"probe_pitches":[2,4,9,4,11,14,4,2,4,7,14,9],"shifted_pitches":[2,4,9,4,11,14,3,2,4,7,14,9],"swapped_pitches":[2,4,9,4,11,4,14,2,4,7,14,9],"shift_direction":-1,"question_num":81,"has_decoy":false},{"rt":1178.5999999940395,"stimulus":"[A] option 1, [L] option 2, [G] neither","key_press":71,"name":"choice","trial_type":"html-keyboard-response","trial_index":109,"time_elapsed":208339,"internal_node_id":"0.0-109.0","subject":"S1C1214","sona":"41439","block":6,"time":"2021-09-18T16:16:12.722Z","response":"neither","certainty":"high","char":"G","transposition":0,"order":["swapped","shifted"],"probe_pitches":[6,9,5,0,3,0,2,5,7,-1,2,4],"shifted_pitches":[6,9,5,0,3,0,1,5,7,-1,2,4],"swapped_pitches":[6,9,5,0,3,2,0,5,7,-1,2,4],"shift_direction":-1,"question_num":91,"has_decoy":false},{"rt":406.90000000596046,"stimulus":"[A] option 1, [L] option 2, [G] neither","key_press":76,"name":"choice","trial_type":"html-keyboard-response","trial_index":120,"time_elapsed":230056,"internal_node_id":"0.0-120.0","subject":"S1C1214","sona":"41439","block":6,"time":"2021-09-18T16:16:12.722Z","response":"2nd","certainty":"high","char":"L","transposition":-1,"order":["swapped","shifted"],"probe_pitches":[4,7,14,11,9,7,2,14,7,9,14,2],"shifted_pitches":[4,7,14,11,9,7,3,14,7,9,14,2],"swapped_pitches":[4,7,14,11,9,2,7,14,7,9,14,2],"shift_direction":1,"question_num":101,"has_decoy":false},{"rt":1092.2999999970198,"stimulus":"[A] option 1, [L] option 2, [G] neither","key_press":71,"name":"choice","trial_type":"html-keyboard-response","trial_index":131,"time_elapsed":249608,"internal_node_id":"0.0-131.0","subject":"S1C1214","sona":"41439","block":6,"time":"2021-09-18T16:16:12.722Z","response":"neither","certainty":"high","char":"G","transposition":-2,"order":["shifted","swapped"],"probe_pitches":[6,9,2,7,2,1,6,9,6,-2,-1,7],"shifted_pitches":[6,9,2,7,2,0,6,9,6,-2,-1,7],"swapped_pitches":[6,9,2,7,2,6,1,9,6,-2,-1,7],"shift_direction":-1,"question_num":111,"has_decoy":false},{"rt":1095.7000000029802,"stimulus":"[A] option 1, [L] option 2, [G] neither","key_press":76,"name":"choice","trial_type":"html-keyboard-response","trial_index":142,"time_elapsed":269888,"internal_node_id":"0.0-142.0","subject":"S1C1214","sona":"41439","block":6,"time":"2021-09-18T16:16:12.722Z","response":"2nd","certainty":"high","char":"L","transposition":-1,"order":["shifted","swapped"],"probe_pitches":[7,4,2,3,0,1,4,10,9,-1,0,10],"shifted_pitches":[7,4,2,3,0,1,5,10,9,-1,0,10],"swapped_pitches":[7,4,2,3,0,4,1,10,9,-1,0,10],"shift_direction":1,"question_num":121,"has_decoy":false},{"rt":938.1000000089407,"stimulus":"[A] option 1, [L] option 2, [G] neither","key_press":71,"name":"choice","trial_type":"html-keyboard-response","trial_index":153,"time_elapsed":289851,"internal_node_id":"0.0-153.0","subject":"S1C1214","sona":"41439","block":6,"time":"2021-09-18T16:16:12.722Z","response":"neither","certainty":"high","char":"G","transposition":0,"order":["shifted","swapped"],"probe_pitches":[5,7,9,12,14,9,2,5,2,5,7,12],"shifted_pitches":[5,7,9,12,14,8,2,5,2,5,7,12],"swapped_pitches":[5,7,9,12,14,2,9,5,2,5,7,12],"shift_direction":-1,"question_num":131,"has_decoy":false},{"rt":1689,"stimulus":"[A] option 1, [L] option 2, [G] neither","key_press":71,"name":"choice","trial_type":"html-keyboard-response","trial_index":164,"time_elapsed":310019,"internal_node_id":"0.0-164.0","subject":"S1C1214","sona":"41439","block":6,"time":"2021-09-18T16:16:12.722Z","response":"neither","certainty":"high","char":"G","transposition":-3,"order":["swapped","shifted"],"probe_pitches":[3,1,8,3,6,0,1,4,10,-2,5,6],"shifted_pitches":[3,1,8,3,6,0,2,4,10,-2,5,6],"swapped_pitches":[3,1,8,3,6,1,0,4,10,-2,5,6],"shift_direction":1,"question_num":141,"has_decoy":false},{"rt":1061.7000000029802,"stimulus":"[A] option 1, [L] option 2, [G] neither","key_press":71,"name":"choice","trial_type":"html-keyboard-response","trial_index":175,"time_elapsed":329524,"internal_node_id":"0.0-175.0","subject":"S1C1214","sona":"41439","block":6,"time":"2021-09-18T16:16:12.722Z","response":"neither","certainty":"high","char":"G","transposition":2,"order":["shifted","swapped"],"probe_pitches":[6,11,6,2,11,14,4,6,11,6,9,6],"shifted_pitches":[6,11,6,2,11,15,4,6,11,6,9,6],"swapped_pitches":[6,11,6,2,11,4,14,6,11,6,9,6],"shift_direction":1,"question_num":151,"has_decoy":false},{"rt":1640.2999999970198,"stimulus":"[A] option 1, [L] option 2, [G] neither","key_press":71,"name":"choice","trial_type":"html-keyboard-response","trial_index":186,"time_elapsed":350409,"internal_node_id":"0.0-186.0","subject":"S1C1214","sona":"41439","block":6,"time":"2021-09-18T16:16:12.722Z","response":"neither","certainty":"high","char":"G","transposition":2,"order":["swapped","shifted"],"probe_pitches":[5,-1,6,0,4,8,1,5,0,-2,4,10],"shifted_pitches":[5,-1,6,0,4,9,1,5,0,-2,4,10],"swapped_pitches":[5,-1,6,0,4,1,8,5,0,-2,4,10],"shift_direction":1,"question_num":161,"has_decoy":false},{"rt":894.2000000029802,"stimulus":"[A] option 1, [L] option 2, [G] neither","key_press":76,"name":"choice","trial_type":"html-keyboard-response","trial_index":197,"time_elapsed":370375,"internal_node_id":"0.0-197.0","subject":"S1C1214","sona":"41439","block":6,"time":"2021-09-18T16:16:12.722Z","response":"2nd","certainty":"high","char":"L","transposition":-2,"order":["shifted","swapped"],"probe_pitches":[2,3,5,7,2,9,-2,5,-2,5,1,0],"shifted_pitches":[2,3,5,7,2,8,-2,5,-2,5,1,0],"swapped_pitches":[2,3,5,7,2,-2,9,5,-2,5,1,0],"shift_direction":-1,"question_num":171,"has_decoy":false},{"rt":954.2000000029802,"stimulus":"[A] option 1, [L] option 2, [G] neither","key_press":71,"name":"choice","trial_type":"html-keyboard-response","trial_index":208,"time_elapsed":390131,"internal_node_id":"0.0-208.0","subject":"S1C1214","sona":"41439","block":6,"time":"2021-09-18T16:16:12.722Z","response":"neither","certainty":"high","char":"G","transposition":3,"order":["swapped","shifted"],"probe_pitches":[7,12,7,14,5,14,7,10,2,7,10,2],"shifted_pitches":[7,12,7,14,5,14,6,10,2,7,10,2],"swapped_pitches":[7,12,7,14,5,7,14,10,2,7,10,2],"shift_direction":-1,"question_num":181,"has_decoy":false},{"rt":1070.4000000059605,"stimulus":"[A] option 1, [L] option 2, [G] neither","key_press":71,"name":"choice","trial_type":"html-keyboard-response","trial_index":219,"time_elapsed":409677,"internal_node_id":"0.0-219.0","subject":"S1C1214","sona":"41439","block":6,"time":"2021-09-18T16:16:12.722Z","response":"neither","certainty":"high","char":"G","transposition":-3,"order":["swapped","shifted"],"probe_pitches":[0,3,10,4,10,9,7,8,4,0,4,1],"shifted_pitches":[0,3,10,4,10,9,6,8,4,0,4,1],"swapped_pitches":[0,3,10,4,10,7,9,8,4,0,4,1],"shift_direction":-1,"question_num":191,"has_decoy":false}]