[{"rt":394,"stimulus":"[A] option 1, [L] option 2, [G] neither","key_press":76,"name":"choice","trial_type":"html-keyboard-response","trial_index":10,"time_elapsed":22861,"internal_node_id":"0.0-10.0","subject":"S1C1214","sona":"41439","block":2,"time":"2021-09-17T16:12:13.463Z","response":"2nd","certainty":"high","char":"L","transposition":3,"order":["swapped","shifted"],"probe_pitches":[6,10,3,6,8,13,10,6,13,15,8,10],"shifted_pitches":[6,10,3,6,8,14,10,6,13,15,8,10],"swapped_pitches":[6,10,3,6,8,10,13,6,13,15,8,10],"shift_direction":1,"question_num":1,"has_decoy":false},{"rt":768.6000000089407,"stimulus":"[A] option 1, [L] option 2, [G] neither","key_press":71,"name":"choice","trial_type":"html-keyboard-response","trial_index":21,"time_elapsed":42101,"internal_node_id":"0.0-21.0","subject":"S1C1214","sona":"41439","block":2,"time":"2021-09-17T16:12:13.463Z","response":"neither","certainty":"high","char":"G","transposition":-3,"order":["swapped","shifted"],"probe_pitches":[13,11,8,6,15,8,3,11,15,8,3,11],"shifted_pitches":[13,11,8,6,15,8,4,11,15,8,3,11],"swapped_pitches":[13,11,8,6,15,3,8,11,15,8,3,11],"shift_direction":1,"question_num":11,"has_decoy":false},{"rt":1030.2000000029802,"stimulus":"[A] option 1, [L] option 2, [G] neither","key_press":76,"name":"choice","trial_type":"html-keyboard-response","trial_index":32,"time_elapsed":63122,"internal_node_id":"0.0-32.0","subject":"S1C1214","sona":"41439","block":2,"time":"2021-09-17T16:12:13.463Z","response":"2nd","certainty":"high","char":"L","transposition":-3,"order":["swapped","shifted"],"probe_pitches":[12,8,10,15,10,8,5,3,10,3,8,12],"shifted_pitches":[12,8,10,15,10,8,4,3,10,3,8,12],"swapped_pitches":[12,8,10,15,10,5,8,3,10,3,8,12],"shift_direction":-1,"question_num":21,"has_decoy":false},{"rt":1071.5,"stimulus":"[A] option 1, [L] option 2, [G] neither","key_press":71,"name":"choice","trial_type":"html-keyboard-response","trial_index":43,"time_elapsed":83527,"internal_node_id":"0.0-43.0","subject":"S1C1214","sona":"41439","block":2,"time":"2021-09-17T16:12:13.463Z","response":"neither","certainty":"high","char":"G","transposition":-2,"order":["swapped","shifted"],"probe_pitches":[-1,0,4,5,-1,8,3,9,-1,1,2,3],"shifted_pitches":[-1,0,4,5,-1,7,3,9,-1,1,2,3],"swapped_pitches":[-1,0,4,5,-1,3,8,9,-1,1,2,3],"shift_direction":-1,"question_num":31,"has_decoy":false},{"rt":3260.1000000089407,"stimulus":"[A] option 1, [L] option 2, [G] neither","key_press":71,"name":"choice","trial_type":"html-keyboard-response","trial_index":54,"time_elapsed":105581,"internal_node_id":"0.0-54.0","subject":"S1C1214","sona":"41439","block":2,"time":"2021-09-17T16:12:13.463Z","response":"neither","certainty":"high","char":"G","transposition":-1,"order":["shifted","swapped"],"probe_pitches":[6,7,5,0,1,7,9,2,0,10,3,10],"shifted_pitches":[6,7,5,0,1,8,9,2,0,10,3,10],"swapped_pitches":[6,7,5,0,1,9,7,2,0,10,3,10],"shift_direction":1,"question_num":41,"has_decoy":false},{"rt":832.6999999880791,"stimulus":"[A] option 1, [L] option 2, [G] neither","key_press":71,"name":"choice","trial_type":"html-keyboard-response","trial_index":65,"time_elapsed":125329,"internal_node_id":"0.0-65.0","subject":"S1C1214","sona":"41439","block":2,"time":"2021-09-17T16:12:13.463Z","response":"neither","certainty":"high","char":"G","transposition":-1,"order":["shifted","swapped"],"probe_pitches":[1,0,5,2,5,8,0,10,3,6,8,3],"shifted_pitches":[1,0,5,2,5,9,0,10,3,6,8,3],"swapped_pitches":[1,0,5,2,5,0,8,10,3,6,8,3],"shift_direction":1,"question_num":51,"has_decoy":false},{"rt":1322.7999999970198,"stimulus":"[A] option 1, [L] option 2, [G] neither","key_press":71,"name":"choice","trial_type":"html-keyboard-response","trial_index":76,"time_elapsed":146090,"internal_node_id":"0.0-76.0","subject":"S1C1214","sona":"41439","block":2,"time":"2021-09-17T16:12:13.463Z","response":"neither","certainty":"high","char":"G","transposition":-2,"order":["swapped","shifted"],"probe_pitches":[3,6,11,6,13,11,3,8,11,8,3,8],"shifted_pitches":[3,6,11,6,13,10,3,8,11,8,3,8],"swapped_pitches":[3,6,11,6,13,3,11,8,11,8,3,8],"shift_direction":-1,"question_num":61,"has_decoy":false},{"rt":1221.0999999940395,"stimulus":"[A] option 1, [L] option 2, [G] neither","key_press":65,"name":"choice","trial_type":"html-keyboard-response","trial_index":87,"time_elapsed":166155,"internal_node_id":"0.0-87.0","subject":"S1C1214","sona":"41439","block":2,"time":"2021-09-17T16:12:13.463Z","response":"1st","certainty":"high","char":"A","transposition":2,"order":["shifted","swapped"],"probe_pitches":[15,10,12,7,10,5,15,7,10,12,3,7],"shifted_pitches":[15,10,12,7,10,5,14,7,10,12,3,7],"swapped_pitches":[15,10,12,7,10,15,5,7,10,12,3,7],"shift_direction":-1,"question_num":71,"has_decoy":false},{"rt":1593.8999999910593,"stimulus":"[A] option 1, [L] option 2, [G] neither","key_press":65,"name":"choice","trial_type":"html-keyboard-response","trial_index":98,"time_elapsed":186253,"internal_node_id":"0.0-98.0","subject":"S1C1214","sona":"41439","block":2,"time":"2021-09-17T16:12:13.463Z","response":"1st","certainty":"high","char":"A","transposition":-2,"order":["shifted","swapped"],"probe_pitches":[3,5,7,12,15,10,3,12,10,12,10,15],"shifted_pitches":[3,5,7,12,15,10,2,12,10,12,10,15],"swapped_pitches":[3,5,7,12,15,3,10,12,10,12,10,15],"shift_direction":-1,"question_num":81,"has_decoy":false},{"rt":1113.2999999970198,"stimulus":"[A] option 1, [L] option 2, [G] neither","key_press":71,"name":"choice","trial_type":"html-keyboard-response","trial_index":109,"time_elapsed":206118,"internal_node_id":"0.0-109.0","subject":"S1C1214","sona":"41439","block":2,"time":"2021-09-17T16:12:13.463Z","response":"neither","certainty":"high","char":"G","transposition":1,"order":["shifted","swapped"],"probe_pitches":[15,13,10,15,13,10,5,13,8,10,5,10],"shifted_pitches":[15,13,10,15,13,11,5,13,8,10,5,10],"swapped_pitches":[15,13,10,15,13,5,10,13,8,10,5,10],"shift_direction":1,"question_num":91,"has_decoy":false},{"rt":2439,"stimulus":"[A] option 1, [L] option 2, [G] neither","key_press":65,"name":"choice","trial_type":"html-keyboard-response","trial_index":120,"time_elapsed":226891,"internal_node_id":"0.0-120.0","subject":"S1C1214","sona":"41439","block":2,"time":"2021-09-17T16:12:13.463Z","response":"1st","certainty":"high","char":"A","transposition":0,"order":["swapped","shifted"],"probe_pitches":[9,5,10,9,0,2,5,9,-1,10,0,10],"shifted_pitches":[9,5,10,9,0,2,6,9,-1,10,0,10],"swapped_pitches":[9,5,10,9,0,5,2,9,-1,10,0,10],"shift_direction":1,"question_num":101,"has_decoy":false},{"rt":680.8000000119209,"stimulus":"[A] option 1, [L] option 2, [G] neither","key_press":71,"name":"choice","trial_type":"html-keyboard-response","trial_index":131,"time_elapsed":246020,"internal_node_id":"0.0-131.0","subject":"S1C1214","sona":"41439","block":2,"time":"2021-09-17T16:12:13.463Z","response":"neither","certainty":"high","char":"G","transposition":-1,"order":["shifted","swapped"],"probe_pitches":[15,10,5,12,3,8,12,15,5,15,3,12],"shifted_pitches":[15,10,5,12,3,7,12,15,5,15,3,12],"swapped_pitches":[15,10,5,12,3,12,8,15,5,15,3,12],"shift_direction":-1,"question_num":111,"has_decoy":false},{"rt":1277.2999999970198,"stimulus":"[A] option 1, [L] option 2, [G] neither","key_press":71,"name":"choice","trial_type":"html-keyboard-response","trial_index":142,"time_elapsed":265773,"internal_node_id":"0.0-142.0","subject":"S1C1214","sona":"41439","block":2,"time":"2021-09-17T16:12:13.463Z","response":"neither","certainty":"high","char":"G","transposition":2,"order":["shifted","swapped"],"probe_pitches":[0,2,7,11,5,2,6,8,5,10,5,2],"shifted_pitches":[0,2,7,11,5,1,6,8,5,10,5,2],"swapped_pitches":[0,2,7,11,5,6,2,8,5,10,5,2],"shift_direction":-1,"question_num":121,"has_decoy":false},{"rt":966.5,"stimulus":"[A] option 1, [L] option 2, [G] neither","key_press":71,"name":"choice","trial_type":"html-keyboard-response","trial_index":153,"time_elapsed":286430,"internal_node_id":"0.0-153.0","subject":"S1C1214","sona":"41439","block":2,"time":"2021-09-17T16:12:13.463Z","response":"neither","certainty":"high","char":"G","transposition":-3,"order":["shifted","swapped"],"probe_pitches":[-1,4,6,-1,1,6,3,8,1,3,11,3],"shifted_pitches":[-1,4,6,-1,1,6,2,8,1,3,11,3],"swapped_pitches":[-1,4,6,-1,1,3,6,8,1,3,11,3],"shift_direction":-1,"question_num":131,"has_decoy":false},{"rt":903.9000000059605,"stimulus":"[A] option 1, [L] option 2, [G] neither","key_press":65,"name":"choice","trial_type":"html-keyboard-response","trial_index":164,"time_elapsed":306458,"internal_node_id":"0.0-164.0","subject":"S1C1214","sona":"41439","block":2,"time":"2021-09-17T16:12:13.463Z","response":"1st","certainty":"high","char":"A","transposition":-1,"order":["shifted","swapped"],"probe_pitches":[8,10,13,15,6,13,8,3,10,3,13,15],"shifted_pitches":[8,10,13,15,6,14,8,3,10,3,13,15],"swapped_pitches":[8,10,13,15,6,8,13,3,10,3,13,15],"shift_direction":1,"question_num":141,"has_decoy":false},{"rt":1454.2999999970198,"stimulus":"[A] option 1, [L] option 2, [G] neither","key_press":65,"name":"choice","trial_type":"html-keyboard-response","trial_index":175,"time_elapsed":326334,"internal_node_id":"0.0-175.0","subject":"S1C1214","sona":"41439","block":2,"time":"2021-09-17T16:12:13.463Z","response":"1st","certainty":"high","char":"A","transposition":-2,"order":["shifted","swapped"],"probe_pitches":[-1,3,0,1,2,11,9,3,8,6,2,3],"shifted_pitches":[-1,3,0,1,2,11,10,3,8,6,2,3],"swapped_pitches":[-1,3,0,1,2,9,11,3,8,6,2,3],"shift_direction":1,"question_num":151,"has_decoy":false},{"rt":2665,"stimulus":"[A] option 1, [L] option 2, [G] neither","key_press":76,"name":"choice","trial_type":"html-keyboard-response","trial_index":186,"time_elapsed":347339,"internal_node_id":"0.0-186.0","subject":"S1C1214","sona":"41439","block":2,"time":"2021-09-17T16:12:13.463Z","response":"2nd","certainty":"high","char":"L","transposition":0,"order":["swapped","shifted"],"probe_pitches":[13,10,13,15,8,3,10,5,15,5,3,15],"shifted_pitches":[13,10,13,15,8,3,11,5,15,5,3,15],"swapped_pitches":[13,10,13,15,8,10,3,5,15,5,3,15],"shift_direction":1,"question_num":161,"has_decoy":false},{"rt":1174.199999988079,"stimulus":"[A] option 1, [L] option 2, [G] neither","key_press":71,"name":"choice","trial_type":"html-keyboard-response","trial_index":197,"time_elapsed":367560,"internal_node_id":"0.0-197.0","subject":"S1C1214","sona":"41439","block":2,"time":"2021-09-17T16:12:13.463Z","response":"neither","certainty":"high","char":"G","transposition":3,"order":["swapped","shifted"],"probe_pitches":[10,4,8,9,1,11,6,10,9,3,1,8],"shifted_pitches":[10,4,8,9,1,11,5,10,9,3,1,8],"swapped_pitches":[10,4,8,9,1,6,11,10,9,3,1,8],"shift_direction":-1,"question_num":171,"has_decoy":false},{"rt":1716.5999999940395,"stimulus":"[A] option 1, [L] option 2, [G] neither","key_press":71,"name":"choice","trial_type":"html-keyboard-response","trial_index":208,"time_elapsed":388605,"internal_node_id":"0.0-208.0","subject":"S1C1214","sona":"41439","block":2,"time":"2021-09-17T16:12:13.463Z","response":"neither","certainty":"high","char":"G","transposition":-3,"order":["swapped","shifted"],"probe_pitches":[6,7,1,4,-1,8,2,10,2,8,0,10],"shifted_pitches":[6,7,1,4,-1,8,3,10,2,8,0,10],"swapped_pitches":[6,7,1,4,-1,2,8,10,2,8,0,10],"shift_direction":1,"question_num":181,"has_decoy":false},{"rt":948.9000000059605,"stimulus":"[A] option 1, [L] option 2, [G] neither","key_press":71,"name":"choice","trial_type":"html-keyboard-response","trial_index":219,"time_elapsed":408713,"internal_node_id":"0.0-219.0","subject":"S1C1214","sona":"41439","block":2,"time":"2021-09-17T16:12:13.463Z","response":"neither","certainty":"high","char":"G","transposition":1,"order":["swapped","shifted"],"probe_pitches":[0,3,0,3,-1,5,0,2,10,1,9,6],"shifted_pitches":[0,3,0,3,-1,4,0,2,10,1,9,6],"swapped_pitches":[0,3,0,3,-1,0,5,2,10,1,9,6],"shift_direction":-1,"question_num":191,"has_decoy":false}]