[{"rt":1901.6000000089407,"stimulus":"[A] option 1, [L] option 2, [G] neither","key_press":76,"name":"choice","trial_type":"html-keyboard-response","trial_index":10,"time_elapsed":22875,"internal_node_id":"0.0-10.0","subject":"S1C1214","sona":"41439","block":3,"time":"2021-09-17T16:32:44.135Z","response":"2nd","certainty":"high","char":"L","transposition":0,"order":["shifted","swapped"],"probe_pitches":[2,8,1,8,7,6,9,3,6,7,3,5],"shifted_pitches":[2,8,1,8,7,6,10,3,6,7,3,5],"swapped_pitches":[2,8,1,8,7,9,6,3,6,7,3,5],"shift_direction":1,"question_num":1,"has_decoy":false},{"rt":929.5,"stimulus":"[A] option 1, [L] option 2, [G] neither","key_press":76,"name":"choice","trial_type":"html-keyboard-response","trial_index":21,"time_elapsed":42952,"internal_node_id":"0.0-21.0","subject":"S1C1214","sona":"41439","block":3,"time":"2021-09-17T16:32:44.135Z","response":"2nd","certainty":"high","char":"L","transposition":0,"order":["swapped","shifted"],"probe_pitches":[13,8,10,3,1,6,13,3,13,8,10,1],"shifted_pitches":[13,8,10,3,1,6,12,3,13,8,10,1],"swapped_pitches":[13,8,10,3,1,13,6,3,13,8,10,1],"shift_direction":-1,"question_num":11,"has_decoy":false},{"rt":882.2000000029802,"stimulus":"[A] option 1, [L] option 2, [G] neither","key_press":76,"name":"choice","trial_type":"html-keyboard-response","trial_index":32,"time_elapsed":62566,"internal_node_id":"0.0-32.0","subject":"S1C1214","sona":"41439","block":3,"time":"2021-09-17T16:32:44.135Z","response":"2nd","certainty":"high","char":"L","transposition":3,"order":["swapped","shifted"],"probe_pitches":[6,11,4,9,6,4,11,13,4,9,6,13],"shifted_pitches":[6,11,4,9,6,4,12,13,4,9,6,13],"swapped_pitches":[6,11,4,9,6,11,4,13,4,9,6,13],"shift_direction":1,"question_num":21,"has_decoy":false},{"rt":1219.3999999910593,"stimulus":"[A] option 1, [L] option 2, [G] neither","key_press":71,"name":"choice","trial_type":"html-keyboard-response","trial_index":43,"time_elapsed":83145,"internal_node_id":"0.0-43.0","subject":"S1C1214","sona":"41439","block":3,"time":"2021-09-17T16:32:44.135Z","response":"neither","certainty":"high","char":"G","transposition":-3,"order":["shifted","swapped"],"probe_pitches":[6,1,6,13,10,6,8,3,6,3,8,6],"shifted_pitches":[6,1,6,13,10,7,8,3,6,3,8,6],"swapped_pitches":[6,1,6,13,10,8,6,3,6,3,8,6],"shift_direction":1,"question_num":31,"has_decoy":false},{"rt":686,"stimulus":"[A] option 1, [L] option 2, [G] neither","key_press":71,"name":"choice","trial_type":"html-keyboard-response","trial_index":54,"time_elapsed":106029,"internal_node_id":"0.0-54.0","subject":"S1C1214","sona":"41439","block":3,"time":"2021-09-17T16:32:44.135Z","response":"neither","certainty":"high","char":"G","transposition":-2,"order":["shifted","swapped"],"probe_pitches":[8,11,4,0,9,6,1,3,8,2,9,10],"shifted_pitches":[8,11,4,0,9,7,1,3,8,2,9,10],"swapped_pitches":[8,11,4,0,9,1,6,3,8,2,9,10],"shift_direction":1,"question_num":41,"has_decoy":false},{"rt":749.2000000029802,"stimulus":"[A] option 1, [L] option 2, [G] neither","key_press":76,"name":"choice","trial_type":"html-keyboard-response","trial_index":65,"time_elapsed":302265,"internal_node_id":"0.0-65.0","subject":"S1C1214","sona":"41439","block":3,"time":"2021-09-17T16:32:44.135Z","response":"2nd","certainty":"high","char":"L","transposition":-3,"order":["swapped","shifted"],"probe_pitches":[13,8,13,11,8,4,13,6,11,8,1,8],"shifted_pitches":[13,8,13,11,8,5,13,6,11,8,1,8],"swapped_pitches":[13,8,13,11,8,13,4,6,11,8,1,8],"shift_direction":1,"question_num":51,"has_decoy":false},{"rt":835.2000000029802,"stimulus":"[A] option 1, [L] option 2, [G] neither","key_press":71,"name":"choice","trial_type":"html-keyboard-response","trial_index":76,"time_elapsed":325263,"internal_node_id":"0.0-76.0","subject":"S1C1214","sona":"41439","block":3,"time":"2021-09-17T16:32:44.135Z","response":"neither","certainty":"high","char":"G","transposition":-2,"order":["shifted","swapped"],"probe_pitches":[1,3,5,13,5,8,10,13,5,1,3,1],"shifted_pitches":[1,3,5,13,5,9,10,13,5,1,3,1],"swapped_pitches":[1,3,5,13,5,10,8,13,5,1,3,1],"shift_direction":1,"question_num":61,"has_decoy":false},{"rt":2081.3999999910593,"stimulus":"[A] option 1, [L] option 2, [G] neither","key_press":71,"name":"choice","trial_type":"html-keyboard-response","trial_index":87,"time_elapsed":346821,"internal_node_id":"0.0-87.0","subject":"S1C1214","sona":"41439","block":3,"time":"2021-09-17T16:32:44.135Z","response":"neither","certainty":"high","char":"G","transposition":1,"order":["swapped","shifted"],"probe_pitches":[11,12,7,11,2,1,8,11,5,6,4,8],"shifted_pitches":[11,12,7,11,2,1,9,11,5,6,4,8],"swapped_pitches":[11,12,7,11,2,8,1,11,5,6,4,8],"shift_direction":1,"question_num":71,"has_decoy":false},{"rt":739.8999999910593,"stimulus":"[A] option 1, [L] option 2, [G] neither","key_press":71,"name":"choice","trial_type":"html-keyboard-response","trial_index":98,"time_elapsed":368172,"internal_node_id":"0.0-98.0","subject":"S1C1214","sona":"41439","block":3,"time":"2021-09-17T16:32:44.135Z","response":"neither","certainty":"high","char":"G","transposition":3,"order":["shifted","swapped"],"probe_pitches":[6,4,6,5,9,7,11,5,9,10,6,2],"shifted_pitches":[6,4,6,5,9,8,11,5,9,10,6,2],"swapped_pitches":[6,4,6,5,9,11,7,5,9,10,6,2],"shift_direction":1,"question_num":81,"has_decoy":false},{"rt":6178.29999999702,"stimulus":"[A] option 1, [L] option 2, [G] neither","key_press":71,"name":"choice","trial_type":"html-keyboard-response","trial_index":109,"time_elapsed":393997,"internal_node_id":"0.0-109.0","subject":"S1C1214","sona":"41439","block":3,"time":"2021-09-17T16:32:44.135Z","response":"neither","certainty":"high","char":"G","transposition":2,"order":["shifted","swapped"],"probe_pitches":[7,10,11,12,4,11,6,3,10,12,1,8],"shifted_pitches":[7,10,11,12,4,11,5,3,10,12,1,8],"swapped_pitches":[7,10,11,12,4,6,11,3,10,12,1,8],"shift_direction":-1,"question_num":91,"has_decoy":false},{"rt":985.7999999970198,"stimulus":"[A] option 1, [L] option 2, [G] neither","key_press":71,"name":"choice","trial_type":"html-keyboard-response","trial_index":120,"time_elapsed":414097,"internal_node_id":"0.0-120.0","subject":"S1C1214","sona":"41439","block":3,"time":"2021-09-17T16:32:44.135Z","response":"neither","certainty":"high","char":"G","transposition":2,"order":["shifted","swapped"],"probe_pitches":[1,3,5,8,1,10,5,1,13,1,10,1],"shifted_pitches":[1,3,5,8,1,11,5,1,13,1,10,1],"swapped_pitches":[1,3,5,8,1,5,10,1,13,1,10,1],"shift_direction":1,"question_num":101,"has_decoy":false},{"rt":1112.0999999940395,"stimulus":"[A] option 1, [L] option 2, [G] neither","key_press":71,"name":"choice","trial_type":"html-keyboard-response","trial_index":131,"time_elapsed":434663,"internal_node_id":"0.0-131.0","subject":"S1C1214","sona":"41439","block":3,"time":"2021-09-17T16:32:44.135Z","response":"neither","certainty":"high","char":"G","transposition":-1,"order":["shifted","swapped"],"probe_pitches":[13,11,8,3,11,1,6,13,11,13,3,11],"shifted_pitches":[13,11,8,3,11,0,6,13,11,13,3,11],"swapped_pitches":[13,11,8,3,11,6,1,13,11,13,3,11],"shift_direction":-1,"question_num":111,"has_decoy":false},{"rt":1285.2999999970198,"stimulus":"[A] option 1, [L] option 2, [G] neither","key_press":65,"name":"choice","trial_type":"html-keyboard-response","trial_index":142,"time_elapsed":455682,"internal_node_id":"0.0-142.0","subject":"S1C1214","sona":"41439","block":3,"time":"2021-09-17T16:32:44.135Z","response":"1st","certainty":"high","char":"A","transposition":1,"order":["shifted","swapped"],"probe_pitches":[11,13,6,9,13,6,4,9,6,4,11,6],"shifted_pitches":[11,13,6,9,13,6,3,9,6,4,11,6],"swapped_pitches":[11,13,6,9,13,4,6,9,6,4,11,6],"shift_direction":-1,"question_num":121,"has_decoy":false},{"rt":873.6000000089407,"stimulus":"[A] option 1, [L] option 2, [G] neither","key_press":71,"name":"choice","trial_type":"html-keyboard-response","trial_index":153,"time_elapsed":475599,"internal_node_id":"0.0-153.0","subject":"S1C1214","sona":"41439","block":3,"time":"2021-09-17T16:32:44.135Z","response":"neither","certainty":"high","char":"G","transposition":-1,"order":["swapped","shifted"],"probe_pitches":[5,11,10,11,4,5,3,8,12,0,10,8],"shifted_pitches":[5,11,10,11,4,6,3,8,12,0,10,8],"swapped_pitches":[5,11,10,11,4,3,5,8,12,0,10,8],"shift_direction":1,"question_num":131,"has_decoy":false},{"rt":1356.300000011921,"stimulus":"[A] option 1, [L] option 2, [G] neither","key_press":76,"name":"choice","trial_type":"html-keyboard-response","trial_index":164,"time_elapsed":496005,"internal_node_id":"0.0-164.0","subject":"S1C1214","sona":"41439","block":3,"time":"2021-09-17T16:32:44.135Z","response":"2nd","certainty":"high","char":"L","transposition":-3,"order":["shifted","swapped"],"probe_pitches":[7,10,8,11,2,1,4,11,4,7,4,11],"shifted_pitches":[7,10,8,11,2,1,3,11,4,7,4,11],"swapped_pitches":[7,10,8,11,2,4,1,11,4,7,4,11],"shift_direction":-1,"question_num":141,"has_decoy":false},{"rt":902.2000000029802,"stimulus":"[A] option 1, [L] option 2, [G] neither","key_press":76,"name":"choice","trial_type":"html-keyboard-response","trial_index":175,"time_elapsed":516223,"internal_node_id":"0.0-175.0","subject":"S1C1214","sona":"41439","block":3,"time":"2021-09-17T16:32:44.135Z","response":"2nd","certainty":"high","char":"L","transposition":-2,"order":["swapped","shifted"],"probe_pitches":[1,5,11,8,7,3,12,1,3,1,3,8],"shifted_pitches":[1,5,11,8,7,2,12,1,3,1,3,8],"swapped_pitches":[1,5,11,8,7,12,3,1,3,1,3,8],"shift_direction":-1,"question_num":151,"has_decoy":false},{"rt":751.1999999880791,"stimulus":"[A] option 1, [L] option 2, [G] neither","key_press":71,"name":"choice","trial_type":"html-keyboard-response","trial_index":186,"time_elapsed":536429,"internal_node_id":"0.0-186.0","subject":"S1C1214","sona":"41439","block":3,"time":"2021-09-17T16:32:44.135Z","response":"neither","certainty":"high","char":"G","transposition":-1,"order":["swapped","shifted"],"probe_pitches":[6,1,8,1,8,11,13,1,3,11,13,11],"shifted_pitches":[6,1,8,1,8,11,12,1,3,11,13,11],"swapped_pitches":[6,1,8,1,8,13,11,1,3,11,13,11],"shift_direction":-1,"question_num":161,"has_decoy":false},{"rt":4039.2999999970198,"stimulus":"[A] option 1, [L] option 2, [G] neither","key_press":76,"name":"choice","trial_type":"html-keyboard-response","trial_index":197,"time_elapsed":559234,"internal_node_id":"0.0-197.0","subject":"S1C1214","sona":"41439","block":3,"time":"2021-09-17T16:32:44.135Z","response":"2nd","certainty":"high","char":"L","transposition":-3,"order":["swapped","shifted"],"probe_pitches":[2,1,0,1,9,4,12,10,6,2,4,6],"shifted_pitches":[2,1,0,1,9,4,11,10,6,2,4,6],"swapped_pitches":[2,1,0,1,9,12,4,10,6,2,4,6],"shift_direction":-1,"question_num":171,"has_decoy":false},{"rt":1907.699999988079,"stimulus":"[A] option 1, [L] option 2, [G] neither","key_press":71,"name":"choice","trial_type":"html-keyboard-response","trial_index":208,"time_elapsed":580119,"internal_node_id":"0.0-208.0","subject":"S1C1214","sona":"41439","block":3,"time":"2021-09-17T16:32:44.135Z","response":"neither","certainty":"high","char":"G","transposition":-2,"order":["swapped","shifted"],"probe_pitches":[4,8,6,11,4,8,11,13,11,6,13,6],"shifted_pitches":[4,8,6,11,4,8,10,13,11,6,13,6],"swapped_pitches":[4,8,6,11,4,11,8,13,11,6,13,6],"shift_direction":-1,"question_num":181,"has_decoy":false},{"rt":530.3999999910593,"stimulus":"[A] option 1, [L] option 2, [G] neither","key_press":71,"name":"choice","trial_type":"html-keyboard-response","trial_index":219,"time_elapsed":599600,"internal_node_id":"0.0-219.0","subject":"S1C1214","sona":"41439","block":3,"time":"2021-09-17T16:32:44.135Z","response":"neither","certainty":"high","char":"G","transposition":-1,"order":["swapped","shifted"],"probe_pitches":[0,3,6,8,11,5,6,0,8,3,9,8],"shifted_pitches":[0,3,6,8,11,4,6,0,8,3,9,8],"swapped_pitches":[0,3,6,8,11,6,5,0,8,3,9,8],"shift_direction":-1,"question_num":191,"has_decoy":false}]