[{"rt":5141.100000023842,"stimulus":"[A] option 1, [L] option 2, [G] neither","key_press":76,"name":"choice","trial_type":"html-keyboard-response","trial_index":10,"time_elapsed":33033,"internal_node_id":"0.0-10.0","subject":"S1C1627","sona":"41740","block":3,"time":"2021-09-17T19:52:04.736Z","response":"2nd","certainty":"high","char":"L","transposition":-1,"order":["swapped","shifted"],"probe_pitches":[5,3,6,13,11,12,7,11,3,5,8,11,6,13,14,11],"shifted_pitches":[5,3,6,13,11,12,7,10,3,5,8,11,6,13,14,11],"swapped_pitches":[5,3,6,13,11,12,7,3,11,5,8,11,6,13,14,11],"shift_direction":-1,"question_num":1,"has_decoy":false},{"rt":709.6999999284744,"stimulus":"[A] option 1, [L] option 2, [G] neither","key_press":65,"name":"choice","trial_type":"html-keyboard-response","trial_index":21,"time_elapsed":57218,"internal_node_id":"0.0-21.0","subject":"S1C1627","sona":"41740","block":3,"time":"2021-09-17T19:52:04.736Z","response":"1st","certainty":"high","char":"A","transposition":-3,"order":["shifted","swapped"],"probe_pitches":[5,6,11,8,4,11,5,14,11,7,5,14,3,14,4,9],"shifted_pitches":[5,6,11,8,4,11,5,13,11,7,5,14,3,14,4,9],"swapped_pitches":[5,6,11,8,4,11,5,11,14,7,5,14,3,14,4,9],"shift_direction":-1,"question_num":11,"has_decoy":false},{"rt":3407.1999999284744,"stimulus":"[A] option 1, [L] option 2, [G] neither","key_press":65,"name":"choice","trial_type":"html-keyboard-response","trial_index":32,"time_elapsed":83871,"internal_node_id":"0.0-32.0","subject":"S1C1627","sona":"41740","block":3,"time":"2021-09-17T19:52:04.736Z","response":"1st","certainty":"high","char":"A","transposition":-3,"order":["swapped","shifted"],"probe_pitches":[9,10,13,11,6,11,14,12,4,14,9,15,7,10,13,9],"shifted_pitches":[9,10,13,11,6,11,14,12,5,14,9,15,7,10,13,9],"swapped_pitches":[9,10,13,11,6,11,14,4,12,14,9,15,7,10,13,9],"shift_direction":1,"question_num":21,"has_decoy":false},{"rt":597,"stimulus":"[A] option 1, [L] option 2, [G] neither","key_press":76,"name":"choice","trial_type":"html-keyboard-response","trial_index":43,"time_elapsed":106724,"internal_node_id":"0.0-43.0","subject":"S1C1627","sona":"41740","block":3,"time":"2021-09-17T19:52:04.736Z","response":"2nd","certainty":"high","char":"L","transposition":-2,"order":["shifted","swapped"],"probe_pitches":[6,4,-3,1,4,1,-1,6,4,-1,1,6,-1,4,1,4],"shifted_pitches":[6,4,-3,1,4,1,-1,5,4,-1,1,6,-1,4,1,4],"swapped_pitches":[6,4,-3,1,4,1,-1,4,6,-1,1,6,-1,4,1,4],"shift_direction":-1,"question_num":31,"has_decoy":false},{"rt":651.8999999761581,"stimulus":"[A] option 1, [L] option 2, [G] neither","key_press":65,"name":"choice","trial_type":"html-keyboard-response","trial_index":54,"time_elapsed":130171,"internal_node_id":"0.0-54.0","subject":"S1C1627","sona":"41740","block":3,"time":"2021-09-17T19:52:04.736Z","response":"1st","certainty":"high","char":"A","transposition":-2,"order":["shifted","swapped"],"probe_pitches":[12,6,7,14,11,4,11,13,8,6,5,8,10,3,6,12],"shifted_pitches":[12,6,7,14,11,4,11,13,9,6,5,8,10,3,6,12],"swapped_pitches":[12,6,7,14,11,4,11,8,13,6,5,8,10,3,6,12],"shift_direction":1,"question_num":41,"has_decoy":false},{"rt":5486.900000095367,"stimulus":"[A] option 1, [L] option 2, [G] neither","key_press":76,"name":"choice","trial_type":"html-keyboard-response","trial_index":65,"time_elapsed":158712,"internal_node_id":"0.0-65.0","subject":"S1C1627","sona":"41740","block":3,"time":"2021-09-17T19:52:04.736Z","response":"2nd","certainty":"high","char":"L","transposition":-2,"order":["swapped","shifted"],"probe_pitches":[3,5,8,14,13,5,8,11,5,14,15,10,3,10,7,14],"shifted_pitches":[3,5,8,14,13,5,8,11,6,14,15,10,3,10,7,14],"swapped_pitches":[3,5,8,14,13,5,8,5,11,14,15,10,3,10,7,14],"shift_direction":1,"question_num":51,"has_decoy":false},{"rt":17407.699999928474,"stimulus":"[A] option 1, [L] option 2, [G] neither","key_press":76,"name":"choice","trial_type":"html-keyboard-response","trial_index":76,"time_elapsed":199557,"internal_node_id":"0.0-76.0","subject":"S1C1627","sona":"41740","block":3,"time":"2021-09-17T19:52:04.736Z","response":"2nd","certainty":"high","char":"L","transposition":1,"order":["swapped","shifted"],"probe_pitches":[7,3,7,13,5,14,13,12,5,15,3,7,12,9,12,14],"shifted_pitches":[7,3,7,13,5,14,13,11,5,15,3,7,12,9,12,14],"swapped_pitches":[7,3,7,13,5,14,13,5,12,15,3,7,12,9,12,14],"shift_direction":-1,"question_num":61,"has_decoy":false},{"rt":5743.5,"stimulus":"[A] option 1, [L] option 2, [G] neither","key_press":65,"name":"choice","trial_type":"html-keyboard-response","trial_index":87,"time_elapsed":227635,"internal_node_id":"0.0-87.0","subject":"S1C1627","sona":"41740","block":3,"time":"2021-09-17T19:52:04.736Z","response":"1st","certainty":"high","char":"A","transposition":-2,"order":["shifted","swapped"],"probe_pitches":[-1,4,-3,2,9,-1,-3,9,6,4,-3,-1,4,-3,-1,4],"shifted_pitches":[-1,4,-3,2,9,-1,-3,10,6,4,-3,-1,4,-3,-1,4],"swapped_pitches":[-1,4,-3,2,9,-1,-3,6,9,4,-3,-1,4,-3,-1,4],"shift_direction":1,"question_num":71,"has_decoy":false},{"rt":2479.600000023842,"stimulus":"[A] option 1, [L] option 2, [G] neither","key_press":65,"name":"choice","trial_type":"html-keyboard-response","trial_index":98,"time_elapsed":257222,"internal_node_id":"0.0-98.0","subject":"S1C1627","sona":"41740","block":3,"time":"2021-09-17T19:52:04.736Z","response":"1st","certainty":"high","char":"A","transposition":-1,"order":["shifted","swapped"],"probe_pitches":[5,9,7,0,2,5,-3,0,7,-3,5,7,-3,2,9,2],"shifted_pitches":[5,9,7,0,2,5,-3,1,7,-3,5,7,-3,2,9,2],"swapped_pitches":[5,9,7,0,2,5,-3,7,0,-3,5,7,-3,2,9,2],"shift_direction":1,"question_num":81,"has_decoy":false},{"rt":4849.700000047684,"stimulus":"[A] option 1, [L] option 2, [G] neither","key_press":65,"name":"choice","trial_type":"html-keyboard-response","trial_index":109,"time_elapsed":284422,"internal_node_id":"0.0-109.0","subject":"S1C1627","sona":"41740","block":3,"time":"2021-09-17T19:52:04.736Z","response":"1st","certainty":"high","char":"A","transposition":3,"order":["swapped","shifted"],"probe_pitches":[9,4,-3,0,4,-3,2,9,0,-3,9,7,0,7,-3,9],"shifted_pitches":[9,4,-3,0,4,-3,2,9,1,-3,9,7,0,7,-3,9],"swapped_pitches":[9,4,-3,0,4,-3,2,0,9,-3,9,7,0,7,-3,9],"shift_direction":1,"question_num":91,"has_decoy":false},{"rt":4141.399999976158,"stimulus":"[A] option 1, [L] option 2, [G] neither","key_press":76,"name":"choice","trial_type":"html-keyboard-response","trial_index":120,"time_elapsed":310980,"internal_node_id":"0.0-120.0","subject":"S1C1627","sona":"41740","block":3,"time":"2021-09-17T19:52:04.736Z","response":"2nd","certainty":"high","char":"L","transposition":-1,"order":["shifted","swapped"],"probe_pitches":[14,13,9,13,12,15,11,15,6,4,10,3,13,11,4,3],"shifted_pitches":[14,13,9,13,12,15,11,15,7,4,10,3,13,11,4,3],"swapped_pitches":[14,13,9,13,12,15,11,6,15,4,10,3,13,11,4,3],"shift_direction":1,"question_num":101,"has_decoy":false},{"rt":2004.1000000238419,"stimulus":"[A] option 1, [L] option 2, [G] neither","key_press":65,"name":"choice","trial_type":"html-keyboard-response","trial_index":131,"time_elapsed":337744,"internal_node_id":"0.0-131.0","subject":"S1C1627","sona":"41740","block":3,"time":"2021-09-17T19:52:04.736Z","response":"1st","certainty":"high","char":"A","transposition":-3,"order":["shifted","swapped"],"probe_pitches":[0,-3,0,-3,5,-3,2,-3,0,2,7,9,2,5,7,0],"shifted_pitches":[0,-3,0,-3,5,-3,2,-3,-1,2,7,9,2,5,7,0],"swapped_pitches":[0,-3,0,-3,5,-3,2,0,-3,2,7,9,2,5,7,0],"shift_direction":-1,"question_num":111,"has_decoy":false},{"rt":2508.5,"stimulus":"[A] option 1, [L] option 2, [G] neither","key_press":65,"name":"choice","trial_type":"html-keyboard-response","trial_index":142,"time_elapsed":367682,"internal_node_id":"0.0-142.0","subject":"S1C1627","sona":"41740","block":3,"time":"2021-09-17T19:52:04.736Z","response":"1st","certainty":"high","char":"A","transposition":-3,"order":["swapped","shifted"],"probe_pitches":[-3,2,-1,-3,4,2,4,-1,7,4,-1,-3,9,-1,7,-1],"shifted_pitches":[-3,2,-1,-3,4,2,4,0,7,4,-1,-3,9,-1,7,-1],"swapped_pitches":[-3,2,-1,-3,4,2,4,7,-1,4,-1,-3,9,-1,7,-1],"shift_direction":1,"question_num":121,"has_decoy":false},{"rt":2701.899999976158,"stimulus":"[A] option 1, [L] option 2, [G] neither","key_press":65,"name":"choice","trial_type":"html-keyboard-response","trial_index":153,"time_elapsed":399689,"internal_node_id":"0.0-153.0","subject":"S1C1627","sona":"41740","block":3,"time":"2021-09-17T19:52:04.736Z","response":"1st","certainty":"high","char":"A","transposition":2,"order":["swapped","shifted"],"probe_pitches":[7,9,4,-3,4,2,4,-3,0,9,4,0,9,4,2,7],"shifted_pitches":[7,9,4,-3,4,2,4,-3,-1,9,4,0,9,4,2,7],"swapped_pitches":[7,9,4,-3,4,2,4,0,-3,9,4,0,9,4,2,7],"shift_direction":-1,"question_num":131,"has_decoy":false},{"rt":2016.1999999284744,"stimulus":"[A] option 1, [L] option 2, [G] neither","key_press":65,"name":"choice","trial_type":"html-keyboard-response","trial_index":164,"time_elapsed":426873,"internal_node_id":"0.0-164.0","subject":"S1C1627","sona":"41740","block":3,"time":"2021-09-17T19:52:04.736Z","response":"1st","certainty":"high","char":"A","transposition":-1,"order":["swapped","shifted"],"probe_pitches":[9,4,9,4,9,4,7,9,-3,2,9,4,-3,-1,9,-1],"shifted_pitches":[9,4,9,4,9,4,7,9,-2,2,9,4,-3,-1,9,-1],"swapped_pitches":[9,4,9,4,9,4,7,-3,9,2,9,4,-3,-1,9,-1],"shift_direction":1,"question_num":141,"has_decoy":false},{"rt":1321.7999999523163,"stimulus":"[A] option 1, [L] option 2, [G] neither","key_press":65,"name":"choice","trial_type":"html-keyboard-response","trial_index":175,"time_elapsed":451043,"internal_node_id":"0.0-175.0","subject":"S1C1627","sona":"41740","block":3,"time":"2021-09-17T19:52:04.736Z","response":"1st","certainty":"high","char":"A","transposition":0,"order":["swapped","shifted"],"probe_pitches":[-3,2,9,2,9,6,2,-3,6,4,-1,4,2,9,-3,6],"shifted_pitches":[-3,2,9,2,9,6,2,-4,6,4,-1,4,2,9,-3,6],"swapped_pitches":[-3,2,9,2,9,6,2,6,-3,4,-1,4,2,9,-3,6],"shift_direction":-1,"question_num":151,"has_decoy":false},{"rt":2349.7999999523163,"stimulus":"[A] option 1, [L] option 2, [G] neither","key_press":76,"name":"choice","trial_type":"html-keyboard-response","trial_index":186,"time_elapsed":479361,"internal_node_id":"0.0-186.0","subject":"S1C1627","sona":"41740","block":3,"time":"2021-09-17T19:52:04.736Z","response":"2nd","certainty":"high","char":"L","transposition":0,"order":["swapped","shifted"],"probe_pitches":[8,6,7,4,3,4,11,8,13,10,3,14,15,14,9,7],"shifted_pitches":[8,6,7,4,3,4,11,8,12,10,3,14,15,14,9,7],"swapped_pitches":[8,6,7,4,3,4,11,13,8,10,3,14,15,14,9,7],"shift_direction":-1,"question_num":161,"has_decoy":false},{"rt":1670.5,"stimulus":"[A] option 1, [L] option 2, [G] neither","key_press":65,"name":"choice","trial_type":"html-keyboard-response","trial_index":197,"time_elapsed":507513,"internal_node_id":"0.0-197.0","subject":"S1C1627","sona":"41740","block":3,"time":"2021-09-17T19:52:04.736Z","response":"1st","certainty":"high","char":"A","transposition":3,"order":["shifted","swapped"],"probe_pitches":[11,15,8,15,12,13,15,13,5,10,4,7,11,13,11,7],"shifted_pitches":[11,15,8,15,12,13,15,14,5,10,4,7,11,13,11,7],"swapped_pitches":[11,15,8,15,12,13,15,5,13,10,4,7,11,13,11,7],"shift_direction":1,"question_num":171,"has_decoy":false},{"rt":3351.7000000476837,"stimulus":"[A] option 1, [L] option 2, [G] neither","key_press":65,"name":"choice","trial_type":"html-keyboard-response","trial_index":208,"time_elapsed":534603,"internal_node_id":"0.0-208.0","subject":"S1C1627","sona":"41740","block":3,"time":"2021-09-17T19:52:04.736Z","response":"1st","certainty":"high","char":"A","transposition":2,"order":["shifted","swapped"],"probe_pitches":[15,9,11,7,4,3,11,9,5,6,12,3,5,7,10,4],"shifted_pitches":[15,9,11,7,4,3,11,8,5,6,12,3,5,7,10,4],"swapped_pitches":[15,9,11,7,4,3,11,5,9,6,12,3,5,7,10,4],"shift_direction":-1,"question_num":181,"has_decoy":false},{"rt":2697.100000023842,"stimulus":"[A] option 1, [L] option 2, [G] neither","key_press":76,"name":"choice","trial_type":"html-keyboard-response","trial_index":219,"time_elapsed":564540,"internal_node_id":"0.0-219.0","subject":"S1C1627","sona":"41740","block":3,"time":"2021-09-17T19:52:04.736Z","response":"2nd","certainty":"high","char":"L","transposition":1,"order":["shifted","swapped"],"probe_pitches":[9,4,-1,4,-1,-3,1,6,9,1,6,9,6,4,9,6],"shifted_pitches":[9,4,-1,4,-1,-3,1,6,8,1,6,9,6,4,9,6],"swapped_pitches":[9,4,-1,4,-1,-3,1,9,6,1,6,9,6,4,9,6],"shift_direction":-1,"question_num":191,"has_decoy":false}]