[{"rt":4160.699999928474,"stimulus":"[A] option 1, [L] option 2, [G] neither","key_press":76,"name":"choice","trial_type":"html-keyboard-response","trial_index":10,"time_elapsed":35187,"internal_node_id":"0.0-10.0","subject":"S1C1627","sona":"41740","block":6,"time":"2021-09-17T20:19:00.226Z","response":"2nd","certainty":"high","char":"L","transposition":0,"order":["shifted","swapped"],"probe_pitches":[2,7,14,9,14,9,14,5,2,7,12,7,2,7,2,5],"shifted_pitches":[2,7,14,9,14,9,14,5,3,7,12,7,2,7,2,5],"swapped_pitches":[2,7,14,9,14,9,14,2,5,7,12,7,2,7,2,5],"shift_direction":1,"question_num":1,"has_decoy":false},{"rt":1919.8999999761581,"stimulus":"[A] option 1, [L] option 2, [G] neither","key_press":65,"name":"choice","trial_type":"html-keyboard-response","trial_index":21,"time_elapsed":60249,"internal_node_id":"0.0-21.0","subject":"S1C1627","sona":"41740","block":6,"time":"2021-09-17T20:19:00.226Z","response":"1st","certainty":"high","char":"A","transposition":-2,"order":["shifted","swapped"],"probe_pitches":[2,4,9,4,7,14,11,9,14,2,9,11,14,7,14,4],"shifted_pitches":[2,4,9,4,7,14,11,9,13,2,9,11,14,7,14,4],"swapped_pitches":[2,4,9,4,7,14,11,14,9,2,9,11,14,7,14,4],"shift_direction":-1,"question_num":11,"has_decoy":false},{"rt":1382.7999999523163,"stimulus":"[A] option 1, [L] option 2, [G] neither","key_press":76,"name":"choice","trial_type":"html-keyboard-response","trial_index":32,"time_elapsed":87420,"internal_node_id":"0.0-32.0","subject":"S1C1627","sona":"41740","block":6,"time":"2021-09-17T20:19:00.226Z","response":"2nd","certainty":"high","char":"L","transposition":-1,"order":["shifted","swapped"],"probe_pitches":[5,7,8,13,11,5,10,5,13,7,8,7,6,2,9,12],"shifted_pitches":[5,7,8,13,11,5,10,4,13,7,8,7,6,2,9,12],"swapped_pitches":[5,7,8,13,11,5,10,13,5,7,8,7,6,2,9,12],"shift_direction":-1,"question_num":21,"has_decoy":false},{"rt":1348,"stimulus":"[A] option 1, [L] option 2, [G] neither","key_press":65,"name":"choice","trial_type":"html-keyboard-response","trial_index":43,"time_elapsed":111317,"internal_node_id":"0.0-43.0","subject":"S1C1627","sona":"41740","block":6,"time":"2021-09-17T20:19:00.226Z","response":"1st","certainty":"high","char":"A","transposition":-2,"order":["shifted","swapped"],"probe_pitches":[2,7,4,8,5,4,9,13,10,2,1,8,5,4,3,4],"shifted_pitches":[2,7,4,8,5,4,9,12,10,2,1,8,5,4,3,4],"swapped_pitches":[2,7,4,8,5,4,9,10,13,2,1,8,5,4,3,4],"shift_direction":-1,"question_num":31,"has_decoy":false},{"rt":1156.5,"stimulus":"[A] option 1, [L] option 2, [G] neither","key_press":76,"name":"choice","trial_type":"html-keyboard-response","trial_index":54,"time_elapsed":134890,"internal_node_id":"0.0-54.0","subject":"S1C1627","sona":"41740","block":6,"time":"2021-09-17T20:19:00.226Z","response":"2nd","certainty":"high","char":"L","transposition":-2,"order":["swapped","shifted"],"probe_pitches":[7,8,5,8,13,4,9,4,1,7,8,5,13,7,11,8],"shifted_pitches":[7,8,5,8,13,4,9,3,1,7,8,5,13,7,11,8],"swapped_pitches":[7,8,5,8,13,4,9,1,4,7,8,5,13,7,11,8],"shift_direction":-1,"question_num":41,"has_decoy":false},{"rt":1558.8000000715256,"stimulus":"[A] option 1, [L] option 2, [G] neither","key_press":65,"name":"choice","trial_type":"html-keyboard-response","trial_index":65,"time_elapsed":160046,"internal_node_id":"0.0-65.0","subject":"S1C1627","sona":"41740","block":6,"time":"2021-09-17T20:19:00.226Z","response":"1st","certainty":"high","char":"A","transposition":-2,"order":["swapped","shifted"],"probe_pitches":[6,11,9,11,4,2,11,14,6,9,4,11,2,4,11,9],"shifted_pitches":[6,11,9,11,4,2,11,13,6,9,4,11,2,4,11,9],"swapped_pitches":[6,11,9,11,4,2,11,6,14,9,4,11,2,4,11,9],"shift_direction":-1,"question_num":51,"has_decoy":false},{"rt":1652.2000000476837,"stimulus":"[A] option 1, [L] option 2, [G] neither","key_press":76,"name":"choice","trial_type":"html-keyboard-response","trial_index":76,"time_elapsed":187738,"internal_node_id":"0.0-76.0","subject":"S1C1627","sona":"41740","block":6,"time":"2021-09-17T20:19:00.226Z","response":"2nd","certainty":"high","char":"L","transposition":-3,"order":["swapped","shifted"],"probe_pitches":[1,2,4,11,5,3,2,10,5,12,3,7,8,9,11,1],"shifted_pitches":[1,2,4,11,5,3,2,10,6,12,3,7,8,9,11,1],"swapped_pitches":[1,2,4,11,5,3,2,5,10,12,3,7,8,9,11,1],"shift_direction":1,"question_num":61,"has_decoy":false},{"rt":1704.3999999761581,"stimulus":"[A] option 1, [L] option 2, [G] neither","key_press":65,"name":"choice","trial_type":"html-keyboard-response","trial_index":87,"time_elapsed":213483,"internal_node_id":"0.0-87.0","subject":"S1C1627","sona":"41740","block":6,"time":"2021-09-17T20:19:00.226Z","response":"1st","certainty":"high","char":"A","transposition":0,"order":["shifted","swapped"],"probe_pitches":[12,8,11,8,12,3,4,12,6,1,13,4,1,12,11,2],"shifted_pitches":[12,8,11,8,12,3,4,12,7,1,13,4,1,12,11,2],"swapped_pitches":[12,8,11,8,12,3,4,6,12,1,13,4,1,12,11,2],"shift_direction":1,"question_num":71,"has_decoy":false},{"rt":2847.7000000476837,"stimulus":"[A] option 1, [L] option 2, [G] neither","key_press":76,"name":"choice","trial_type":"html-keyboard-response","trial_index":98,"time_elapsed":240759,"internal_node_id":"0.0-98.0","subject":"S1C1627","sona":"41740","block":6,"time":"2021-09-17T20:19:00.226Z","response":"2nd","certainty":"high","char":"L","transposition":-1,"order":["shifted","swapped"],"probe_pitches":[7,2,9,2,7,4,7,12,4,7,14,4,9,2,12,7],"shifted_pitches":[7,2,9,2,7,4,7,12,3,7,14,4,9,2,12,7],"swapped_pitches":[7,2,9,2,7,4,7,4,12,7,14,4,9,2,12,7],"shift_direction":-1,"question_num":81,"has_decoy":false},{"rt":810.1999999284744,"stimulus":"[A] option 1, [L] option 2, [G] neither","key_press":65,"name":"choice","trial_type":"html-keyboard-response","trial_index":109,"time_elapsed":263939,"internal_node_id":"0.0-109.0","subject":"S1C1627","sona":"41740","block":6,"time":"2021-09-17T20:19:00.226Z","response":"1st","certainty":"high","char":"A","transposition":3,"order":["shifted","swapped"],"probe_pitches":[10,7,8,7,12,2,12,3,4,13,1,7,3,12,7,10],"shifted_pitches":[10,7,8,7,12,2,12,3,5,13,1,7,3,12,7,10],"swapped_pitches":[10,7,8,7,12,2,12,4,3,13,1,7,3,12,7,10],"shift_direction":1,"question_num":91,"has_decoy":false},{"rt":754.2000000476837,"stimulus":"[A] option 1, [L] option 2, [G] neither","key_press":76,"name":"choice","trial_type":"html-keyboard-response","trial_index":120,"time_elapsed":288023,"internal_node_id":"0.0-120.0","subject":"S1C1627","sona":"41740","block":6,"time":"2021-09-17T20:19:00.226Z","response":"2nd","certainty":"high","char":"L","transposition":2,"order":["swapped","shifted"],"probe_pitches":[7,13,12,6,5,10,12,9,11,10,9,13,2,1,13,11],"shifted_pitches":[7,13,12,6,5,10,12,8,11,10,9,13,2,1,13,11],"swapped_pitches":[7,13,12,6,5,10,12,11,9,10,9,13,2,1,13,11],"shift_direction":-1,"question_num":101,"has_decoy":false},{"rt":1115.8999999761581,"stimulus":"[A] option 1, [L] option 2, [G] neither","key_press":76,"name":"choice","trial_type":"html-keyboard-response","trial_index":131,"time_elapsed":311703,"internal_node_id":"0.0-131.0","subject":"S1C1627","sona":"41740","block":6,"time":"2021-09-17T20:19:00.226Z","response":"2nd","certainty":"high","char":"L","transposition":3,"order":["swapped","shifted"],"probe_pitches":[2,7,9,4,12,9,2,9,4,12,9,7,9,4,2,4],"shifted_pitches":[2,7,9,4,12,9,2,9,5,12,9,7,9,4,2,4],"swapped_pitches":[2,7,9,4,12,9,2,4,9,12,9,7,9,4,2,4],"shift_direction":1,"question_num":111,"has_decoy":false},{"rt":2911.2000000476837,"stimulus":"[A] option 1, [L] option 2, [G] neither","key_press":65,"name":"choice","trial_type":"html-keyboard-response","trial_index":142,"time_elapsed":337082,"internal_node_id":"0.0-142.0","subject":"S1C1627","sona":"41740","block":6,"time":"2021-09-17T20:19:00.226Z","response":"1st","certainty":"high","char":"A","transposition":2,"order":["swapped","shifted"],"probe_pitches":[10,7,10,12,7,2,5,10,14,12,2,12,7,12,7,5],"shifted_pitches":[10,7,10,12,7,2,5,11,14,12,2,12,7,12,7,5],"swapped_pitches":[10,7,10,12,7,2,5,14,10,12,2,12,7,12,7,5],"shift_direction":1,"question_num":121,"has_decoy":false},{"rt":1589.7999999523163,"stimulus":"[A] option 1, [L] option 2, [G] neither","key_press":76,"name":"choice","trial_type":"html-keyboard-response","trial_index":153,"time_elapsed":361546,"internal_node_id":"0.0-153.0","subject":"S1C1627","sona":"41740","block":6,"time":"2021-09-17T20:19:00.226Z","response":"2nd","certainty":"high","char":"L","transposition":-3,"order":["swapped","shifted"],"probe_pitches":[3,5,8,11,13,3,4,5,8,7,10,4,10,4,7,2],"shifted_pitches":[3,5,8,11,13,3,4,5,9,7,10,4,10,4,7,2],"swapped_pitches":[3,5,8,11,13,3,4,8,5,7,10,4,10,4,7,2],"shift_direction":1,"question_num":131,"has_decoy":false},{"rt":1678.5,"stimulus":"[A] option 1, [L] option 2, [G] neither","key_press":65,"name":"choice","trial_type":"html-keyboard-response","trial_index":164,"time_elapsed":390075,"internal_node_id":"0.0-164.0","subject":"S1C1627","sona":"41740","block":6,"time":"2021-09-17T20:19:00.226Z","response":"1st","certainty":"high","char":"A","transposition":1,"order":["swapped","shifted"],"probe_pitches":[10,8,1,2,10,8,12,9,10,5,7,4,13,12,2,5],"shifted_pitches":[10,8,1,2,10,8,12,9,11,5,7,4,13,12,2,5],"swapped_pitches":[10,8,1,2,10,8,12,10,9,5,7,4,13,12,2,5],"shift_direction":1,"question_num":141,"has_decoy":false},{"rt":1295.2999999523163,"stimulus":"[A] option 1, [L] option 2, [G] neither","key_press":76,"name":"choice","trial_type":"html-keyboard-response","trial_index":175,"time_elapsed":416577,"internal_node_id":"0.0-175.0","subject":"S1C1627","sona":"41740","block":6,"time":"2021-09-17T20:19:00.226Z","response":"2nd","certainty":"high","char":"L","transposition":1,"order":["swapped","shifted"],"probe_pitches":[2,5,2,5,12,10,14,10,12,5,7,10,2,10,2,5],"shifted_pitches":[2,5,2,5,12,10,14,9,12,5,7,10,2,10,2,5],"swapped_pitches":[2,5,2,5,12,10,14,12,10,5,7,10,2,10,2,5],"shift_direction":-1,"question_num":151,"has_decoy":false},{"rt":2541.100000023842,"stimulus":"[A] option 1, [L] option 2, [G] neither","key_press":76,"name":"choice","trial_type":"html-keyboard-response","trial_index":186,"time_elapsed":441593,"internal_node_id":"0.0-186.0","subject":"S1C1627","sona":"41740","block":6,"time":"2021-09-17T20:19:00.226Z","response":"2nd","certainty":"high","char":"L","transposition":-3,"order":["swapped","shifted"],"probe_pitches":[7,11,14,11,4,9,4,9,2,7,14,11,9,7,9,7],"shifted_pitches":[7,11,14,11,4,9,4,9,3,7,14,11,9,7,9,7],"swapped_pitches":[7,11,14,11,4,9,4,2,9,7,14,11,9,7,9,7],"shift_direction":1,"question_num":161,"has_decoy":false},{"rt":2424.1999999284744,"stimulus":"[A] option 1, [L] option 2, [G] neither","key_press":76,"name":"choice","trial_type":"html-keyboard-response","trial_index":197,"time_elapsed":466329,"internal_node_id":"0.0-197.0","subject":"S1C1627","sona":"41740","block":6,"time":"2021-09-17T20:19:00.226Z","response":"2nd","certainty":"high","char":"L","transposition":-1,"order":["shifted","swapped"],"probe_pitches":[11,9,6,7,5,2,9,11,5,12,4,5,2,9,5,8],"shifted_pitches":[11,9,6,7,5,2,9,10,5,12,4,5,2,9,5,8],"swapped_pitches":[11,9,6,7,5,2,9,5,11,12,4,5,2,9,5,8],"shift_direction":-1,"question_num":171,"has_decoy":false},{"rt":2535.399999976158,"stimulus":"[A] option 1, [L] option 2, [G] neither","key_press":65,"name":"choice","trial_type":"html-keyboard-response","trial_index":208,"time_elapsed":491403,"internal_node_id":"0.0-208.0","subject":"S1C1627","sona":"41740","block":6,"time":"2021-09-17T20:19:00.226Z","response":"1st","certainty":"high","char":"A","transposition":-1,"order":["shifted","swapped"],"probe_pitches":[4,2,4,6,2,11,2,14,4,2,4,6,9,4,14,9],"shifted_pitches":[4,2,4,6,2,11,2,13,4,2,4,6,9,4,14,9],"swapped_pitches":[4,2,4,6,2,11,2,4,14,2,4,6,9,4,14,9],"shift_direction":-1,"question_num":181,"has_decoy":false},{"rt":1562.3999999761581,"stimulus":"[A] option 1, [L] option 2, [G] neither","key_press":76,"name":"choice","trial_type":"html-keyboard-response","trial_index":219,"time_elapsed":515375,"internal_node_id":"0.0-219.0","subject":"S1C1627","sona":"41740","block":6,"time":"2021-09-17T20:19:00.226Z","response":"2nd","certainty":"high","char":"L","transposition":-3,"order":["shifted","swapped"],"probe_pitches":[12,14,9,2,9,2,9,5,7,2,7,12,2,7,5,7],"shifted_pitches":[12,14,9,2,9,2,9,6,7,2,7,12,2,7,5,7],"swapped_pitches":[12,14,9,2,9,2,9,7,5,2,7,12,2,7,5,7],"shift_direction":1,"question_num":191,"has_decoy":false}]