[{"rt":1272.1000000238419,"stimulus":"[A] option 1, [L] option 2, [G] neither","key_press":65,"name":"choice","trial_type":"html-keyboard-response","trial_index":10,"time_elapsed":51776,"internal_node_id":"0.0-10.0","subject":"S1C1627","sona":"41740","block":4,"time":"2021-09-17T20:01:29.542Z","response":"1st","certainty":"high","char":"A","transposition":3,"order":["swapped","shifted"],"probe_pitches":[12,8,2,6,12,10,12,2,4,12,3,11,8,14,2,9],"shifted_pitches":[12,8,2,6,12,10,12,2,5,12,3,11,8,14,2,9],"swapped_pitches":[12,8,2,6,12,10,12,4,2,12,3,11,8,14,2,9],"shift_direction":1,"question_num":1,"has_decoy":false},{"rt":1511.8999999761581,"stimulus":"[A] option 1, [L] option 2, [G] neither","key_press":76,"name":"choice","trial_type":"html-keyboard-response","trial_index":21,"time_elapsed":76810,"internal_node_id":"0.0-21.0","subject":"S1C1627","sona":"41740","block":4,"time":"2021-09-17T20:01:29.542Z","response":"2nd","certainty":"high","char":"L","transposition":2,"order":["shifted","swapped"],"probe_pitches":[9,5,6,9,5,14,4,5,9,6,7,13,2,5,10,4],"shifted_pitches":[9,5,6,9,5,14,4,5,8,6,7,13,2,5,10,4],"swapped_pitches":[9,5,6,9,5,14,4,9,5,6,7,13,2,5,10,4],"shift_direction":-1,"question_num":11,"has_decoy":false},{"rt":1216.3999999761581,"stimulus":"[A] option 1, [L] option 2, [G] neither","key_press":65,"name":"choice","trial_type":"html-keyboard-response","trial_index":32,"time_elapsed":101576,"internal_node_id":"0.0-32.0","subject":"S1C1627","sona":"41740","block":4,"time":"2021-09-17T20:01:29.542Z","response":"1st","certainty":"high","char":"A","transposition":1,"order":["swapped","shifted"],"probe_pitches":[8,13,8,3,8,6,13,3,8,6,3,13,8,13,8,10],"shifted_pitches":[8,13,8,3,8,6,13,2,8,6,3,13,8,13,8,10],"swapped_pitches":[8,13,8,3,8,6,13,8,3,6,3,13,8,13,8,10],"shift_direction":-1,"question_num":21,"has_decoy":false},{"rt":1096.7999999523163,"stimulus":"[A] option 1, [L] option 2, [G] neither","key_press":76,"name":"choice","trial_type":"html-keyboard-response","trial_index":43,"time_elapsed":125127,"internal_node_id":"0.0-43.0","subject":"S1C1627","sona":"41740","block":4,"time":"2021-09-17T20:01:29.542Z","response":"2nd","certainty":"high","char":"L","transposition":-2,"order":["swapped","shifted"],"probe_pitches":[8,10,5,8,5,8,15,10,3,5,15,5,10,3,12,8],"shifted_pitches":[8,10,5,8,5,8,15,11,3,5,15,5,10,3,12,8],"swapped_pitches":[8,10,5,8,5,8,15,3,10,5,15,5,10,3,12,8],"shift_direction":1,"question_num":31,"has_decoy":false},{"rt":2195.7000000476837,"stimulus":"[A] option 1, [L] option 2, [G] neither","key_press":65,"name":"choice","trial_type":"html-keyboard-response","trial_index":54,"time_elapsed":149601,"internal_node_id":"0.0-54.0","subject":"S1C1627","sona":"41740","block":4,"time":"2021-09-17T20:01:29.542Z","response":"1st","certainty":"high","char":"A","transposition":-2,"order":["shifted","swapped"],"probe_pitches":[4,7,8,7,3,6,5,2,10,8,12,10,5,13,5,6],"shifted_pitches":[4,7,8,7,3,6,5,2,9,8,12,10,5,13,5,6],"swapped_pitches":[4,7,8,7,3,6,5,10,2,8,12,10,5,13,5,6],"shift_direction":-1,"question_num":41,"has_decoy":false},{"rt":8251.5,"stimulus":"[A] option 1, [L] option 2, [G] neither","key_press":76,"name":"choice","trial_type":"html-keyboard-response","trial_index":65,"time_elapsed":180625,"internal_node_id":"0.0-65.0","subject":"S1C1627","sona":"41740","block":4,"time":"2021-09-17T20:01:29.542Z","response":"2nd","certainty":"high","char":"L","transposition":-1,"order":["swapped","shifted"],"probe_pitches":[4,5,10,14,9,10,13,10,5,8,10,13,8,2,14,7],"shifted_pitches":[4,5,10,14,9,10,13,11,5,8,10,13,8,2,14,7],"swapped_pitches":[4,5,10,14,9,10,13,5,10,8,10,13,8,2,14,7],"shift_direction":1,"question_num":51,"has_decoy":false},{"rt":2702,"stimulus":"[A] option 1, [L] option 2, [G] neither","key_press":65,"name":"choice","trial_type":"html-keyboard-response","trial_index":76,"time_elapsed":205679,"internal_node_id":"0.0-76.0","subject":"S1C1627","sona":"41740","block":4,"time":"2021-09-17T20:01:29.542Z","response":"1st","certainty":"high","char":"A","transposition":-1,"order":["shifted","swapped"],"probe_pitches":[13,15,13,8,13,5,15,5,3,15,13,5,13,3,5,10],"shifted_pitches":[13,15,13,8,13,5,15,5,2,15,13,5,13,3,5,10],"swapped_pitches":[13,15,13,8,13,5,15,3,5,15,13,5,13,3,5,10],"shift_direction":-1,"question_num":61,"has_decoy":false},{"rt":2098.8000000715256,"stimulus":"[A] option 1, [L] option 2, [G] neither","key_press":76,"name":"choice","trial_type":"html-keyboard-response","trial_index":87,"time_elapsed":232366,"internal_node_id":"0.0-87.0","subject":"S1C1627","sona":"41740","block":4,"time":"2021-09-17T20:01:29.542Z","response":"2nd","certainty":"high","char":"L","transposition":-3,"order":["swapped","shifted"],"probe_pitches":[11,9,6,14,11,14,10,2,11,10,4,14,9,4,12,8],"shifted_pitches":[11,9,6,14,11,14,10,1,11,10,4,14,9,4,12,8],"swapped_pitches":[11,9,6,14,11,14,10,11,2,10,4,14,9,4,12,8],"shift_direction":-1,"question_num":71,"has_decoy":false},{"rt":2703.8000000715256,"stimulus":"[A] option 1, [L] option 2, [G] neither","key_press":65,"name":"choice","trial_type":"html-keyboard-response","trial_index":98,"time_elapsed":259306,"internal_node_id":"0.0-98.0","subject":"S1C1627","sona":"41740","block":4,"time":"2021-09-17T20:01:29.542Z","response":"1st","certainty":"high","char":"A","transposition":-1,"order":["swapped","shifted"],"probe_pitches":[3,8,11,8,13,11,6,8,11,3,15,8,6,3,11,3],"shifted_pitches":[3,8,11,8,13,11,6,8,10,3,15,8,6,3,11,3],"swapped_pitches":[3,8,11,8,13,11,6,11,8,3,15,8,6,3,11,3],"shift_direction":-1,"question_num":81,"has_decoy":false},{"rt":3495.9000000953674,"stimulus":"[A] option 1, [L] option 2, [G] neither","key_press":76,"name":"choice","trial_type":"html-keyboard-response","trial_index":109,"time_elapsed":286593,"internal_node_id":"0.0-109.0","subject":"S1C1627","sona":"41740","block":4,"time":"2021-09-17T20:01:29.542Z","response":"2nd","certainty":"high","char":"L","transposition":1,"order":["swapped","shifted"],"probe_pitches":[12,13,10,14,10,5,2,5,3,8,3,6,14,8,10,13],"shifted_pitches":[12,13,10,14,10,5,2,4,3,8,3,6,14,8,10,13],"swapped_pitches":[12,13,10,14,10,5,2,3,5,8,3,6,14,8,10,13],"shift_direction":-1,"question_num":91,"has_decoy":false},{"rt":1443.5,"stimulus":"[A] option 1, [L] option 2, [G] neither","key_press":76,"name":"choice","trial_type":"html-keyboard-response","trial_index":120,"time_elapsed":313140,"internal_node_id":"0.0-120.0","subject":"S1C1627","sona":"41740","block":4,"time":"2021-09-17T20:01:29.542Z","response":"2nd","certainty":"high","char":"L","transposition":-3,"order":["shifted","swapped"],"probe_pitches":[3,7,12,7,10,15,5,7,3,10,15,10,3,15,12,15],"shifted_pitches":[3,7,12,7,10,15,5,8,3,10,15,10,3,15,12,15],"swapped_pitches":[3,7,12,7,10,15,5,3,7,10,15,10,3,15,12,15],"shift_direction":1,"question_num":101,"has_decoy":false},{"rt":1952.8999999761581,"stimulus":"[A] option 1, [L] option 2, [G] neither","key_press":65,"name":"choice","trial_type":"html-keyboard-response","trial_index":131,"time_elapsed":338034,"internal_node_id":"0.0-131.0","subject":"S1C1627","sona":"41740","block":4,"time":"2021-09-17T20:01:29.542Z","response":"1st","certainty":"high","char":"A","transposition":-3,"order":["shifted","swapped"],"probe_pitches":[14,11,10,14,9,5,7,5,12,8,10,3,4,2,9,11],"shifted_pitches":[14,11,10,14,9,5,7,6,12,8,10,3,4,2,9,11],"swapped_pitches":[14,11,10,14,9,5,7,12,5,8,10,3,4,2,9,11],"shift_direction":1,"question_num":111,"has_decoy":false},{"rt":1286.8000000715256,"stimulus":"[A] option 1, [L] option 2, [G] neither","key_press":76,"name":"choice","trial_type":"html-keyboard-response","trial_index":142,"time_elapsed":362434,"internal_node_id":"0.0-142.0","subject":"S1C1627","sona":"41740","block":4,"time":"2021-09-17T20:01:29.542Z","response":"2nd","certainty":"high","char":"L","transposition":-3,"order":["shifted","swapped"],"probe_pitches":[3,8,5,3,8,12,5,8,10,3,12,3,15,10,3,10],"shifted_pitches":[3,8,5,3,8,12,5,8,9,3,12,3,15,10,3,10],"swapped_pitches":[3,8,5,3,8,12,5,10,8,3,12,3,15,10,3,10],"shift_direction":-1,"question_num":121,"has_decoy":false},{"rt":1622.0999999046326,"stimulus":"[A] option 1, [L] option 2, [G] neither","key_press":65,"name":"choice","trial_type":"html-keyboard-response","trial_index":153,"time_elapsed":388856,"internal_node_id":"0.0-153.0","subject":"S1C1627","sona":"41740","block":4,"time":"2021-09-17T20:01:29.542Z","response":"1st","certainty":"high","char":"A","transposition":0,"order":["shifted","swapped"],"probe_pitches":[4,2,7,3,9,4,6,7,11,8,4,3,6,13,9,13],"shifted_pitches":[4,2,7,3,9,4,6,7,10,8,4,3,6,13,9,13],"swapped_pitches":[4,2,7,3,9,4,6,11,7,8,4,3,6,13,9,13],"shift_direction":-1,"question_num":131,"has_decoy":false},{"rt":2414.7999999523163,"stimulus":"[A] option 1, [L] option 2, [G] neither","key_press":65,"name":"choice","trial_type":"html-keyboard-response","trial_index":164,"time_elapsed":414154,"internal_node_id":"0.0-164.0","subject":"S1C1627","sona":"41740","block":4,"time":"2021-09-17T20:01:29.542Z","response":"1st","certainty":"high","char":"A","transposition":-1,"order":["swapped","shifted"],"probe_pitches":[11,9,8,5,6,10,4,6,11,7,8,4,9,4,10,6],"shifted_pitches":[11,9,8,5,6,10,4,6,12,7,8,4,9,4,10,6],"swapped_pitches":[11,9,8,5,6,10,4,11,6,7,8,4,9,4,10,6],"shift_direction":1,"question_num":141,"has_decoy":false},{"rt":4108,"stimulus":"[A] option 1, [L] option 2, [G] neither","key_press":76,"name":"choice","trial_type":"html-keyboard-response","trial_index":175,"time_elapsed":440601,"internal_node_id":"0.0-175.0","subject":"S1C1627","sona":"41740","block":4,"time":"2021-09-17T20:01:29.542Z","response":"2nd","certainty":"high","char":"L","transposition":2,"order":["swapped","shifted"],"probe_pitches":[3,8,15,13,10,6,13,3,8,10,8,10,13,8,6,13],"shifted_pitches":[3,8,15,13,10,6,13,4,8,10,8,10,13,8,6,13],"swapped_pitches":[3,8,15,13,10,6,13,8,3,10,8,10,13,8,6,13],"shift_direction":1,"question_num":151,"has_decoy":false},{"rt":5377.699999928474,"stimulus":"[A] option 1, [L] option 2, [G] neither","key_press":76,"name":"choice","trial_type":"html-keyboard-response","trial_index":186,"time_elapsed":469747,"internal_node_id":"0.0-186.0","subject":"S1C1627","sona":"41740","block":4,"time":"2021-09-17T20:01:29.542Z","response":"2nd","certainty":"high","char":"L","transposition":-2,"order":["shifted","swapped"],"probe_pitches":[6,8,13,8,6,13,11,8,6,15,8,13,15,8,15,13],"shifted_pitches":[6,8,13,8,6,13,11,8,5,15,8,13,15,8,15,13],"swapped_pitches":[6,8,13,8,6,13,11,6,8,15,8,13,15,8,15,13],"shift_direction":-1,"question_num":161,"has_decoy":false},{"rt":12773.299999952316,"stimulus":"[A] option 1, [L] option 2, [G] neither","key_press":65,"name":"choice","trial_type":"html-keyboard-response","trial_index":197,"time_elapsed":510018,"internal_node_id":"0.0-197.0","subject":"S1C1627","sona":"41740","block":4,"time":"2021-09-17T20:01:29.542Z","response":"1st","certainty":"high","char":"A","transposition":3,"order":["shifted","swapped"],"probe_pitches":[10,15,13,8,3,5,15,3,8,5,8,13,8,10,5,8],"shifted_pitches":[10,15,13,8,3,5,15,4,8,5,8,13,8,10,5,8],"swapped_pitches":[10,15,13,8,3,5,15,8,3,5,8,13,8,10,5,8],"shift_direction":1,"question_num":171,"has_decoy":false},{"rt":2308.5,"stimulus":"[A] option 1, [L] option 2, [G] neither","key_press":76,"name":"choice","trial_type":"html-keyboard-response","trial_index":208,"time_elapsed":534924,"internal_node_id":"0.0-208.0","subject":"S1C1627","sona":"41740","block":4,"time":"2021-09-17T20:01:29.542Z","response":"2nd","certainty":"high","char":"L","transposition":0,"order":["swapped","shifted"],"probe_pitches":[10,7,10,5,12,15,10,12,3,5,7,10,3,7,15,12],"shifted_pitches":[10,7,10,5,12,15,10,12,4,5,7,10,3,7,15,12],"swapped_pitches":[10,7,10,5,12,15,10,3,12,5,7,10,3,7,15,12],"shift_direction":1,"question_num":181,"has_decoy":false},{"rt":4221,"stimulus":"[A] option 1, [L] option 2, [G] neither","key_press":76,"name":"choice","trial_type":"html-keyboard-response","trial_index":219,"time_elapsed":561440,"internal_node_id":"0.0-219.0","subject":"S1C1627","sona":"41740","block":4,"time":"2021-09-17T20:01:29.542Z","response":"2nd","certainty":"high","char":"L","transposition":-2,"order":["shifted","swapped"],"probe_pitches":[3,8,5,2,8,14,12,6,8,10,2,11,9,8,5,12],"shifted_pitches":[3,8,5,2,8,14,12,7,8,10,2,11,9,8,5,12],"swapped_pitches":[3,8,5,2,8,14,12,8,6,10,2,11,9,8,5,12],"shift_direction":1,"question_num":191,"has_decoy":false}]