[{"rt":2307.0999999046326,"stimulus":"[A] option 1, [L] option 2, [G] neither","key_press":76,"name":"choice","trial_type":"html-keyboard-response","trial_index":10,"time_elapsed":34080,"internal_node_id":"0.0-10.0","subject":"S1C1627","sona":"41740","block":5,"time":"2021-09-17T20:10:21.917Z","response":"2nd","certainty":"high","char":"L","transposition":-2,"order":["swapped","shifted"],"probe_pitches":[-2,1,8,3,6,-2,1,10,8,1,-2,3,-2,10,6,1],"shifted_pitches":[-2,1,8,3,6,-2,1,10,7,1,-2,3,-2,10,6,1],"swapped_pitches":[-2,1,8,3,6,-2,1,8,10,1,-2,3,-2,10,6,1],"shift_direction":-1,"question_num":1,"has_decoy":false},{"rt":3258.2999999523163,"stimulus":"[A] option 1, [L] option 2, [G] neither","key_press":76,"name":"choice","trial_type":"html-keyboard-response","trial_index":21,"time_elapsed":60597,"internal_node_id":"0.0-21.0","subject":"S1C1627","sona":"41740","block":5,"time":"2021-09-17T20:10:21.917Z","response":"2nd","certainty":"high","char":"L","transposition":-3,"order":["shifted","swapped"],"probe_pitches":[0,-2,5,2,0,10,7,2,5,-2,10,0,7,2,0,10],"shifted_pitches":[0,-2,5,2,0,10,7,2,4,-2,10,0,7,2,0,10],"swapped_pitches":[0,-2,5,2,0,10,7,5,2,-2,10,0,7,2,0,10],"shift_direction":-1,"question_num":11,"has_decoy":false},{"rt":1748.5,"stimulus":"[A] option 1, [L] option 2, [G] neither","key_press":65,"name":"choice","trial_type":"html-keyboard-response","trial_index":32,"time_elapsed":88017,"internal_node_id":"0.0-32.0","subject":"S1C1627","sona":"41740","block":5,"time":"2021-09-17T20:10:21.917Z","response":"1st","certainty":"high","char":"A","transposition":0,"order":["shifted","swapped"],"probe_pitches":[3,7,11,9,4,11,6,4,10,3,11,10,8,9,0,3],"shifted_pitches":[3,7,11,9,4,11,6,5,10,3,11,10,8,9,0,3],"swapped_pitches":[3,7,11,9,4,11,6,10,4,3,11,10,8,9,0,3],"shift_direction":1,"question_num":21,"has_decoy":false},{"rt":3973.5999999046326,"stimulus":"[A] option 1, [L] option 2, [G] neither","key_press":65,"name":"choice","trial_type":"html-keyboard-response","trial_index":43,"time_elapsed":114701,"internal_node_id":"0.0-43.0","subject":"S1C1627","sona":"41740","block":5,"time":"2021-09-17T20:10:21.917Z","response":"1st","certainty":"high","char":"A","transposition":2,"order":["shifted","swapped"],"probe_pitches":[10,4,3,6,7,8,4,10,8,4,10,0,6,0,4,5],"shifted_pitches":[10,4,3,6,7,8,4,9,8,4,10,0,6,0,4,5],"swapped_pitches":[10,4,3,6,7,8,4,8,10,4,10,0,6,0,4,5],"shift_direction":-1,"question_num":31,"has_decoy":false},{"rt":2662.2000000476837,"stimulus":"[A] option 1, [L] option 2, [G] neither","key_press":65,"name":"choice","trial_type":"html-keyboard-response","trial_index":54,"time_elapsed":142477,"internal_node_id":"0.0-54.0","subject":"S1C1627","sona":"41740","block":5,"time":"2021-09-17T20:10:21.917Z","response":"1st","certainty":"high","char":"A","transposition":3,"order":["swapped","shifted"],"probe_pitches":[3,6,10,6,10,8,1,-2,8,1,6,10,8,10,6,-2],"shifted_pitches":[3,6,10,6,10,8,1,-2,7,1,6,10,8,10,6,-2],"swapped_pitches":[3,6,10,6,10,8,1,8,-2,1,6,10,8,10,6,-2],"shift_direction":-1,"question_num":41,"has_decoy":false},{"rt":2072.2000000476837,"stimulus":"[A] option 1, [L] option 2, [G] neither","key_press":76,"name":"choice","trial_type":"html-keyboard-response","trial_index":65,"time_elapsed":171743,"internal_node_id":"0.0-65.0","subject":"S1C1627","sona":"41740","block":5,"time":"2021-09-17T20:10:21.917Z","response":"2nd","certainty":"high","char":"L","transposition":1,"order":["swapped","shifted"],"probe_pitches":[0,5,0,-2,3,10,8,-2,5,0,8,3,5,10,-2,3],"shifted_pitches":[0,5,0,-2,3,10,8,-1,5,0,8,3,5,10,-2,3],"swapped_pitches":[0,5,0,-2,3,10,8,5,-2,0,8,3,5,10,-2,3],"shift_direction":1,"question_num":51,"has_decoy":false},{"rt":1427.7999999523163,"stimulus":"[A] option 1, [L] option 2, [G] neither","key_press":76,"name":"choice","trial_type":"html-keyboard-response","trial_index":76,"time_elapsed":195523,"internal_node_id":"0.0-76.0","subject":"S1C1627","sona":"41740","block":5,"time":"2021-09-17T20:10:21.917Z","response":"2nd","certainty":"high","char":"L","transposition":1,"order":["swapped","shifted"],"probe_pitches":[8,5,0,4,9,10,9,6,0,8,4,2,0,2,4,3],"shifted_pitches":[8,5,0,4,9,10,9,6,1,8,4,2,0,2,4,3],"swapped_pitches":[8,5,0,4,9,10,9,0,6,8,4,2,0,2,4,3],"shift_direction":1,"question_num":61,"has_decoy":false},{"rt":1481.1999999284744,"stimulus":"[A] option 1, [L] option 2, [G] neither","key_press":65,"name":"choice","trial_type":"html-keyboard-response","trial_index":87,"time_elapsed":223725,"internal_node_id":"0.0-87.0","subject":"S1C1627","sona":"41740","block":5,"time":"2021-09-17T20:10:21.917Z","response":"1st","certainty":"high","char":"A","transposition":-1,"order":["shifted","swapped"],"probe_pitches":[5,3,8,10,5,8,10,1,-2,5,-2,5,3,-2,5,-2],"shifted_pitches":[5,3,8,10,5,8,10,0,-2,5,-2,5,3,-2,5,-2],"swapped_pitches":[5,3,8,10,5,8,10,-2,1,5,-2,5,3,-2,5,-2],"shift_direction":-1,"question_num":71,"has_decoy":false},{"rt":1626.5,"stimulus":"[A] option 1, [L] option 2, [G] neither","key_press":76,"name":"choice","trial_type":"html-keyboard-response","trial_index":98,"time_elapsed":248845,"internal_node_id":"0.0-98.0","subject":"S1C1627","sona":"41740","block":5,"time":"2021-09-17T20:10:21.917Z","response":"2nd","certainty":"high","char":"L","transposition":-1,"order":["shifted","swapped"],"probe_pitches":[6,0,-1,1,7,9,8,11,4,7,-1,2,9,1,-1,2],"shifted_pitches":[6,0,-1,1,7,9,8,11,3,7,-1,2,9,1,-1,2],"swapped_pitches":[6,0,-1,1,7,9,8,4,11,7,-1,2,9,1,-1,2],"shift_direction":-1,"question_num":81,"has_decoy":false},{"rt":905.5,"stimulus":"[A] option 1, [L] option 2, [G] neither","key_press":65,"name":"choice","trial_type":"html-keyboard-response","trial_index":109,"time_elapsed":272298,"internal_node_id":"0.0-109.0","subject":"S1C1627","sona":"41740","block":5,"time":"2021-09-17T20:10:21.917Z","response":"1st","certainty":"high","char":"A","transposition":2,"order":["shifted","swapped"],"probe_pitches":[10,5,3,0,-2,0,-2,10,5,0,-2,5,7,5,-2,3],"shifted_pitches":[10,5,3,0,-2,0,-2,11,5,0,-2,5,7,5,-2,3],"swapped_pitches":[10,5,3,0,-2,0,-2,5,10,0,-2,5,7,5,-2,3],"shift_direction":1,"question_num":91,"has_decoy":false},{"rt":1689.3999999761581,"stimulus":"[A] option 1, [L] option 2, [G] neither","key_press":76,"name":"choice","trial_type":"html-keyboard-response","trial_index":120,"time_elapsed":298509,"internal_node_id":"0.0-120.0","subject":"S1C1627","sona":"41740","block":5,"time":"2021-09-17T20:10:21.917Z","response":"2nd","certainty":"high","char":"L","transposition":-1,"order":["swapped","shifted"],"probe_pitches":[11,5,10,3,11,9,8,11,1,9,1,11,1,10,8,5],"shifted_pitches":[11,5,10,3,11,9,8,11,2,9,1,11,1,10,8,5],"swapped_pitches":[11,5,10,3,11,9,8,1,11,9,1,11,1,10,8,5],"shift_direction":1,"question_num":101,"has_decoy":false},{"rt":1923.1000000238419,"stimulus":"[A] option 1, [L] option 2, [G] neither","key_press":76,"name":"choice","trial_type":"html-keyboard-response","trial_index":131,"time_elapsed":322831,"internal_node_id":"0.0-131.0","subject":"S1C1627","sona":"41740","block":5,"time":"2021-09-17T20:10:21.917Z","response":"2nd","certainty":"high","char":"L","transposition":-2,"order":["swapped","shifted"],"probe_pitches":[11,8,9,7,10,0,7,5,-1,8,11,10,9,0,10,1],"shifted_pitches":[11,8,9,7,10,0,7,6,-1,8,11,10,9,0,10,1],"swapped_pitches":[11,8,9,7,10,0,7,-1,5,8,11,10,9,0,10,1],"shift_direction":1,"question_num":111,"has_decoy":false},{"rt":1125,"stimulus":"[A] option 1, [L] option 2, [G] neither","key_press":65,"name":"choice","trial_type":"html-keyboard-response","trial_index":142,"time_elapsed":347661,"internal_node_id":"0.0-142.0","subject":"S1C1627","sona":"41740","block":5,"time":"2021-09-17T20:10:21.917Z","response":"1st","certainty":"high","char":"A","transposition":-2,"order":["shifted","swapped"],"probe_pitches":[0,5,7,0,2,10,5,-2,7,2,0,-2,0,2,7,2],"shifted_pitches":[0,5,7,0,2,10,5,-1,7,2,0,-2,0,2,7,2],"swapped_pitches":[0,5,7,0,2,10,5,7,-2,2,0,-2,0,2,7,2],"shift_direction":1,"question_num":121,"has_decoy":false},{"rt":1664.3999999761581,"stimulus":"[A] option 1, [L] option 2, [G] neither","key_press":76,"name":"choice","trial_type":"html-keyboard-response","trial_index":153,"time_elapsed":376141,"internal_node_id":"0.0-153.0","subject":"S1C1627","sona":"41740","block":5,"time":"2021-09-17T20:10:21.917Z","response":"2nd","certainty":"high","char":"L","transposition":-3,"order":["shifted","swapped"],"probe_pitches":[2,8,10,2,6,5,4,10,8,4,0,6,5,3,0,5],"shifted_pitches":[2,8,10,2,6,5,4,10,7,4,0,6,5,3,0,5],"swapped_pitches":[2,8,10,2,6,5,4,8,10,4,0,6,5,3,0,5],"shift_direction":-1,"question_num":131,"has_decoy":false},{"rt":2436.1999999284744,"stimulus":"[A] option 1, [L] option 2, [G] neither","key_press":65,"name":"choice","trial_type":"html-keyboard-response","trial_index":164,"time_elapsed":401395,"internal_node_id":"0.0-164.0","subject":"S1C1627","sona":"41740","block":5,"time":"2021-09-17T20:10:21.917Z","response":"1st","certainty":"high","char":"A","transposition":0,"order":["shifted","swapped"],"probe_pitches":[-2,3,8,3,8,3,8,-2,5,3,8,1,8,-2,5,1],"shifted_pitches":[-2,3,8,3,8,3,8,-1,5,3,8,1,8,-2,5,1],"swapped_pitches":[-2,3,8,3,8,3,8,5,-2,3,8,1,8,-2,5,1],"shift_direction":1,"question_num":141,"has_decoy":false},{"rt":2184.7000000476837,"stimulus":"[A] option 1, [L] option 2, [G] neither","key_press":76,"name":"choice","trial_type":"html-keyboard-response","trial_index":175,"time_elapsed":426506,"internal_node_id":"0.0-175.0","subject":"S1C1627","sona":"41740","block":5,"time":"2021-09-17T20:10:21.917Z","response":"2nd","certainty":"high","char":"L","transposition":-3,"order":["swapped","shifted"],"probe_pitches":[10,5,7,10,7,0,7,10,5,3,-2,10,5,0,7,10],"shifted_pitches":[10,5,7,10,7,0,7,10,6,3,-2,10,5,0,7,10],"swapped_pitches":[10,5,7,10,7,0,7,5,10,3,-2,10,5,0,7,10],"shift_direction":1,"question_num":151,"has_decoy":false},{"rt":1307.6000000238419,"stimulus":"[A] option 1, [L] option 2, [G] neither","key_press":65,"name":"choice","trial_type":"html-keyboard-response","trial_index":186,"time_elapsed":450412,"internal_node_id":"0.0-186.0","subject":"S1C1627","sona":"41740","block":5,"time":"2021-09-17T20:10:21.917Z","response":"1st","certainty":"high","char":"A","transposition":-2,"order":["shifted","swapped"],"probe_pitches":[6,10,4,-1,0,3,5,9,3,6,5,0,2,4,6,7],"shifted_pitches":[6,10,4,-1,0,3,5,8,3,6,5,0,2,4,6,7],"swapped_pitches":[6,10,4,-1,0,3,5,3,9,6,5,0,2,4,6,7],"shift_direction":-1,"question_num":161,"has_decoy":false},{"rt":5443.400000095367,"stimulus":"[A] option 1, [L] option 2, [G] neither","key_press":65,"name":"choice","trial_type":"html-keyboard-response","trial_index":197,"time_elapsed":479922,"internal_node_id":"0.0-197.0","subject":"S1C1627","sona":"41740","block":5,"time":"2021-09-17T20:10:21.917Z","response":"1st","certainty":"high","char":"A","transposition":-3,"order":["swapped","shifted"],"probe_pitches":[2,-1,1,4,11,4,0,-1,1,8,2,4,1,11,0,1],"shifted_pitches":[2,-1,1,4,11,4,0,-2,1,8,2,4,1,11,0,1],"swapped_pitches":[2,-1,1,4,11,4,0,1,-1,8,2,4,1,11,0,1],"shift_direction":-1,"question_num":171,"has_decoy":false},{"rt":963.5,"stimulus":"[A] option 1, [L] option 2, [G] neither","key_press":76,"name":"choice","trial_type":"html-keyboard-response","trial_index":208,"time_elapsed":504222,"internal_node_id":"0.0-208.0","subject":"S1C1627","sona":"41740","block":5,"time":"2021-09-17T20:10:21.917Z","response":"2nd","certainty":"high","char":"L","transposition":3,"order":["swapped","shifted"],"probe_pitches":[7,2,5,2,3,1,5,2,3,8,10,7,11,10,2,7],"shifted_pitches":[7,2,5,2,3,1,5,2,4,8,10,7,11,10,2,7],"swapped_pitches":[7,2,5,2,3,1,5,3,2,8,10,7,11,10,2,7],"shift_direction":1,"question_num":181,"has_decoy":false},{"rt":692.7000000476837,"stimulus":"[A] option 1, [L] option 2, [G] neither","key_press":76,"name":"choice","trial_type":"html-keyboard-response","trial_index":219,"time_elapsed":528375,"internal_node_id":"0.0-219.0","subject":"S1C1627","sona":"41740","block":5,"time":"2021-09-17T20:10:21.917Z","response":"2nd","certainty":"high","char":"L","transposition":-1,"order":["swapped","shifted"],"probe_pitches":[3,5,8,0,-2,3,10,8,3,0,5,-2,5,0,10,0],"shifted_pitches":[3,5,8,0,-2,3,10,8,2,0,5,-2,5,0,10,0],"swapped_pitches":[3,5,8,0,-2,3,10,3,8,0,5,-2,5,0,10,0],"shift_direction":-1,"question_num":191,"has_decoy":false}]