[{"rt":1965,"stimulus":"[A] option 1, [L] option 2, [G] neither","key_press":65,"name":"choice","trial_type":"html-keyboard-response","trial_index":10,"time_elapsed":30129,"internal_node_id":"0.0-10.0","subject":"S1C1627","sona":"41740","block":2,"time":"2021-09-17T19:42:36.648Z","response":"1st","certainty":"high","char":"A","transposition":2,"order":["shifted","swapped"],"probe_pitches":[13,8,9,5,2,10,5,6,11,4,6,11,3,1,3,5],"shifted_pitches":[13,8,9,5,2,10,5,7,11,4,6,11,3,1,3,5],"swapped_pitches":[13,8,9,5,2,10,5,11,6,4,6,11,3,1,3,5],"shift_direction":1,"question_num":1,"has_decoy":false},{"rt":1680.4000000953674,"stimulus":"[A] option 1, [L] option 2, [G] neither","key_press":76,"name":"choice","trial_type":"html-keyboard-response","trial_index":21,"time_elapsed":54147,"internal_node_id":"0.0-21.0","subject":"S1C1627","sona":"41740","block":2,"time":"2021-09-17T19:42:36.648Z","response":"2nd","certainty":"high","char":"L","transposition":-3,"order":["swapped","shifted"],"probe_pitches":[8,5,1,8,1,8,1,3,10,8,10,1,-2,3,8,10],"shifted_pitches":[8,5,1,8,1,8,1,2,10,8,10,1,-2,3,8,10],"swapped_pitches":[8,5,1,8,1,8,1,10,3,8,10,1,-2,3,8,10],"shift_direction":-1,"question_num":11,"has_decoy":false},{"rt":2206.100000023842,"stimulus":"[A] option 1, [L] option 2, [G] neither","key_press":76,"name":"choice","trial_type":"html-keyboard-response","trial_index":32,"time_elapsed":79368,"internal_node_id":"0.0-32.0","subject":"S1C1627","sona":"41740","block":2,"time":"2021-09-17T19:42:36.648Z","response":"2nd","certainty":"high","char":"L","transposition":0,"order":["swapped","shifted"],"probe_pitches":[6,1,8,11,7,2,1,11,8,12,2,4,9,8,1,3],"shifted_pitches":[6,1,8,11,7,2,1,10,8,12,2,4,9,8,1,3],"swapped_pitches":[6,1,8,11,7,2,1,8,11,12,2,4,9,8,1,3],"shift_direction":-1,"question_num":21,"has_decoy":false},{"rt":1890,"stimulus":"[A] option 1, [L] option 2, [G] neither","key_press":65,"name":"choice","trial_type":"html-keyboard-response","trial_index":43,"time_elapsed":104703,"internal_node_id":"0.0-43.0","subject":"S1C1627","sona":"41740","block":2,"time":"2021-09-17T19:42:36.648Z","response":"1st","certainty":"high","char":"A","transposition":-3,"order":["shifted","swapped"],"probe_pitches":[3,1,-2,6,3,10,3,-2,6,10,3,-2,3,10,6,8],"shifted_pitches":[3,1,-2,6,3,10,3,-1,6,10,3,-2,3,10,6,8],"swapped_pitches":[3,1,-2,6,3,10,3,6,-2,10,3,-2,3,10,6,8],"shift_direction":1,"question_num":31,"has_decoy":false},{"rt":1342,"stimulus":"[A] option 1, [L] option 2, [G] neither","key_press":65,"name":"choice","trial_type":"html-keyboard-response","trial_index":54,"time_elapsed":129031,"internal_node_id":"0.0-54.0","subject":"S1C1627","sona":"41740","block":2,"time":"2021-09-17T19:42:36.648Z","response":"1st","certainty":"high","char":"A","transposition":-3,"order":["shifted","swapped"],"probe_pitches":[2,3,10,5,13,9,5,10,2,8,1,2,4,13,1,3],"shifted_pitches":[2,3,10,5,13,9,5,11,2,8,1,2,4,13,1,3],"swapped_pitches":[2,3,10,5,13,9,5,2,10,8,1,2,4,13,1,3],"shift_direction":1,"question_num":41,"has_decoy":false},{"rt":715.3999999761581,"stimulus":"[A] option 1, [L] option 2, [G] neither","key_press":76,"name":"choice","trial_type":"html-keyboard-response","trial_index":65,"time_elapsed":152342,"internal_node_id":"0.0-65.0","subject":"S1C1627","sona":"41740","block":2,"time":"2021-09-17T19:42:36.648Z","response":"2nd","certainty":"high","char":"L","transposition":-2,"order":["swapped","shifted"],"probe_pitches":[1,2,7,2,7,5,9,12,7,6,9,3,11,9,4,3],"shifted_pitches":[1,2,7,2,7,5,9,12,8,6,9,3,11,9,4,3],"swapped_pitches":[1,2,7,2,7,5,9,7,12,6,9,3,11,9,4,3],"shift_direction":1,"question_num":51,"has_decoy":false},{"rt":1552,"stimulus":"[A] option 1, [L] option 2, [G] neither","key_press":65,"name":"choice","trial_type":"html-keyboard-response","trial_index":76,"time_elapsed":176374,"internal_node_id":"0.0-76.0","subject":"S1C1627","sona":"41740","block":2,"time":"2021-09-17T19:42:36.648Z","response":"1st","certainty":"high","char":"A","transposition":1,"order":["swapped","shifted"],"probe_pitches":[13,12,7,11,4,6,13,4,6,8,4,8,7,11,13,12],"shifted_pitches":[13,12,7,11,4,6,13,4,5,8,4,8,7,11,13,12],"swapped_pitches":[13,12,7,11,4,6,13,6,4,8,4,8,7,11,13,12],"shift_direction":-1,"question_num":61,"has_decoy":false},{"rt":1325.7999999523163,"stimulus":"[A] option 1, [L] option 2, [G] neither","key_press":76,"name":"choice","trial_type":"html-keyboard-response","trial_index":87,"time_elapsed":200265,"internal_node_id":"0.0-87.0","subject":"S1C1627","sona":"41740","block":2,"time":"2021-09-17T19:42:36.648Z","response":"2nd","certainty":"high","char":"L","transposition":2,"order":["shifted","swapped"],"probe_pitches":[0,3,10,8,3,8,5,3,8,-2,5,10,3,5,10,0],"shifted_pitches":[0,3,10,8,3,8,5,4,8,-2,5,10,3,5,10,0],"swapped_pitches":[0,3,10,8,3,8,5,8,3,-2,5,10,3,5,10,0],"shift_direction":1,"question_num":71,"has_decoy":false},{"rt":2071.899999976158,"stimulus":"[A] option 1, [L] option 2, [G] neither","key_press":65,"name":"choice","trial_type":"html-keyboard-response","trial_index":98,"time_elapsed":224734,"internal_node_id":"0.0-98.0","subject":"S1C1627","sona":"41740","block":2,"time":"2021-09-17T19:42:36.648Z","response":"1st","certainty":"high","char":"A","transposition":-3,"order":["swapped","shifted"],"probe_pitches":[1,6,9,6,4,2,9,4,13,8,10,1,9,11,6,10],"shifted_pitches":[1,6,9,6,4,2,9,4,12,8,10,1,9,11,6,10],"swapped_pitches":[1,6,9,6,4,2,9,13,4,8,10,1,9,11,6,10],"shift_direction":-1,"question_num":81,"has_decoy":false},{"rt":1588.6999999284744,"stimulus":"[A] option 1, [L] option 2, [G] neither","key_press":65,"name":"choice","trial_type":"html-keyboard-response","trial_index":109,"time_elapsed":248761,"internal_node_id":"0.0-109.0","subject":"S1C1627","sona":"41740","block":2,"time":"2021-09-17T19:42:36.648Z","response":"1st","certainty":"high","char":"A","transposition":-2,"order":["shifted","swapped"],"probe_pitches":[10,5,-2,0,5,0,2,7,5,0,10,2,10,0,5,7],"shifted_pitches":[10,5,-2,0,5,0,2,7,4,0,10,2,10,0,5,7],"swapped_pitches":[10,5,-2,0,5,0,2,5,7,0,10,2,10,0,5,7],"shift_direction":-1,"question_num":91,"has_decoy":false},{"rt":1163.8999999761581,"stimulus":"[A] option 1, [L] option 2, [G] neither","key_press":65,"name":"choice","trial_type":"html-keyboard-response","trial_index":120,"time_elapsed":275175,"internal_node_id":"0.0-120.0","subject":"S1C1627","sona":"41740","block":2,"time":"2021-09-17T19:42:36.648Z","response":"1st","certainty":"high","char":"A","transposition":-1,"order":["swapped","shifted"],"probe_pitches":[13,9,5,2,7,11,2,4,6,8,5,13,10,12,8,1],"shifted_pitches":[13,9,5,2,7,11,2,3,6,8,5,13,10,12,8,1],"swapped_pitches":[13,9,5,2,7,11,2,6,4,8,5,13,10,12,8,1],"shift_direction":-1,"question_num":101,"has_decoy":false},{"rt":1855.6000000238419,"stimulus":"[A] option 1, [L] option 2, [G] neither","key_press":65,"name":"choice","trial_type":"html-keyboard-response","trial_index":131,"time_elapsed":299601,"internal_node_id":"0.0-131.0","subject":"S1C1627","sona":"41740","block":2,"time":"2021-09-17T19:42:36.648Z","response":"1st","certainty":"high","char":"A","transposition":3,"order":["shifted","swapped"],"probe_pitches":[10,5,1,8,5,-2,8,5,3,10,1,3,5,3,-2,8],"shifted_pitches":[10,5,1,8,5,-2,8,5,4,10,1,3,5,3,-2,8],"swapped_pitches":[10,5,1,8,5,-2,8,3,5,10,1,3,5,3,-2,8],"shift_direction":1,"question_num":111,"has_decoy":false},{"rt":1425,"stimulus":"[A] option 1, [L] option 2, [G] neither","key_press":76,"name":"choice","trial_type":"html-keyboard-response","trial_index":142,"time_elapsed":330018,"internal_node_id":"0.0-142.0","subject":"S1C1627","sona":"41740","block":2,"time":"2021-09-17T19:42:36.648Z","response":"2nd","certainty":"high","char":"L","transposition":1,"order":["swapped","shifted"],"probe_pitches":[10,6,10,3,10,1,6,8,10,1,10,3,6,3,10,3],"shifted_pitches":[10,6,10,3,10,1,6,8,11,1,10,3,6,3,10,3],"swapped_pitches":[10,6,10,3,10,1,6,10,8,1,10,3,6,3,10,3],"shift_direction":1,"question_num":121,"has_decoy":false},{"rt":1740.1000000238419,"stimulus":"[A] option 1, [L] option 2, [G] neither","key_press":65,"name":"choice","trial_type":"html-keyboard-response","trial_index":153,"time_elapsed":356343,"internal_node_id":"0.0-153.0","subject":"S1C1627","sona":"41740","block":2,"time":"2021-09-17T19:42:36.648Z","response":"1st","certainty":"high","char":"A","transposition":-2,"order":["shifted","swapped"],"probe_pitches":[12,7,8,9,1,5,6,3,2,12,8,11,1,9,11,13],"shifted_pitches":[12,7,8,9,1,5,6,4,2,12,8,11,1,9,11,13],"swapped_pitches":[12,7,8,9,1,5,6,2,3,12,8,11,1,9,11,13],"shift_direction":1,"question_num":131,"has_decoy":false},{"rt":1707.2999999523163,"stimulus":"[A] option 1, [L] option 2, [G] neither","key_press":65,"name":"choice","trial_type":"html-keyboard-response","trial_index":164,"time_elapsed":380717,"internal_node_id":"0.0-164.0","subject":"S1C1627","sona":"41740","block":2,"time":"2021-09-17T19:42:36.648Z","response":"1st","certainty":"high","char":"A","transposition":-1,"order":["swapped","shifted"],"probe_pitches":[10,5,10,7,0,2,-2,0,2,7,0,5,2,-2,0,-2],"shifted_pitches":[10,5,10,7,0,2,-2,0,1,7,0,5,2,-2,0,-2],"swapped_pitches":[10,5,10,7,0,2,-2,2,0,7,0,5,2,-2,0,-2],"shift_direction":-1,"question_num":141,"has_decoy":false},{"rt":3455.399999976158,"stimulus":"[A] option 1, [L] option 2, [G] neither","key_press":65,"name":"choice","trial_type":"html-keyboard-response","trial_index":175,"time_elapsed":408464,"internal_node_id":"0.0-175.0","subject":"S1C1627","sona":"41740","block":2,"time":"2021-09-17T19:42:36.648Z","response":"1st","certainty":"high","char":"A","transposition":0,"order":["swapped","shifted"],"probe_pitches":[3,-2,5,7,-2,5,10,7,-2,5,3,0,3,0,5,0],"shifted_pitches":[3,-2,5,7,-2,5,10,8,-2,5,3,0,3,0,5,0],"swapped_pitches":[3,-2,5,7,-2,5,10,-2,7,5,3,0,3,0,5,0],"shift_direction":1,"question_num":151,"has_decoy":false},{"rt":1563.5,"stimulus":"[A] option 1, [L] option 2, [G] neither","key_press":76,"name":"choice","trial_type":"html-keyboard-response","trial_index":186,"time_elapsed":435861,"internal_node_id":"0.0-186.0","subject":"S1C1627","sona":"41740","block":2,"time":"2021-09-17T19:42:36.648Z","response":"2nd","certainty":"high","char":"L","transposition":-1,"order":["shifted","swapped"],"probe_pitches":[13,9,3,1,2,8,3,13,5,1,3,7,8,2,10,4],"shifted_pitches":[13,9,3,1,2,8,3,13,6,1,3,7,8,2,10,4],"swapped_pitches":[13,9,3,1,2,8,3,5,13,1,3,7,8,2,10,4],"shift_direction":1,"question_num":161,"has_decoy":false},{"rt":1752,"stimulus":"[A] option 1, [L] option 2, [G] neither","key_press":65,"name":"choice","trial_type":"html-keyboard-response","trial_index":197,"time_elapsed":459928,"internal_node_id":"0.0-197.0","subject":"S1C1627","sona":"41740","block":2,"time":"2021-09-17T19:42:36.648Z","response":"1st","certainty":"high","char":"A","transposition":3,"order":["shifted","swapped"],"probe_pitches":[10,4,11,3,1,8,12,11,10,12,3,13,10,1,5,1],"shifted_pitches":[10,4,11,3,1,8,12,11,9,12,3,13,10,1,5,1],"swapped_pitches":[10,4,11,3,1,8,12,10,11,12,3,13,10,1,5,1],"shift_direction":-1,"question_num":171,"has_decoy":false},{"rt":1708.8999999761581,"stimulus":"[A] option 1, [L] option 2, [G] neither","key_press":76,"name":"choice","trial_type":"html-keyboard-response","trial_index":208,"time_elapsed":483904,"internal_node_id":"0.0-208.0","subject":"S1C1627","sona":"41740","block":2,"time":"2021-09-17T19:42:36.648Z","response":"2nd","certainty":"high","char":"L","transposition":-1,"order":["swapped","shifted"],"probe_pitches":[0,-2,3,-2,5,3,0,8,10,-2,10,8,3,8,3,8],"shifted_pitches":[0,-2,3,-2,5,3,0,7,10,-2,10,8,3,8,3,8],"swapped_pitches":[0,-2,3,-2,5,3,0,10,8,-2,10,8,3,8,3,8],"shift_direction":-1,"question_num":181,"has_decoy":false},{"rt":1609.8999999761581,"stimulus":"[A] option 1, [L] option 2, [G] neither","key_press":65,"name":"choice","trial_type":"html-keyboard-response","trial_index":219,"time_elapsed":508234,"internal_node_id":"0.0-219.0","subject":"S1C1627","sona":"41740","block":2,"time":"2021-09-17T19:42:36.648Z","response":"1st","certainty":"high","char":"A","transposition":-2,"order":["shifted","swapped"],"probe_pitches":[7,3,0,3,5,10,3,0,10,-2,3,10,0,5,0,7],"shifted_pitches":[7,3,0,3,5,10,3,0,9,-2,3,10,0,5,0,7],"swapped_pitches":[7,3,0,3,5,10,3,10,0,-2,3,10,0,5,0,7],"shift_direction":-1,"question_num":191,"has_decoy":false}]