[{"rt":9006.299999952316,"stimulus":"[A] option 1, [L] option 2, [G] neither","key_press":65,"name":"choice","trial_type":"html-keyboard-response","trial_index":15,"time_elapsed":114140,"internal_node_id":"0.0-15.0","response":"1st","certainty":"high","char":"A","transposition":2,"order":["swapped","shifted"],"probe_pitches":[5,11,6,9,7,0,4,3,1,8,0,10,6,0,3,8],"shifted_pitches":[5,11,6,9,7,0,4,2,1,8,0,10,6,0,3,8],"swapped_pitches":[5,11,6,9,7,0,4,1,3,8,0,10,6,0,3,8],"shift_direction":-1,"question_num":1,"has_decoy":false,"subject":"S1C1627","sona":"41740","block":1,"time":"2021-09-17T19:30:55.400Z"},{"rt":2666.5,"stimulus":"[A] option 1, [L] option 2, [G] neither","key_press":76,"name":"choice","trial_type":"html-keyboard-response","trial_index":26,"time_elapsed":141409,"internal_node_id":"0.0-26.0","response":"2nd","certainty":"high","char":"L","transposition":-3,"order":["shifted","swapped"],"probe_pitches":[3,0,4,2,5,4,5,0,6,5,4,11,10,8,7,9],"shifted_pitches":[3,0,4,2,5,4,5,1,6,5,4,11,10,8,7,9],"swapped_pitches":[3,0,4,2,5,4,5,6,0,5,4,11,10,8,7,9],"shift_direction":1,"question_num":11,"has_decoy":false,"subject":"S1C1627","sona":"41740","block":1,"time":"2021-09-17T19:30:55.400Z"},{"rt":5696.600000023842,"stimulus":"[A] option 1, [L] option 2, [G] neither","key_press":76,"name":"choice","trial_type":"html-keyboard-response","trial_index":37,"time_elapsed":170925,"internal_node_id":"0.0-37.0","response":"2nd","certainty":"high","char":"L","transposition":-1,"order":["shifted","swapped"],"probe_pitches":[11,9,4,11,9,4,11,9,-1,11,2,11,4,-1,6,-1],"shifted_pitches":[11,9,4,11,9,4,11,8,-1,11,2,11,4,-1,6,-1],"swapped_pitches":[11,9,4,11,9,4,11,-1,9,11,2,11,4,-1,6,-1],"shift_direction":-1,"question_num":21,"has_decoy":false,"subject":"S1C1627","sona":"41740","block":1,"time":"2021-09-17T19:30:55.400Z"},{"rt":8825.100000023842,"stimulus":"[A] option 1, [L] option 2, [G] neither","key_press":65,"name":"choice","trial_type":"html-keyboard-response","trial_index":48,"time_elapsed":209221,"internal_node_id":"0.0-48.0","response":"1st","certainty":"high","char":"A","transposition":0,"order":["shifted","swapped"],"probe_pitches":[2,1,6,11,8,4,0,6,-1,7,-1,8,2,4,11,10],"shifted_pitches":[2,1,6,11,8,4,0,5,-1,7,-1,8,2,4,11,10],"swapped_pitches":[2,1,6,11,8,4,0,-1,6,7,-1,8,2,4,11,10],"shift_direction":-1,"question_num":31,"has_decoy":false,"subject":"S1C1627","sona":"41740","block":1,"time":"2021-09-17T19:30:55.400Z"},{"rt":702.5,"stimulus":"[A] option 1, [L] option 2, [G] neither","key_press":76,"name":"choice","trial_type":"html-keyboard-response","trial_index":59,"time_elapsed":240256,"internal_node_id":"0.0-59.0","response":"2nd","certainty":"high","char":"L","transposition":-1,"order":["swapped","shifted"],"probe_pitches":[1,6,9,7,4,-1,7,4,2,10,2,0,11,1,8,4],"shifted_pitches":[1,6,9,7,4,-1,7,3,2,10,2,0,11,1,8,4],"swapped_pitches":[1,6,9,7,4,-1,7,2,4,10,2,0,11,1,8,4],"shift_direction":-1,"question_num":41,"has_decoy":false,"subject":"S1C1627","sona":"41740","block":1,"time":"2021-09-17T19:30:55.400Z"},{"rt":993.5,"stimulus":"[A] option 1, [L] option 2, [G] neither","key_press":65,"name":"choice","trial_type":"html-keyboard-response","trial_index":70,"time_elapsed":264254,"internal_node_id":"0.0-70.0","response":"1st","certainty":"high","char":"A","transposition":1,"order":["swapped","shifted"],"probe_pitches":[1,-1,3,-1,1,6,8,6,11,8,11,6,8,11,6,3],"shifted_pitches":[1,-1,3,-1,1,6,8,5,11,8,11,6,8,11,6,3],"swapped_pitches":[1,-1,3,-1,1,6,8,11,6,8,11,6,8,11,6,3],"shift_direction":-1,"question_num":51,"has_decoy":false,"subject":"S1C1627","sona":"41740","block":1,"time":"2021-09-17T19:30:55.400Z"},{"rt":1430.1999999284744,"stimulus":"[A] option 1, [L] option 2, [G] neither","key_press":65,"name":"choice","trial_type":"html-keyboard-response","trial_index":81,"time_elapsed":289397,"internal_node_id":"0.0-81.0","response":"1st","certainty":"high","char":"A","transposition":-3,"order":["shifted","swapped"],"probe_pitches":[10,7,0,4,2,7,4,6,9,3,2,6,3,6,1,3],"shifted_pitches":[10,7,0,4,2,7,4,6,8,3,2,6,3,6,1,3],"swapped_pitches":[10,7,0,4,2,7,4,9,6,3,2,6,3,6,1,3],"shift_direction":-1,"question_num":61,"has_decoy":false,"subject":"S1C1627","sona":"41740","block":1,"time":"2021-09-17T19:30:55.400Z"},{"rt":686.1000000238419,"stimulus":"[A] option 1, [L] option 2, [G] neither","key_press":76,"name":"choice","trial_type":"html-keyboard-response","trial_index":92,"time_elapsed":319633,"internal_node_id":"0.0-92.0","response":"2nd","certainty":"high","char":"L","transposition":-3,"order":["shifted","swapped"],"probe_pitches":[7,4,11,9,4,7,11,2,7,-1,11,7,11,-1,9,11],"shifted_pitches":[7,4,11,9,4,7,11,2,8,-1,11,7,11,-1,9,11],"swapped_pitches":[7,4,11,9,4,7,11,7,2,-1,11,7,11,-1,9,11],"shift_direction":1,"question_num":71,"has_decoy":false,"subject":"S1C1627","sona":"41740","block":1,"time":"2021-09-17T19:30:55.400Z"},{"rt":1761.5999999046326,"stimulus":"[A] option 1, [L] option 2, [G] neither","key_press":65,"name":"choice","trial_type":"html-keyboard-response","trial_index":103,"time_elapsed":344472,"internal_node_id":"0.0-103.0","response":"1st","certainty":"high","char":"A","transposition":-3,"order":["swapped","shifted"],"probe_pitches":[6,11,9,4,9,1,9,11,1,6,-1,4,1,-1,9,1],"shifted_pitches":[6,11,9,4,9,1,9,11,2,6,-1,4,1,-1,9,1],"swapped_pitches":[6,11,9,4,9,1,9,1,11,6,-1,4,1,-1,9,1],"shift_direction":1,"question_num":81,"has_decoy":false,"subject":"S1C1627","sona":"41740","block":1,"time":"2021-09-17T19:30:55.400Z"},{"rt":1423.8999999761581,"stimulus":"[A] option 1, [L] option 2, [G] neither","key_press":76,"name":"choice","trial_type":"html-keyboard-response","trial_index":114,"time_elapsed":371812,"internal_node_id":"0.0-114.0","response":"2nd","certainty":"high","char":"L","transposition":-2,"order":["shifted","swapped"],"probe_pitches":[11,6,4,11,9,1,11,-1,9,11,4,-1,1,4,11,-1],"shifted_pitches":[11,6,4,11,9,1,11,-2,9,11,4,-1,1,4,11,-1],"swapped_pitches":[11,6,4,11,9,1,11,9,-1,11,4,-1,1,4,11,-1],"shift_direction":-1,"question_num":91,"has_decoy":false,"subject":"S1C1627","sona":"41740","block":1,"time":"2021-09-17T19:30:55.400Z"},{"rt":1729.1999999284744,"stimulus":"[A] option 1, [L] option 2, [G] neither","key_press":65,"name":"choice","trial_type":"html-keyboard-response","trial_index":125,"time_elapsed":401100,"internal_node_id":"0.0-125.0","response":"1st","certainty":"high","char":"A","transposition":-2,"order":["swapped","shifted"],"probe_pitches":[3,-1,6,-1,6,8,6,-1,11,8,-1,6,1,-1,8,1],"shifted_pitches":[3,-1,6,-1,6,8,6,-1,10,8,-1,6,1,-1,8,1],"swapped_pitches":[3,-1,6,-1,6,8,6,11,-1,8,-1,6,1,-1,8,1],"shift_direction":-1,"question_num":101,"has_decoy":false,"subject":"S1C1627","sona":"41740","block":1,"time":"2021-09-17T19:30:55.400Z"},{"rt":1381.6000000238419,"stimulus":"[A] option 1, [L] option 2, [G] neither","key_press":76,"name":"choice","trial_type":"html-keyboard-response","trial_index":136,"time_elapsed":430730,"internal_node_id":"0.0-136.0","response":"2nd","certainty":"high","char":"L","transposition":1,"order":["shifted","swapped"],"probe_pitches":[6,11,7,6,2,5,7,6,9,2,11,7,5,8,11,5],"shifted_pitches":[6,11,7,6,2,5,7,6,10,2,11,7,5,8,11,5],"swapped_pitches":[6,11,7,6,2,5,7,9,6,2,11,7,5,8,11,5],"shift_direction":1,"question_num":111,"has_decoy":false,"subject":"S1C1627","sona":"41740","block":1,"time":"2021-09-17T19:30:55.400Z"},{"rt":1718.1000000238419,"stimulus":"[A] option 1, [L] option 2, [G] neither","key_press":65,"name":"choice","trial_type":"html-keyboard-response","trial_index":147,"time_elapsed":457193,"internal_node_id":"0.0-147.0","response":"1st","certainty":"high","char":"A","transposition":3,"order":["shifted","swapped"],"probe_pitches":[0,1,-1,1,10,11,1,2,5,7,1,4,10,-1,0,4],"shifted_pitches":[0,1,-1,1,10,11,1,2,6,7,1,4,10,-1,0,4],"swapped_pitches":[0,1,-1,1,10,11,1,5,2,7,1,4,10,-1,0,4],"shift_direction":1,"question_num":121,"has_decoy":false,"subject":"S1C1627","sona":"41740","block":1,"time":"2021-09-17T19:30:55.400Z"},{"rt":2768.7000000476837,"stimulus":"[A] option 1, [L] option 2, [G] neither","key_press":76,"name":"choice","trial_type":"html-keyboard-response","trial_index":158,"time_elapsed":483333,"internal_node_id":"0.0-158.0","response":"2nd","certainty":"high","char":"L","transposition":2,"order":["swapped","shifted"],"probe_pitches":[-1,1,6,11,6,4,1,8,11,6,1,8,11,6,4,1],"shifted_pitches":[-1,1,6,11,6,4,1,8,12,6,1,8,11,6,4,1],"swapped_pitches":[-1,1,6,11,6,4,1,11,8,6,1,8,11,6,4,1],"shift_direction":1,"question_num":131,"has_decoy":false,"subject":"S1C1627","sona":"41740","block":1,"time":"2021-09-17T19:30:55.400Z"},{"rt":1418.4000000953674,"stimulus":"[A] option 1, [L] option 2, [G] neither","key_press":65,"name":"choice","trial_type":"html-keyboard-response","trial_index":169,"time_elapsed":508486,"internal_node_id":"0.0-169.0","response":"1st","certainty":"high","char":"A","transposition":0,"order":["swapped","shifted"],"probe_pitches":[11,7,2,-1,2,4,11,-1,9,4,9,11,4,2,4,11],"shifted_pitches":[11,7,2,-1,2,4,11,-1,10,4,9,11,4,2,4,11],"swapped_pitches":[11,7,2,-1,2,4,11,9,-1,4,9,11,4,2,4,11],"shift_direction":1,"question_num":141,"has_decoy":false,"subject":"S1C1627","sona":"41740","block":1,"time":"2021-09-17T19:30:55.400Z"},{"rt":2558.5,"stimulus":"[A] option 1, [L] option 2, [G] neither","key_press":76,"name":"choice","trial_type":"html-keyboard-response","trial_index":180,"time_elapsed":535272,"internal_node_id":"0.0-180.0","response":"2nd","certainty":"high","char":"L","transposition":3,"order":["shifted","swapped"],"probe_pitches":[8,11,8,1,8,11,6,4,11,6,11,-1,4,11,-1,11],"shifted_pitches":[8,11,8,1,8,11,6,3,11,6,11,-1,4,11,-1,11],"swapped_pitches":[8,11,8,1,8,11,6,11,4,6,11,-1,4,11,-1,11],"shift_direction":-1,"question_num":151,"has_decoy":false,"subject":"S1C1627","sona":"41740","block":1,"time":"2021-09-17T19:30:55.400Z"},{"rt":2337,"stimulus":"[A] option 1, [L] option 2, [G] neither","key_press":76,"name":"choice","trial_type":"html-keyboard-response","trial_index":191,"time_elapsed":561183,"internal_node_id":"0.0-191.0","response":"2nd","certainty":"high","char":"L","transposition":-2,"order":["swapped","shifted"],"probe_pitches":[1,4,3,9,6,11,2,-1,6,1,6,9,4,2,0,11],"shifted_pitches":[1,4,3,9,6,11,2,-1,7,1,6,9,4,2,0,11],"swapped_pitches":[1,4,3,9,6,11,2,6,-1,1,6,9,4,2,0,11],"shift_direction":1,"question_num":161,"has_decoy":false,"subject":"S1C1627","sona":"41740","block":1,"time":"2021-09-17T19:30:55.400Z"},{"rt":1938.0999999046326,"stimulus":"[A] option 1, [L] option 2, [G] neither","key_press":65,"name":"choice","trial_type":"html-keyboard-response","trial_index":202,"time_elapsed":588931,"internal_node_id":"0.0-202.0","response":"1st","certainty":"high","char":"A","transposition":-1,"order":["shifted","swapped"],"probe_pitches":[4,-1,6,4,9,6,2,11,4,2,-1,11,6,11,-1,2],"shifted_pitches":[4,-1,6,4,9,6,2,12,4,2,-1,11,6,11,-1,2],"swapped_pitches":[4,-1,6,4,9,6,2,4,11,2,-1,11,6,11,-1,2],"shift_direction":1,"question_num":171,"has_decoy":false,"subject":"S1C1627","sona":"41740","block":1,"time":"2021-09-17T19:30:55.400Z"},{"rt":1794.4000000953674,"stimulus":"[A] option 1, [L] option 2, [G] neither","key_press":76,"name":"choice","trial_type":"html-keyboard-response","trial_index":213,"time_elapsed":614225,"internal_node_id":"0.0-213.0","response":"2nd","certainty":"high","char":"L","transposition":-1,"order":["swapped","shifted"],"probe_pitches":[7,1,0,4,-1,5,3,2,8,6,2,6,0,-1,1,-1],"shifted_pitches":[7,1,0,4,-1,5,3,2,9,6,2,6,0,-1,1,-1],"swapped_pitches":[7,1,0,4,-1,5,3,8,2,6,2,6,0,-1,1,-1],"shift_direction":1,"question_num":181,"has_decoy":false,"subject":"S1C1627","sona":"41740","block":1,"time":"2021-09-17T19:30:55.400Z"},{"rt":2086.600000023842,"stimulus":"[A] option 1, [L] option 2, [G] neither","key_press":65,"name":"choice","trial_type":"html-keyboard-response","trial_index":224,"time_elapsed":640360,"internal_node_id":"0.0-224.0","response":"1st","certainty":"high","char":"A","transposition":-2,"order":["swapped","shifted"],"probe_pitches":[0,2,5,10,11,3,11,5,10,1,0,1,5,11,7,-1],"shifted_pitches":[0,2,5,10,11,3,11,4,10,1,0,1,5,11,7,-1],"swapped_pitches":[0,2,5,10,11,3,11,10,5,1,0,1,5,11,7,-1],"shift_direction":-1,"question_num":191,"has_decoy":false,"subject":"S1C1627","sona":"41740","block":1,"time":"2021-09-17T19:30:55.400Z"}]