[{"rt":7055.799999982119,"stimulus":"[A] option 1, [L] option 2, [G] neither","key_press":76,"name":"choice","trial_type":"html-keyboard-response","trial_index":15,"time_elapsed":195117,"internal_node_id":"0.0-15.0","response":"2nd","certainty":"high","char":"L","transposition":-3,"order":["swapped","shifted"],"probe_pitches":[13,11,10,3,7,13,5,6,2,5,4,6],"shifted_pitches":[13,11,10,3,7,12,5,6,2,5,4,6],"swapped_pitches":[13,11,10,3,7,5,13,6,2,5,4,6],"shift_direction":-1,"question_num":1,"has_decoy":false,"subject":"S1C1223","sona":"41866","block":1,"time":"2021-09-17T03:06:22.103Z"},{"rt":3297.7000000178814,"stimulus":"[A] option 1, [L] option 2, [G] neither","key_press":71,"name":"choice","trial_type":"html-keyboard-response","trial_index":26,"time_elapsed":220998,"internal_node_id":"0.0-26.0","response":"neither","certainty":"high","char":"G","transposition":3,"order":["shifted","swapped"],"probe_pitches":[1,-2,3,-2,3,-2,5,1,-2,8,10,-2],"shifted_pitches":[1,-2,3,-2,3,-2,6,1,-2,8,10,-2],"swapped_pitches":[1,-2,3,-2,3,5,-2,1,-2,8,10,-2],"shift_direction":1,"question_num":11,"has_decoy":false,"subject":"S1C1223","sona":"41866","block":1,"time":"2021-09-17T03:06:22.103Z"},{"rt":6137.300000011921,"stimulus":"[A] option 1, [L] option 2, [G] neither","key_press":71,"name":"choice","trial_type":"html-keyboard-response","trial_index":37,"time_elapsed":248683,"internal_node_id":"0.0-37.0","response":"neither","certainty":"high","char":"G","transposition":2,"order":["shifted","swapped"],"probe_pitches":[1,2,4,2,3,1,9,6,12,10,13,7],"shifted_pitches":[1,2,4,2,3,1,8,6,12,10,13,7],"swapped_pitches":[1,2,4,2,3,9,1,6,12,10,13,7],"shift_direction":-1,"question_num":21,"has_decoy":false,"subject":"S1C1223","sona":"41866","block":1,"time":"2021-09-17T03:06:22.103Z"},{"rt":1745.4000000059605,"stimulus":"[A] option 1, [L] option 2, [G] neither","key_press":65,"name":"choice","trial_type":"html-keyboard-response","trial_index":48,"time_elapsed":269863,"internal_node_id":"0.0-48.0","response":"1st","certainty":"high","char":"A","transposition":-2,"order":["shifted","swapped"],"probe_pitches":[3,1,6,-2,6,1,8,-2,6,8,-2,8],"shifted_pitches":[3,1,6,-2,6,0,8,-2,6,8,-2,8],"swapped_pitches":[3,1,6,-2,6,8,1,-2,6,8,-2,8],"shift_direction":-1,"question_num":31,"has_decoy":false,"subject":"S1C1223","sona":"41866","block":1,"time":"2021-09-17T03:06:22.103Z"},{"rt":1612.7000000178814,"stimulus":"[A] option 1, [L] option 2, [G] neither","key_press":71,"name":"choice","trial_type":"html-keyboard-response","trial_index":59,"time_elapsed":289781,"internal_node_id":"0.0-59.0","response":"neither","certainty":"high","char":"G","transposition":-3,"order":["swapped","shifted"],"probe_pitches":[5,7,10,3,10,7,-2,0,-2,5,7,-2],"shifted_pitches":[5,7,10,3,10,7,-3,0,-2,5,7,-2],"swapped_pitches":[5,7,10,3,10,-2,7,0,-2,5,7,-2],"shift_direction":-1,"question_num":41,"has_decoy":false,"subject":"S1C1223","sona":"41866","block":1,"time":"2021-09-17T03:06:22.103Z"},{"rt":2434.9000000059605,"stimulus":"[A] option 1, [L] option 2, [G] neither","key_press":65,"name":"choice","trial_type":"html-keyboard-response","trial_index":70,"time_elapsed":311743,"internal_node_id":"0.0-70.0","response":"1st","certainty":"high","char":"A","transposition":-2,"order":["swapped","shifted"],"probe_pitches":[8,13,10,2,5,1,10,13,6,10,5,6],"shifted_pitches":[8,13,10,2,5,1,11,13,6,10,5,6],"swapped_pitches":[8,13,10,2,5,10,1,13,6,10,5,6],"shift_direction":1,"question_num":51,"has_decoy":false,"subject":"S1C1223","sona":"41866","block":1,"time":"2021-09-17T03:06:22.103Z"},{"rt":1234.3999999761581,"stimulus":"[A] option 1, [L] option 2, [G] neither","key_press":76,"name":"choice","trial_type":"html-keyboard-response","trial_index":81,"time_elapsed":332870,"internal_node_id":"0.0-81.0","response":"2nd","certainty":"high","char":"L","transposition":1,"order":["swapped","shifted"],"probe_pitches":[13,8,11,12,6,13,9,4,7,9,7,8],"shifted_pitches":[13,8,11,12,6,13,10,4,7,9,7,8],"swapped_pitches":[13,8,11,12,6,9,13,4,7,9,7,8],"shift_direction":1,"question_num":61,"has_decoy":false,"subject":"S1C1223","sona":"41866","block":1,"time":"2021-09-17T03:06:22.103Z"},{"rt":1414.2000000178814,"stimulus":"[A] option 1, [L] option 2, [G] neither","key_press":76,"name":"choice","trial_type":"html-keyboard-response","trial_index":92,"time_elapsed":353291,"internal_node_id":"0.0-92.0","response":"2nd","certainty":"high","char":"L","transposition":-1,"order":["swapped","shifted"],"probe_pitches":[7,5,-2,5,-2,3,10,5,-2,0,7,-2],"shifted_pitches":[7,5,-2,5,-2,4,10,5,-2,0,7,-2],"swapped_pitches":[7,5,-2,5,-2,10,3,5,-2,0,7,-2],"shift_direction":1,"question_num":71,"has_decoy":false,"subject":"S1C1223","sona":"41866","block":1,"time":"2021-09-17T03:06:22.103Z"},{"rt":1224.199999988079,"stimulus":"[A] option 1, [L] option 2, [G] neither","key_press":71,"name":"choice","trial_type":"html-keyboard-response","trial_index":103,"time_elapsed":373577,"internal_node_id":"0.0-103.0","response":"neither","certainty":"high","char":"G","transposition":-3,"order":["shifted","swapped"],"probe_pitches":[1,3,7,9,12,3,4,11,2,1,10,3],"shifted_pitches":[1,3,7,9,12,3,5,11,2,1,10,3],"swapped_pitches":[1,3,7,9,12,4,3,11,2,1,10,3],"shift_direction":1,"question_num":81,"has_decoy":false,"subject":"S1C1223","sona":"41866","block":1,"time":"2021-09-17T03:06:22.103Z"},{"rt":3116.4000000059605,"stimulus":"[A] option 1, [L] option 2, [G] neither","key_press":71,"name":"choice","trial_type":"html-keyboard-response","trial_index":114,"time_elapsed":395700,"internal_node_id":"0.0-114.0","response":"neither","certainty":"high","char":"G","transposition":-2,"order":["swapped","shifted"],"probe_pitches":[9,8,3,11,9,3,1,7,12,8,6,9],"shifted_pitches":[9,8,3,11,9,4,1,7,12,8,6,9],"swapped_pitches":[9,8,3,11,9,1,3,7,12,8,6,9],"shift_direction":1,"question_num":91,"has_decoy":false,"subject":"S1C1223","sona":"41866","block":1,"time":"2021-09-17T03:06:22.103Z"},{"rt":4743.600000023842,"stimulus":"[A] option 1, [L] option 2, [G] neither","key_press":65,"name":"choice","trial_type":"html-keyboard-response","trial_index":125,"time_elapsed":418847,"internal_node_id":"0.0-125.0","response":"1st","certainty":"high","char":"A","transposition":-1,"order":["swapped","shifted"],"probe_pitches":[2,3,1,8,9,8,10,9,8,1,10,13],"shifted_pitches":[2,3,1,8,9,7,10,9,8,1,10,13],"swapped_pitches":[2,3,1,8,9,10,8,9,8,1,10,13],"shift_direction":-1,"question_num":101,"has_decoy":false,"subject":"S1C1223","sona":"41866","block":1,"time":"2021-09-17T03:06:22.103Z"},{"rt":1934.199999988079,"stimulus":"[A] option 1, [L] option 2, [G] neither","key_press":76,"name":"choice","trial_type":"html-keyboard-response","trial_index":136,"time_elapsed":439416,"internal_node_id":"0.0-136.0","response":"2nd","certainty":"high","char":"L","transposition":-1,"order":["shifted","swapped"],"probe_pitches":[10,12,8,2,10,6,2,10,11,10,2,7],"shifted_pitches":[10,12,8,2,10,6,3,10,11,10,2,7],"swapped_pitches":[10,12,8,2,10,2,6,10,11,10,2,7],"shift_direction":1,"question_num":111,"has_decoy":false,"subject":"S1C1223","sona":"41866","block":1,"time":"2021-09-17T03:06:22.103Z"},{"rt":2171.699999988079,"stimulus":"[A] option 1, [L] option 2, [G] neither","key_press":76,"name":"choice","trial_type":"html-keyboard-response","trial_index":147,"time_elapsed":461034,"internal_node_id":"0.0-147.0","response":"2nd","certainty":"high","char":"L","transposition":3,"order":["shifted","swapped"],"probe_pitches":[7,13,8,3,7,10,13,1,5,11,1,12],"shifted_pitches":[7,13,8,3,7,9,13,1,5,11,1,12],"swapped_pitches":[7,13,8,3,7,13,10,1,5,11,1,12],"shift_direction":-1,"question_num":121,"has_decoy":false,"subject":"S1C1223","sona":"41866","block":1,"time":"2021-09-17T03:06:22.103Z"},{"rt":547.4000000059605,"stimulus":"[A] option 1, [L] option 2, [G] neither","key_press":65,"name":"choice","trial_type":"html-keyboard-response","trial_index":158,"time_elapsed":480255,"internal_node_id":"0.0-158.0","response":"1st","certainty":"high","char":"A","transposition":0,"order":["shifted","swapped"],"probe_pitches":[-2,3,8,0,3,5,-2,8,10,0,10,3],"shifted_pitches":[-2,3,8,0,3,5,-3,8,10,0,10,3],"swapped_pitches":[-2,3,8,0,3,-2,5,8,10,0,10,3],"shift_direction":-1,"question_num":131,"has_decoy":false,"subject":"S1C1223","sona":"41866","block":1,"time":"2021-09-17T03:06:22.103Z"},{"rt":2700.300000011921,"stimulus":"[A] option 1, [L] option 2, [G] neither","key_press":76,"name":"choice","trial_type":"html-keyboard-response","trial_index":169,"time_elapsed":501455,"internal_node_id":"0.0-169.0","response":"2nd","certainty":"high","char":"L","transposition":0,"order":["shifted","swapped"],"probe_pitches":[13,8,1,5,9,7,12,3,5,11,7,4],"shifted_pitches":[13,8,1,5,9,6,12,3,5,11,7,4],"swapped_pitches":[13,8,1,5,9,12,7,3,5,11,7,4],"shift_direction":-1,"question_num":141,"has_decoy":false,"subject":"S1C1223","sona":"41866","block":1,"time":"2021-09-17T03:06:22.103Z"},{"rt":358.30000001192093,"stimulus":"[A] option 1, [L] option 2, [G] neither","key_press":76,"name":"choice","trial_type":"html-keyboard-response","trial_index":180,"time_elapsed":520859,"internal_node_id":"0.0-180.0","response":"2nd","certainty":"high","char":"L","transposition":-1,"order":["swapped","shifted"],"probe_pitches":[-2,0,7,2,7,2,5,10,7,-2,5,10],"shifted_pitches":[-2,0,7,2,7,1,5,10,7,-2,5,10],"swapped_pitches":[-2,0,7,2,7,5,2,10,7,-2,5,10],"shift_direction":-1,"question_num":151,"has_decoy":false,"subject":"S1C1223","sona":"41866","block":1,"time":"2021-09-17T03:06:22.103Z"},{"rt":1341.5,"stimulus":"[A] option 1, [L] option 2, [G] neither","key_press":71,"name":"choice","trial_type":"html-keyboard-response","trial_index":191,"time_elapsed":540315,"internal_node_id":"0.0-191.0","response":"neither","certainty":"high","char":"G","transposition":2,"order":["swapped","shifted"],"probe_pitches":[3,-2,1,3,8,10,1,6,8,1,3,1],"shifted_pitches":[3,-2,1,3,8,10,2,6,8,1,3,1],"swapped_pitches":[3,-2,1,3,8,1,10,6,8,1,3,1],"shift_direction":1,"question_num":161,"has_decoy":false,"subject":"S1C1223","sona":"41866","block":1,"time":"2021-09-17T03:06:22.103Z"},{"rt":6155.9000000059605,"stimulus":"[A] option 1, [L] option 2, [G] neither","key_press":76,"name":"choice","trial_type":"html-keyboard-response","trial_index":202,"time_elapsed":564837,"internal_node_id":"0.0-202.0","response":"2nd","certainty":"high","char":"L","transposition":-3,"order":["shifted","swapped"],"probe_pitches":[5,1,8,1,5,10,3,8,5,-2,10,8],"shifted_pitches":[5,1,8,1,5,11,3,8,5,-2,10,8],"swapped_pitches":[5,1,8,1,5,3,10,8,5,-2,10,8],"shift_direction":1,"question_num":171,"has_decoy":false,"subject":"S1C1223","sona":"41866","block":1,"time":"2021-09-17T03:06:22.103Z"},{"rt":366.7000000178814,"stimulus":"[A] option 1, [L] option 2, [G] neither","key_press":76,"name":"choice","trial_type":"html-keyboard-response","trial_index":213,"time_elapsed":584260,"internal_node_id":"0.0-213.0","response":"2nd","certainty":"high","char":"L","transposition":-2,"order":["shifted","swapped"],"probe_pitches":[0,2,0,2,7,0,10,-2,5,10,5,2],"shifted_pitches":[0,2,0,2,7,1,10,-2,5,10,5,2],"swapped_pitches":[0,2,0,2,7,10,0,-2,5,10,5,2],"shift_direction":1,"question_num":181,"has_decoy":false,"subject":"S1C1223","sona":"41866","block":1,"time":"2021-09-17T03:06:22.103Z"},{"rt":466.7000000178814,"stimulus":"[A] option 1, [L] option 2, [G] neither","key_press":76,"name":"choice","trial_type":"html-keyboard-response","trial_index":224,"time_elapsed":603413,"internal_node_id":"0.0-224.0","response":"2nd","certainty":"high","char":"L","transposition":1,"order":["swapped","shifted"],"probe_pitches":[8,3,-2,3,8,0,10,3,0,3,5,-2],"shifted_pitches":[8,3,-2,3,8,0,9,3,0,3,5,-2],"swapped_pitches":[8,3,-2,3,8,10,0,3,0,3,5,-2],"shift_direction":-1,"question_num":191,"has_decoy":false,"subject":"S1C1223","sona":"41866","block":1,"time":"2021-09-17T03:06:22.103Z"}]