[{"rt":1865.4000000059605,"stimulus":"[A] option 1, [L] option 2, [G] neither","key_press":65,"name":"choice","trial_type":"html-keyboard-response","trial_index":10,"time_elapsed":24816,"internal_node_id":"0.0-10.0","subject":"S1C1223","sona":"41866","block":2,"time":"2021-09-17T03:14:57.233Z","response":"1st","certainty":"high","char":"A","transposition":-1,"order":["shifted","swapped"],"probe_pitches":[14,9,7,4,11,7,9,2,7,2,4,2],"shifted_pitches":[14,9,7,4,11,7,8,2,7,2,4,2],"swapped_pitches":[14,9,7,4,11,9,7,2,7,2,4,2],"shift_direction":-1,"question_num":1,"has_decoy":false},{"rt":2275,"stimulus":"[A] option 1, [L] option 2, [G] neither","key_press":71,"name":"choice","trial_type":"html-keyboard-response","trial_index":21,"time_elapsed":47361,"internal_node_id":"0.0-21.0","subject":"S1C1223","sona":"41866","block":2,"time":"2021-09-17T03:14:57.233Z","response":"neither","certainty":"high","char":"G","transposition":-3,"order":["swapped","shifted"],"probe_pitches":[5,9,10,11,5,7,10,-1,10,0,5,6],"shifted_pitches":[5,9,10,11,5,8,10,-1,10,0,5,6],"swapped_pitches":[5,9,10,11,5,10,7,-1,10,0,5,6],"shift_direction":1,"question_num":11,"has_decoy":false},{"rt":2890.0999999940395,"stimulus":"[A] option 1, [L] option 2, [G] neither","key_press":76,"name":"choice","trial_type":"html-keyboard-response","trial_index":32,"time_elapsed":71301,"internal_node_id":"0.0-32.0","subject":"S1C1223","sona":"41866","block":2,"time":"2021-09-17T03:14:57.233Z","response":"2nd","certainty":"high","char":"L","transposition":1,"order":["swapped","shifted"],"probe_pitches":[4,2,9,14,12,14,7,9,2,12,2,12],"shifted_pitches":[4,2,9,14,12,14,6,9,2,12,2,12],"swapped_pitches":[4,2,9,14,12,7,14,9,2,12,2,12],"shift_direction":-1,"question_num":21,"has_decoy":false},{"rt":1150.4000000059605,"stimulus":"[A] option 1, [L] option 2, [G] neither","key_press":65,"name":"choice","trial_type":"html-keyboard-response","trial_index":43,"time_elapsed":91063,"internal_node_id":"0.0-43.0","subject":"S1C1223","sona":"41866","block":2,"time":"2021-09-17T03:14:57.233Z","response":"1st","certainty":"high","char":"A","transposition":1,"order":["shifted","swapped"],"probe_pitches":[1,6,7,-1,4,6,1,-1,9,2,-1,7],"shifted_pitches":[1,6,7,-1,4,5,1,-1,9,2,-1,7],"swapped_pitches":[1,6,7,-1,4,1,6,-1,9,2,-1,7],"shift_direction":-1,"question_num":31,"has_decoy":false},{"rt":7096.5,"stimulus":"[A] option 1, [L] option 2, [G] neither","key_press":71,"name":"choice","trial_type":"html-keyboard-response","trial_index":54,"time_elapsed":119174,"internal_node_id":"0.0-54.0","subject":"S1C1223","sona":"41866","block":2,"time":"2021-09-17T03:14:57.233Z","response":"neither","certainty":"high","char":"G","transposition":-3,"order":["shifted","swapped"],"probe_pitches":[14,11,14,11,2,11,4,2,11,9,4,7],"shifted_pitches":[14,11,14,11,2,11,3,2,11,9,4,7],"swapped_pitches":[14,11,14,11,2,4,11,2,11,9,4,7],"shift_direction":-1,"question_num":41,"has_decoy":false},{"rt":1625.5999999940395,"stimulus":"[A] option 1, [L] option 2, [G] neither","key_press":76,"name":"choice","trial_type":"html-keyboard-response","trial_index":65,"time_elapsed":139172,"internal_node_id":"0.0-65.0","subject":"S1C1223","sona":"41866","block":2,"time":"2021-09-17T03:14:57.233Z","response":"2nd","certainty":"high","char":"L","transposition":-2,"order":["swapped","shifted"],"probe_pitches":[4,9,2,9,4,8,9,6,7,0,3,-1],"shifted_pitches":[4,9,2,9,4,8,10,6,7,0,3,-1],"swapped_pitches":[4,9,2,9,4,9,8,6,7,0,3,-1],"shift_direction":1,"question_num":51,"has_decoy":false},{"rt":1598.300000011921,"stimulus":"[A] option 1, [L] option 2, [G] neither","key_press":76,"name":"choice","trial_type":"html-keyboard-response","trial_index":76,"time_elapsed":159189,"internal_node_id":"0.0-76.0","subject":"S1C1223","sona":"41866","block":2,"time":"2021-09-17T03:14:57.233Z","response":"2nd","certainty":"high","char":"L","transposition":-3,"order":["swapped","shifted"],"probe_pitches":[7,5,3,10,1,5,3,-1,0,5,11,10],"shifted_pitches":[7,5,3,10,1,5,4,-1,0,5,11,10],"swapped_pitches":[7,5,3,10,1,3,5,-1,0,5,11,10],"shift_direction":1,"question_num":61,"has_decoy":false},{"rt":433.10000002384186,"stimulus":"[A] option 1, [L] option 2, [G] neither","key_press":71,"name":"choice","trial_type":"html-keyboard-response","trial_index":87,"time_elapsed":178639,"internal_node_id":"0.0-87.0","subject":"S1C1223","sona":"41866","block":2,"time":"2021-09-17T03:14:57.233Z","response":"neither","certainty":"high","char":"G","transposition":2,"order":["shifted","swapped"],"probe_pitches":[14,12,14,7,12,2,9,7,2,7,5,7],"shifted_pitches":[14,12,14,7,12,2,8,7,2,7,5,7],"swapped_pitches":[14,12,14,7,12,9,2,7,2,7,5,7],"shift_direction":-1,"question_num":71,"has_decoy":false},{"rt":35.400000005960464,"stimulus":"[A] option 1, [L] option 2, [G] neither","key_press":76,"name":"choice","trial_type":"html-keyboard-response","trial_index":98,"time_elapsed":217077,"internal_node_id":"0.0-98.0","subject":"S1C1223","sona":"41866","block":2,"time":"2021-09-17T03:14:57.233Z","response":"2nd","certainty":"high","char":"L","transposition":-3,"order":["swapped","shifted"],"probe_pitches":[6,11,4,9,14,9,4,6,14,11,4,6],"shifted_pitches":[6,11,4,9,14,10,4,6,14,11,4,6],"swapped_pitches":[6,11,4,9,14,4,9,6,14,11,4,6],"shift_direction":1,"question_num":81,"has_decoy":false},{"rt":1789.699999988079,"stimulus":"[A] option 1, [L] option 2, [G] neither","key_press":71,"name":"choice","trial_type":"html-keyboard-response","trial_index":109,"time_elapsed":238133,"internal_node_id":"0.0-109.0","subject":"S1C1223","sona":"41866","block":2,"time":"2021-09-17T03:14:57.233Z","response":"neither","certainty":"high","char":"G","transposition":-2,"order":["shifted","swapped"],"probe_pitches":[2,7,10,14,5,12,10,5,2,12,7,5],"shifted_pitches":[2,7,10,14,5,13,10,5,2,12,7,5],"swapped_pitches":[2,7,10,14,5,10,12,5,2,12,7,5],"shift_direction":1,"question_num":91,"has_decoy":false},{"rt":971.6999999880791,"stimulus":"[A] option 1, [L] option 2, [G] neither","key_press":76,"name":"choice","trial_type":"html-keyboard-response","trial_index":120,"time_elapsed":257730,"internal_node_id":"0.0-120.0","subject":"S1C1223","sona":"41866","block":2,"time":"2021-09-17T03:14:57.233Z","response":"2nd","certainty":"high","char":"L","transposition":-1,"order":["shifted","swapped"],"probe_pitches":[2,7,5,10,7,5,12,10,5,2,12,14],"shifted_pitches":[2,7,5,10,7,6,12,10,5,2,12,14],"swapped_pitches":[2,7,5,10,7,12,5,10,5,2,12,14],"shift_direction":1,"question_num":101,"has_decoy":false},{"rt":3036.9000000059605,"stimulus":"[A] option 1, [L] option 2, [G] neither","key_press":71,"name":"choice","trial_type":"html-keyboard-response","trial_index":131,"time_elapsed":279307,"internal_node_id":"0.0-131.0","subject":"S1C1223","sona":"41866","block":2,"time":"2021-09-17T03:14:57.233Z","response":"neither","certainty":"high","char":"G","transposition":-1,"order":["shifted","swapped"],"probe_pitches":[5,9,6,4,10,1,4,10,7,10,3,4],"shifted_pitches":[5,9,6,4,10,2,4,10,7,10,3,4],"swapped_pitches":[5,9,6,4,10,4,1,10,7,10,3,4],"shift_direction":1,"question_num":111,"has_decoy":false},{"rt":400.60000002384186,"stimulus":"[A] option 1, [L] option 2, [G] neither","key_press":76,"name":"choice","trial_type":"html-keyboard-response","trial_index":142,"time_elapsed":297737,"internal_node_id":"0.0-142.0","subject":"S1C1223","sona":"41866","block":2,"time":"2021-09-17T03:14:57.233Z","response":"2nd","certainty":"high","char":"L","transposition":3,"order":["swapped","shifted"],"probe_pitches":[11,10,6,0,2,8,4,10,11,8,2,1],"shifted_pitches":[11,10,6,0,2,8,3,10,11,8,2,1],"swapped_pitches":[11,10,6,0,2,4,8,10,11,8,2,1],"shift_direction":-1,"question_num":121,"has_decoy":false},{"rt":3425.5999999940395,"stimulus":"[A] option 1, [L] option 2, [G] neither","key_press":76,"name":"choice","trial_type":"html-keyboard-response","trial_index":153,"time_elapsed":320796,"internal_node_id":"0.0-153.0","subject":"S1C1223","sona":"41866","block":2,"time":"2021-09-17T03:14:57.233Z","response":"2nd","certainty":"high","char":"L","transposition":2,"order":["shifted","swapped"],"probe_pitches":[11,6,-1,7,0,2,10,0,5,4,6,1],"shifted_pitches":[11,6,-1,7,0,2,9,0,5,4,6,1],"swapped_pitches":[11,6,-1,7,0,10,2,0,5,4,6,1],"shift_direction":-1,"question_num":131,"has_decoy":false},{"rt":692.0999999940395,"stimulus":"[A] option 1, [L] option 2, [G] neither","key_press":76,"name":"choice","trial_type":"html-keyboard-response","trial_index":164,"time_elapsed":339994,"internal_node_id":"0.0-164.0","subject":"S1C1223","sona":"41866","block":2,"time":"2021-09-17T03:14:57.233Z","response":"2nd","certainty":"high","char":"L","transposition":3,"order":["swapped","shifted"],"probe_pitches":[9,14,12,4,7,12,2,9,7,4,12,4],"shifted_pitches":[9,14,12,4,7,13,2,9,7,4,12,4],"swapped_pitches":[9,14,12,4,7,2,12,9,7,4,12,4],"shift_direction":1,"question_num":141,"has_decoy":false},{"rt":1054.2999999821186,"stimulus":"[A] option 1, [L] option 2, [G] neither","key_press":71,"name":"choice","trial_type":"html-keyboard-response","trial_index":175,"time_elapsed":359420,"internal_node_id":"0.0-175.0","subject":"S1C1223","sona":"41866","block":2,"time":"2021-09-17T03:14:57.233Z","response":"neither","certainty":"high","char":"G","transposition":-2,"order":["swapped","shifted"],"probe_pitches":[4,9,11,4,6,2,4,6,4,14,9,11],"shifted_pitches":[4,9,11,4,6,2,3,6,4,14,9,11],"swapped_pitches":[4,9,11,4,6,4,2,6,4,14,9,11],"shift_direction":-1,"question_num":151,"has_decoy":false},{"rt":3177.5,"stimulus":"[A] option 1, [L] option 2, [G] neither","key_press":71,"name":"choice","trial_type":"html-keyboard-response","trial_index":186,"time_elapsed":381723,"internal_node_id":"0.0-186.0","subject":"S1C1223","sona":"41866","block":2,"time":"2021-09-17T03:14:57.233Z","response":"neither","certainty":"high","char":"G","transposition":0,"order":["swapped","shifted"],"probe_pitches":[1,-1,5,1,-1,8,9,3,-1,1,9,3],"shifted_pitches":[1,-1,5,1,-1,7,9,3,-1,1,9,3],"swapped_pitches":[1,-1,5,1,-1,9,8,3,-1,1,9,3],"shift_direction":-1,"question_num":161,"has_decoy":false},{"rt":600.5999999940395,"stimulus":"[A] option 1, [L] option 2, [G] neither","key_press":76,"name":"choice","trial_type":"html-keyboard-response","trial_index":197,"time_elapsed":402477,"internal_node_id":"0.0-197.0","subject":"S1C1223","sona":"41866","block":2,"time":"2021-09-17T03:14:57.233Z","response":"2nd","certainty":"high","char":"L","transposition":-1,"order":["shifted","swapped"],"probe_pitches":[6,0,2,6,10,4,2,3,11,7,4,11],"shifted_pitches":[6,0,2,6,10,4,1,3,11,7,4,11],"swapped_pitches":[6,0,2,6,10,2,4,3,11,7,4,11],"shift_direction":-1,"question_num":171,"has_decoy":false},{"rt":484.40000000596046,"stimulus":"[A] option 1, [L] option 2, [G] neither","key_press":76,"name":"choice","trial_type":"html-keyboard-response","trial_index":208,"time_elapsed":421802,"internal_node_id":"0.0-208.0","subject":"S1C1223","sona":"41866","block":2,"time":"2021-09-17T03:14:57.233Z","response":"2nd","certainty":"high","char":"L","transposition":-2,"order":["shifted","swapped"],"probe_pitches":[10,4,3,2,9,5,3,9,7,11,8,3],"shifted_pitches":[10,4,3,2,9,6,3,9,7,11,8,3],"swapped_pitches":[10,4,3,2,9,3,5,9,7,11,8,3],"shift_direction":1,"question_num":181,"has_decoy":false},{"rt":1127.800000011921,"stimulus":"[A] option 1, [L] option 2, [G] neither","key_press":71,"name":"choice","trial_type":"html-keyboard-response","trial_index":219,"time_elapsed":441278,"internal_node_id":"0.0-219.0","subject":"S1C1223","sona":"41866","block":2,"time":"2021-09-17T03:14:57.233Z","response":"neither","certainty":"high","char":"G","transposition":0,"order":["swapped","shifted"],"probe_pitches":[2,5,7,5,2,9,14,2,5,14,9,12],"shifted_pitches":[2,5,7,5,2,10,14,2,5,14,9,12],"swapped_pitches":[2,5,7,5,2,14,9,2,5,14,9,12],"shift_direction":1,"question_num":191,"has_decoy":false}]