[{"rt":11552.700000047684,"stimulus":"[A] option 1, [L] option 2, [G] neither","key_press":65,"name":"choice","trial_type":"html-keyboard-response","trial_index":15,"time_elapsed":131181,"internal_node_id":"0.0-15.0","response":"1st","certainty":"high","char":"A","transposition":1,"order":["shifted","swapped"],"probe_pitches":[1,3,-2,3,1,10,5,8,10,-2,1,10,8,5,8,1],"shifted_pitches":[1,3,-2,3,1,10,5,7,10,-2,1,10,8,5,8,1],"swapped_pitches":[1,3,-2,3,1,10,5,10,8,-2,1,10,8,5,8,1],"shift_direction":-1,"question_num":1,"has_decoy":false,"subject":"S1C1601","sona":"41425","block":1,"time":"2021-09-05T15:20:16.959Z"},{"rt":2620.9000000953674,"stimulus":"[A] option 1, [L] option 2, [G] neither","key_press":76,"name":"choice","trial_type":"html-keyboard-response","trial_index":26,"time_elapsed":158876,"internal_node_id":"0.0-26.0","response":"2nd","certainty":"high","char":"L","transposition":-1,"order":["swapped","shifted"],"probe_pitches":[5,3,-2,3,0,10,5,8,10,5,8,-2,10,8,3,8],"shifted_pitches":[5,3,-2,3,0,10,5,8,9,5,8,-2,10,8,3,8],"swapped_pitches":[5,3,-2,3,0,10,5,10,8,5,8,-2,10,8,3,8],"shift_direction":-1,"question_num":11,"has_decoy":false,"subject":"S1C1601","sona":"41425","block":1,"time":"2021-09-05T15:20:16.959Z"},{"rt":1908.8000001907349,"stimulus":"[A] option 1, [L] option 2, [G] neither","key_press":76,"name":"choice","trial_type":"html-keyboard-response","trial_index":37,"time_elapsed":185184,"internal_node_id":"0.0-37.0","response":"2nd","certainty":"high","char":"L","transposition":-2,"order":["swapped","shifted"],"probe_pitches":[12,7,2,7,1,8,9,5,10,8,9,7,12,3,8,10],"shifted_pitches":[12,7,2,7,1,8,9,6,10,8,9,7,12,3,8,10],"swapped_pitches":[12,7,2,7,1,8,9,10,5,8,9,7,12,3,8,10],"shift_direction":1,"question_num":21,"has_decoy":false,"subject":"S1C1601","sona":"41425","block":1,"time":"2021-09-05T15:20:16.959Z"},{"rt":9775.299999952316,"stimulus":"[A] option 1, [L] option 2, [G] neither","key_press":76,"name":"choice","trial_type":"html-keyboard-response","trial_index":48,"time_elapsed":221556,"internal_node_id":"0.0-48.0","response":"2nd","certainty":"high","char":"L","transposition":0,"order":["swapped","shifted"],"probe_pitches":[5,7,5,3,5,-2,5,0,-2,5,-2,0,5,3,10,7],"shifted_pitches":[5,7,5,3,5,-2,5,0,-1,5,-2,0,5,3,10,7],"swapped_pitches":[5,7,5,3,5,-2,5,-2,0,5,-2,0,5,3,10,7],"shift_direction":1,"question_num":31,"has_decoy":false,"subject":"S1C1601","sona":"41425","block":1,"time":"2021-09-05T15:20:16.959Z"},{"rt":1179.5,"stimulus":"[A] option 1, [L] option 2, [G] neither","key_press":65,"name":"choice","trial_type":"html-keyboard-response","trial_index":59,"time_elapsed":255564,"internal_node_id":"0.0-59.0","response":"1st","certainty":"high","char":"A","transposition":2,"order":["shifted","swapped"],"probe_pitches":[10,7,3,7,-2,5,10,0,3,7,5,0,-2,10,7,10],"shifted_pitches":[10,7,3,7,-2,5,10,1,3,7,5,0,-2,10,7,10],"swapped_pitches":[10,7,3,7,-2,5,10,3,0,7,5,0,-2,10,7,10],"shift_direction":1,"question_num":41,"has_decoy":false,"subject":"S1C1601","sona":"41425","block":1,"time":"2021-09-05T15:20:16.959Z"},{"rt":1833.7999999523163,"stimulus":"[A] option 1, [L] option 2, [G] neither","key_press":76,"name":"choice","trial_type":"html-keyboard-response","trial_index":70,"time_elapsed":281246,"internal_node_id":"0.0-70.0","response":"2nd","certainty":"high","char":"L","transposition":2,"order":["swapped","shifted"],"probe_pitches":[2,1,3,10,5,4,5,3,10,6,4,9,5,2,5,1],"shifted_pitches":[2,1,3,10,5,4,5,3,11,6,4,9,5,2,5,1],"swapped_pitches":[2,1,3,10,5,4,5,10,3,6,4,9,5,2,5,1],"shift_direction":1,"question_num":51,"has_decoy":false,"subject":"S1C1601","sona":"41425","block":1,"time":"2021-09-05T15:20:16.959Z"},{"rt":4544.5,"stimulus":"[A] option 1, [L] option 2, [G] neither","key_press":71,"name":"choice","trial_type":"html-keyboard-response","trial_index":81,"time_elapsed":309214,"internal_node_id":"0.0-81.0","response":"neither","certainty":"high","char":"G","transposition":-2,"order":["swapped","shifted"],"probe_pitches":[1,2,3,11,13,6,11,3,8,6,10,8,13,4,5,3],"shifted_pitches":[1,2,3,11,13,6,11,3,9,6,10,8,13,4,5,3],"swapped_pitches":[1,2,3,11,13,6,11,8,3,6,10,8,13,4,5,3],"shift_direction":1,"question_num":61,"has_decoy":false,"subject":"S1C1601","sona":"41425","block":1,"time":"2021-09-05T15:20:16.959Z"},{"rt":2532.5,"stimulus":"[A] option 1, [L] option 2, [G] neither","key_press":71,"name":"choice","trial_type":"html-keyboard-response","trial_index":92,"time_elapsed":334805,"internal_node_id":"0.0-92.0","response":"neither","certainty":"high","char":"G","transposition":-2,"order":["shifted","swapped"],"probe_pitches":[5,7,2,10,7,0,2,7,10,5,2,-2,2,-2,7,10],"shifted_pitches":[5,7,2,10,7,0,2,6,10,5,2,-2,2,-2,7,10],"swapped_pitches":[5,7,2,10,7,0,2,10,7,5,2,-2,2,-2,7,10],"shift_direction":-1,"question_num":71,"has_decoy":false,"subject":"S1C1601","sona":"41425","block":1,"time":"2021-09-05T15:20:16.959Z"},{"rt":1106,"stimulus":"[A] option 1, [L] option 2, [G] neither","key_press":76,"name":"choice","trial_type":"html-keyboard-response","trial_index":103,"time_elapsed":359274,"internal_node_id":"0.0-103.0","response":"2nd","certainty":"high","char":"L","transposition":-3,"order":["swapped","shifted"],"probe_pitches":[5,10,3,10,5,0,5,0,8,5,8,5,8,5,3,5],"shifted_pitches":[5,10,3,10,5,0,5,0,9,5,8,5,8,5,3,5],"swapped_pitches":[5,10,3,10,5,0,5,8,0,5,8,5,8,5,3,5],"shift_direction":1,"question_num":81,"has_decoy":false,"subject":"S1C1601","sona":"41425","block":1,"time":"2021-09-05T15:20:16.959Z"},{"rt":2301.7999999523163,"stimulus":"[A] option 1, [L] option 2, [G] neither","key_press":76,"name":"choice","trial_type":"html-keyboard-response","trial_index":114,"time_elapsed":385224,"internal_node_id":"0.0-114.0","response":"2nd","certainty":"high","char":"L","transposition":-3,"order":["swapped","shifted"],"probe_pitches":[2,-2,5,0,-2,0,2,0,-2,5,-2,7,-2,5,-2,7],"shifted_pitches":[2,-2,5,0,-2,0,2,0,-1,5,-2,7,-2,5,-2,7],"swapped_pitches":[2,-2,5,0,-2,0,2,-2,0,5,-2,7,-2,5,-2,7],"shift_direction":1,"question_num":91,"has_decoy":false,"subject":"S1C1601","sona":"41425","block":1,"time":"2021-09-05T15:20:16.959Z"},{"rt":1370.8000001907349,"stimulus":"[A] option 1, [L] option 2, [G] neither","key_press":71,"name":"choice","trial_type":"html-keyboard-response","trial_index":125,"time_elapsed":409812,"internal_node_id":"0.0-125.0","response":"neither","certainty":"high","char":"G","transposition":3,"order":["shifted","swapped"],"probe_pitches":[6,3,10,3,8,10,3,10,1,8,-2,10,-2,10,1,3],"shifted_pitches":[6,3,10,3,8,10,3,9,1,8,-2,10,-2,10,1,3],"swapped_pitches":[6,3,10,3,8,10,3,1,10,8,-2,10,-2,10,1,3],"shift_direction":-1,"question_num":101,"has_decoy":false,"subject":"S1C1601","sona":"41425","block":1,"time":"2021-09-05T15:20:16.959Z"},{"rt":1362.1999998092651,"stimulus":"[A] option 1, [L] option 2, [G] neither","key_press":65,"name":"choice","trial_type":"html-keyboard-response","trial_index":136,"time_elapsed":434180,"internal_node_id":"0.0-136.0","response":"1st","certainty":"high","char":"A","transposition":-2,"order":["shifted","swapped"],"probe_pitches":[1,-2,3,5,-2,8,-2,5,8,1,8,1,-2,3,10,3],"shifted_pitches":[1,-2,3,5,-2,8,-2,5,7,1,8,1,-2,3,10,3],"swapped_pitches":[1,-2,3,5,-2,8,-2,8,5,1,8,1,-2,3,10,3],"shift_direction":-1,"question_num":111,"has_decoy":false,"subject":"S1C1601","sona":"41425","block":1,"time":"2021-09-05T15:20:16.959Z"},{"rt":6366.600000143051,"stimulus":"[A] option 1, [L] option 2, [G] neither","key_press":76,"name":"choice","trial_type":"html-keyboard-response","trial_index":147,"time_elapsed":463679,"internal_node_id":"0.0-147.0","response":"2nd","certainty":"high","char":"L","transposition":-1,"order":["shifted","swapped"],"probe_pitches":[6,8,3,11,10,2,3,6,1,7,11,6,7,1,7,12],"shifted_pitches":[6,8,3,11,10,2,3,5,1,7,11,6,7,1,7,12],"swapped_pitches":[6,8,3,11,10,2,3,1,6,7,11,6,7,1,7,12],"shift_direction":-1,"question_num":121,"has_decoy":false,"subject":"S1C1601","sona":"41425","block":1,"time":"2021-09-05T15:20:16.959Z"},{"rt":1450.5999999046326,"stimulus":"[A] option 1, [L] option 2, [G] neither","key_press":65,"name":"choice","trial_type":"html-keyboard-response","trial_index":158,"time_elapsed":488237,"internal_node_id":"0.0-158.0","response":"1st","certainty":"high","char":"A","transposition":0,"order":["shifted","swapped"],"probe_pitches":[4,7,1,7,11,9,12,4,11,6,9,1,10,2,10,9],"shifted_pitches":[4,7,1,7,11,9,12,3,11,6,9,1,10,2,10,9],"swapped_pitches":[4,7,1,7,11,9,12,11,4,6,9,1,10,2,10,9],"shift_direction":-1,"question_num":131,"has_decoy":false,"subject":"S1C1601","sona":"41425","block":1,"time":"2021-09-05T15:20:16.959Z"},{"rt":2095.899999856949,"stimulus":"[A] option 1, [L] option 2, [G] neither","key_press":76,"name":"choice","trial_type":"html-keyboard-response","trial_index":169,"time_elapsed":513451,"internal_node_id":"0.0-169.0","response":"2nd","certainty":"high","char":"L","transposition":-1,"order":["swapped","shifted"],"probe_pitches":[8,6,8,3,-2,6,-2,6,1,-2,8,3,6,8,10,1],"shifted_pitches":[8,6,8,3,-2,6,-2,7,1,-2,8,3,6,8,10,1],"swapped_pitches":[8,6,8,3,-2,6,-2,1,6,-2,8,3,6,8,10,1],"shift_direction":1,"question_num":141,"has_decoy":false,"subject":"S1C1601","sona":"41425","block":1,"time":"2021-09-05T15:20:16.959Z"},{"rt":2305.2000000476837,"stimulus":"[A] option 1, [L] option 2, [G] neither","key_press":65,"name":"choice","trial_type":"html-keyboard-response","trial_index":180,"time_elapsed":538733,"internal_node_id":"0.0-180.0","response":"1st","certainty":"high","char":"A","transposition":3,"order":["shifted","swapped"],"probe_pitches":[11,5,1,4,12,13,5,8,10,11,3,8,9,2,3,5],"shifted_pitches":[11,5,1,4,12,13,5,7,10,11,3,8,9,2,3,5],"swapped_pitches":[11,5,1,4,12,13,5,10,8,11,3,8,9,2,3,5],"shift_direction":-1,"question_num":151,"has_decoy":false,"subject":"S1C1601","sona":"41425","block":1,"time":"2021-09-05T15:20:16.959Z"},{"rt":1815.2000000476837,"stimulus":"[A] option 1, [L] option 2, [G] neither","key_press":71,"name":"choice","trial_type":"html-keyboard-response","trial_index":191,"time_elapsed":563414,"internal_node_id":"0.0-191.0","response":"neither","certainty":"high","char":"G","transposition":-1,"order":["swapped","shifted"],"probe_pitches":[4,1,3,7,10,9,4,11,9,13,9,2,6,3,13,10],"shifted_pitches":[4,1,3,7,10,9,4,12,9,13,9,2,6,3,13,10],"swapped_pitches":[4,1,3,7,10,9,4,9,11,13,9,2,6,3,13,10],"shift_direction":1,"question_num":161,"has_decoy":false,"subject":"S1C1601","sona":"41425","block":1,"time":"2021-09-05T15:20:16.959Z"},{"rt":2327.5999999046326,"stimulus":"[A] option 1, [L] option 2, [G] neither","key_press":71,"name":"choice","trial_type":"html-keyboard-response","trial_index":202,"time_elapsed":590482,"internal_node_id":"0.0-202.0","response":"neither","certainty":"high","char":"G","transposition":-3,"order":["swapped","shifted"],"probe_pitches":[5,6,2,3,7,6,7,13,3,2,6,3,8,7,6,3],"shifted_pitches":[5,6,2,3,7,6,7,13,4,2,6,3,8,7,6,3],"swapped_pitches":[5,6,2,3,7,6,7,3,13,2,6,3,8,7,6,3],"shift_direction":1,"question_num":171,"has_decoy":false,"subject":"S1C1601","sona":"41425","block":1,"time":"2021-09-05T15:20:16.959Z"},{"rt":2672.899999856949,"stimulus":"[A] option 1, [L] option 2, [G] neither","key_press":71,"name":"choice","trial_type":"html-keyboard-response","trial_index":213,"time_elapsed":616062,"internal_node_id":"0.0-213.0","response":"neither","certainty":"high","char":"G","transposition":-3,"order":["shifted","swapped"],"probe_pitches":[4,7,13,11,13,11,3,2,9,1,11,9,13,2,4,7],"shifted_pitches":[4,7,13,11,13,11,3,2,8,1,11,9,13,2,4,7],"swapped_pitches":[4,7,13,11,13,11,3,9,2,1,11,9,13,2,4,7],"shift_direction":-1,"question_num":181,"has_decoy":false,"subject":"S1C1601","sona":"41425","block":1,"time":"2021-09-05T15:20:16.959Z"},{"rt":1130.6000001430511,"stimulus":"[A] option 1, [L] option 2, [G] neither","key_press":65,"name":"choice","trial_type":"html-keyboard-response","trial_index":224,"time_elapsed":640432,"internal_node_id":"0.0-224.0","response":"1st","certainty":"high","char":"A","transposition":1,"order":["shifted","swapped"],"probe_pitches":[7,5,2,8,13,4,8,6,11,3,11,7,5,7,5,3],"shifted_pitches":[7,5,2,8,13,4,8,6,10,3,11,7,5,7,5,3],"swapped_pitches":[7,5,2,8,13,4,8,11,6,3,11,7,5,7,5,3],"shift_direction":-1,"question_num":191,"has_decoy":false,"subject":"S1C1601","sona":"41425","block":1,"time":"2021-09-05T15:20:16.959Z"}]