[{"rt":616.4000000953674,"stimulus":"[A] option 1, [L] option 2, [G] neither","key_press":76,"name":"choice","trial_type":"html-keyboard-response","trial_index":10,"time_elapsed":25243,"internal_node_id":"0.0-10.0","subject":"S1C1601","sona":"41425","block":6,"time":"2021-09-05T16:19:25.551Z","response":"2nd","certainty":"high","char":"L","transposition":-2,"order":["swapped","shifted"],"probe_pitches":[2,7,14,11,7,11,14,9,2,4,9,4,11,2,14,4],"shifted_pitches":[2,7,14,11,7,11,14,8,2,4,9,4,11,2,14,4],"swapped_pitches":[2,7,14,11,7,11,14,2,9,4,9,4,11,2,14,4],"shift_direction":-1,"question_num":1,"has_decoy":false},{"rt":2431.4000000953674,"stimulus":"[A] option 1, [L] option 2, [G] neither","key_press":71,"name":"choice","trial_type":"html-keyboard-response","trial_index":21,"time_elapsed":50318,"internal_node_id":"0.0-21.0","subject":"S1C1601","sona":"41425","block":6,"time":"2021-09-05T16:19:25.551Z","response":"neither","certainty":"high","char":"G","transposition":-2,"order":["shifted","swapped"],"probe_pitches":[0,3,5,7,0,-2,6,5,3,0,3,1,8,1,0,6],"shifted_pitches":[0,3,5,7,0,-2,6,4,3,0,3,1,8,1,0,6],"swapped_pitches":[0,3,5,7,0,-2,6,3,5,0,3,1,8,1,0,6],"shift_direction":-1,"question_num":11,"has_decoy":false},{"rt":1032.6000001430511,"stimulus":"[A] option 1, [L] option 2, [G] neither","key_press":76,"name":"choice","trial_type":"html-keyboard-response","trial_index":32,"time_elapsed":77432,"internal_node_id":"0.0-32.0","subject":"S1C1601","sona":"41425","block":6,"time":"2021-09-05T16:19:25.551Z","response":"2nd","certainty":"high","char":"L","transposition":-3,"order":["swapped","shifted"],"probe_pitches":[1,4,7,2,1,-2,1,-1,2,3,-1,-3,5,9,5,4],"shifted_pitches":[1,4,7,2,1,-2,1,0,2,3,-1,-3,5,9,5,4],"swapped_pitches":[1,4,7,2,1,-2,1,2,-1,3,-1,-3,5,9,5,4],"shift_direction":1,"question_num":21,"has_decoy":false},{"rt":460.30000019073486,"stimulus":"[A] option 1, [L] option 2, [G] neither","key_press":76,"name":"choice","trial_type":"html-keyboard-response","trial_index":43,"time_elapsed":100188,"internal_node_id":"0.0-43.0","subject":"S1C1601","sona":"41425","block":6,"time":"2021-09-05T16:19:25.551Z","response":"2nd","certainty":"high","char":"L","transposition":-1,"order":["swapped","shifted"],"probe_pitches":[4,7,14,7,11,7,9,4,2,7,9,4,2,14,4,14],"shifted_pitches":[4,7,14,7,11,7,9,5,2,7,9,4,2,14,4,14],"swapped_pitches":[4,7,14,7,11,7,9,2,4,7,9,4,2,14,4,14],"shift_direction":1,"question_num":31,"has_decoy":false},{"rt":2984,"stimulus":"[A] option 1, [L] option 2, [G] neither","key_press":71,"name":"choice","trial_type":"html-keyboard-response","trial_index":54,"time_elapsed":125514,"internal_node_id":"0.0-54.0","subject":"S1C1601","sona":"41425","block":6,"time":"2021-09-05T16:19:25.551Z","response":"neither","certainty":"high","char":"G","transposition":-3,"order":["shifted","swapped"],"probe_pitches":[4,2,7,4,2,12,14,9,4,12,14,4,9,4,12,7],"shifted_pitches":[4,2,7,4,2,12,14,8,4,12,14,4,9,4,12,7],"swapped_pitches":[4,2,7,4,2,12,14,4,9,12,14,4,9,4,12,7],"shift_direction":-1,"question_num":41,"has_decoy":false},{"rt":868.7999999523163,"stimulus":"[A] option 1, [L] option 2, [G] neither","key_press":76,"name":"choice","trial_type":"html-keyboard-response","trial_index":65,"time_elapsed":150145,"internal_node_id":"0.0-65.0","subject":"S1C1601","sona":"41425","block":6,"time":"2021-09-05T16:19:25.551Z","response":"2nd","certainty":"high","char":"L","transposition":3,"order":["swapped","shifted"],"probe_pitches":[-1,4,-1,0,-3,4,0,2,4,-2,6,9,-3,7,-2,1],"shifted_pitches":[-1,4,-1,0,-3,4,0,3,4,-2,6,9,-3,7,-2,1],"swapped_pitches":[-1,4,-1,0,-3,4,0,4,2,-2,6,9,-3,7,-2,1],"shift_direction":1,"question_num":51,"has_decoy":false},{"rt":502.7000000476837,"stimulus":"[A] option 1, [L] option 2, [G] neither","key_press":65,"name":"choice","trial_type":"html-keyboard-response","trial_index":76,"time_elapsed":174348,"internal_node_id":"0.0-76.0","subject":"S1C1601","sona":"41425","block":6,"time":"2021-09-05T16:19:25.551Z","response":"1st","certainty":"high","char":"A","transposition":0,"order":["shifted","swapped"],"probe_pitches":[1,3,-3,4,1,0,-2,0,4,7,4,6,0,2,0,2],"shifted_pitches":[1,3,-3,4,1,0,-2,0,5,7,4,6,0,2,0,2],"swapped_pitches":[1,3,-3,4,1,0,-2,4,0,7,4,6,0,2,0,2],"shift_direction":1,"question_num":61,"has_decoy":false},{"rt":970.2000000476837,"stimulus":"[A] option 1, [L] option 2, [G] neither","key_press":65,"name":"choice","trial_type":"html-keyboard-response","trial_index":87,"time_elapsed":197606,"internal_node_id":"0.0-87.0","subject":"S1C1601","sona":"41425","block":6,"time":"2021-09-05T16:19:25.551Z","response":"1st","certainty":"high","char":"A","transposition":-3,"order":["swapped","shifted"],"probe_pitches":[-1,1,8,4,6,7,-1,7,1,0,9,3,9,1,4,8],"shifted_pitches":[-1,1,8,4,6,7,-1,7,2,0,9,3,9,1,4,8],"swapped_pitches":[-1,1,8,4,6,7,-1,1,7,0,9,3,9,1,4,8],"shift_direction":1,"question_num":71,"has_decoy":false},{"rt":1510.7000000476837,"stimulus":"[A] option 1, [L] option 2, [G] neither","key_press":76,"name":"choice","trial_type":"html-keyboard-response","trial_index":98,"time_elapsed":221643,"internal_node_id":"0.0-98.0","subject":"S1C1601","sona":"41425","block":6,"time":"2021-09-05T16:19:25.551Z","response":"2nd","certainty":"high","char":"L","transposition":2,"order":["swapped","shifted"],"probe_pitches":[14,11,9,14,6,4,11,4,9,14,6,4,9,2,11,9],"shifted_pitches":[14,11,9,14,6,4,11,4,8,14,6,4,9,2,11,9],"swapped_pitches":[14,11,9,14,6,4,11,9,4,14,6,4,9,2,11,9],"shift_direction":-1,"question_num":81,"has_decoy":false},{"rt":3696.7000000476837,"stimulus":"[A] option 1, [L] option 2, [G] neither","key_press":71,"name":"choice","trial_type":"html-keyboard-response","trial_index":109,"time_elapsed":248114,"internal_node_id":"0.0-109.0","subject":"S1C1601","sona":"41425","block":6,"time":"2021-09-05T16:19:25.551Z","response":"neither","certainty":"high","char":"G","transposition":1,"order":["shifted","swapped"],"probe_pitches":[-1,-2,0,-2,2,5,-1,6,2,-3,-1,-3,9,0,7,9],"shifted_pitches":[-1,-2,0,-2,2,5,-1,6,1,-3,-1,-3,9,0,7,9],"swapped_pitches":[-1,-2,0,-2,2,5,-1,2,6,-3,-1,-3,9,0,7,9],"shift_direction":-1,"question_num":91,"has_decoy":false},{"rt":585.7000000476837,"stimulus":"[A] option 1, [L] option 2, [G] neither","key_press":65,"name":"choice","trial_type":"html-keyboard-response","trial_index":120,"time_elapsed":273192,"internal_node_id":"0.0-120.0","subject":"S1C1601","sona":"41425","block":6,"time":"2021-09-05T16:19:25.551Z","response":"1st","certainty":"high","char":"A","transposition":-1,"order":["swapped","shifted"],"probe_pitches":[2,-3,-1,1,7,8,-2,-1,7,3,7,0,9,7,-3,8],"shifted_pitches":[2,-3,-1,1,7,8,-2,-1,6,3,7,0,9,7,-3,8],"swapped_pitches":[2,-3,-1,1,7,8,-2,7,-1,3,7,0,9,7,-3,8],"shift_direction":-1,"question_num":101,"has_decoy":false},{"rt":1732.7999999523163,"stimulus":"[A] option 1, [L] option 2, [G] neither","key_press":76,"name":"choice","trial_type":"html-keyboard-response","trial_index":131,"time_elapsed":297379,"internal_node_id":"0.0-131.0","subject":"S1C1601","sona":"41425","block":6,"time":"2021-09-05T16:19:25.551Z","response":"2nd","certainty":"high","char":"L","transposition":3,"order":["shifted","swapped"],"probe_pitches":[12,14,7,14,12,10,5,7,2,14,10,5,14,12,2,12],"shifted_pitches":[12,14,7,14,12,10,5,7,3,14,10,5,14,12,2,12],"swapped_pitches":[12,14,7,14,12,10,5,2,7,14,10,5,14,12,2,12],"shift_direction":1,"question_num":111,"has_decoy":false},{"rt":1628.0999999046326,"stimulus":"[A] option 1, [L] option 2, [G] neither","key_press":65,"name":"choice","trial_type":"html-keyboard-response","trial_index":142,"time_elapsed":323227,"internal_node_id":"0.0-142.0","subject":"S1C1601","sona":"41425","block":6,"time":"2021-09-05T16:19:25.551Z","response":"1st","certainty":"high","char":"A","transposition":2,"order":["swapped","shifted"],"probe_pitches":[-2,2,6,2,6,9,0,-3,6,2,9,4,6,5,3,5],"shifted_pitches":[-2,2,6,2,6,9,0,-3,7,2,9,4,6,5,3,5],"swapped_pitches":[-2,2,6,2,6,9,0,6,-3,2,9,4,6,5,3,5],"shift_direction":1,"question_num":121,"has_decoy":false},{"rt":1713.7000000476837,"stimulus":"[A] option 1, [L] option 2, [G] neither","key_press":65,"name":"choice","trial_type":"html-keyboard-response","trial_index":153,"time_elapsed":348599,"internal_node_id":"0.0-153.0","subject":"S1C1601","sona":"41425","block":6,"time":"2021-09-05T16:19:25.551Z","response":"1st","certainty":"high","char":"A","transposition":-3,"order":["shifted","swapped"],"probe_pitches":[9,6,9,11,14,6,11,14,4,9,11,14,6,11,9,11],"shifted_pitches":[9,6,9,11,14,6,11,15,4,9,11,14,6,11,9,11],"swapped_pitches":[9,6,9,11,14,6,11,4,14,9,11,14,6,11,9,11],"shift_direction":1,"question_num":131,"has_decoy":false},{"rt":1155.4000000953674,"stimulus":"[A] option 1, [L] option 2, [G] neither","key_press":65,"name":"choice","trial_type":"html-keyboard-response","trial_index":164,"time_elapsed":372030,"internal_node_id":"0.0-164.0","subject":"S1C1601","sona":"41425","block":6,"time":"2021-09-05T16:19:25.551Z","response":"1st","certainty":"high","char":"A","transposition":-2,"order":["shifted","swapped"],"probe_pitches":[0,2,3,-2,2,7,4,0,7,6,8,4,0,1,5,4],"shifted_pitches":[0,2,3,-2,2,7,4,-1,7,6,8,4,0,1,5,4],"swapped_pitches":[0,2,3,-2,2,7,4,7,0,6,8,4,0,1,5,4],"shift_direction":-1,"question_num":141,"has_decoy":false},{"rt":505.2000000476837,"stimulus":"[A] option 1, [L] option 2, [G] neither","key_press":76,"name":"choice","trial_type":"html-keyboard-response","trial_index":175,"time_elapsed":394814,"internal_node_id":"0.0-175.0","subject":"S1C1601","sona":"41425","block":6,"time":"2021-09-05T16:19:25.551Z","response":"2nd","certainty":"high","char":"L","transposition":1,"order":["swapped","shifted"],"probe_pitches":[2,7,9,14,12,7,5,2,9,7,14,12,2,5,12,7],"shifted_pitches":[2,7,9,14,12,7,5,1,9,7,14,12,2,5,12,7],"swapped_pitches":[2,7,9,14,12,7,5,9,2,7,14,12,2,5,12,7],"shift_direction":-1,"question_num":151,"has_decoy":false},{"rt":4136.5,"stimulus":"[A] option 1, [L] option 2, [G] neither","key_press":76,"name":"choice","trial_type":"html-keyboard-response","trial_index":186,"time_elapsed":421253,"internal_node_id":"0.0-186.0","subject":"S1C1601","sona":"41425","block":6,"time":"2021-09-05T16:19:25.551Z","response":"2nd","certainty":"high","char":"L","transposition":-1,"order":["shifted","swapped"],"probe_pitches":[9,12,9,4,7,9,7,9,2,12,4,9,4,12,14,7],"shifted_pitches":[9,12,9,4,7,9,7,9,1,12,4,9,4,12,14,7],"swapped_pitches":[9,12,9,4,7,9,7,2,9,12,4,9,4,12,14,7],"shift_direction":-1,"question_num":161,"has_decoy":false},{"rt":1353.9000000953674,"stimulus":"[A] option 1, [L] option 2, [G] neither","key_press":65,"name":"choice","trial_type":"html-keyboard-response","trial_index":197,"time_elapsed":445477,"internal_node_id":"0.0-197.0","subject":"S1C1601","sona":"41425","block":6,"time":"2021-09-05T16:19:25.551Z","response":"1st","certainty":"high","char":"A","transposition":-1,"order":["shifted","swapped"],"probe_pitches":[-1,-3,3,-2,-3,1,4,-3,-2,4,-2,0,4,0,-2,3],"shifted_pitches":[-1,-3,3,-2,-3,1,4,-4,-2,4,-2,0,4,0,-2,3],"swapped_pitches":[-1,-3,3,-2,-3,1,4,-2,-3,4,-2,0,4,0,-2,3],"shift_direction":-1,"question_num":171,"has_decoy":false},{"rt":831.0999999046326,"stimulus":"[A] option 1, [L] option 2, [G] neither","key_press":65,"name":"choice","trial_type":"html-keyboard-response","trial_index":208,"time_elapsed":468677,"internal_node_id":"0.0-208.0","subject":"S1C1601","sona":"41425","block":6,"time":"2021-09-05T16:19:25.551Z","response":"1st","certainty":"high","char":"A","transposition":-2,"order":["shifted","swapped"],"probe_pitches":[5,2,7,12,5,7,5,12,14,7,2,5,2,5,7,9],"shifted_pitches":[5,2,7,12,5,7,5,12,15,7,2,5,2,5,7,9],"swapped_pitches":[5,2,7,12,5,7,5,14,12,7,2,5,2,5,7,9],"shift_direction":1,"question_num":181,"has_decoy":false},{"rt":1202,"stimulus":"[A] option 1, [L] option 2, [G] neither","key_press":76,"name":"choice","trial_type":"html-keyboard-response","trial_index":219,"time_elapsed":492221,"internal_node_id":"0.0-219.0","subject":"S1C1601","sona":"41425","block":6,"time":"2021-09-05T16:19:25.551Z","response":"2nd","certainty":"high","char":"L","transposition":0,"order":["swapped","shifted"],"probe_pitches":[5,10,5,2,5,7,12,5,10,14,2,5,12,10,14,12],"shifted_pitches":[5,10,5,2,5,7,12,5,11,14,2,5,12,10,14,12],"swapped_pitches":[5,10,5,2,5,7,12,10,5,14,2,5,12,10,14,12],"shift_direction":1,"question_num":191,"has_decoy":false}]