[{"rt":1547.5,"stimulus":"[A] option 1, [L] option 2, [G] neither","key_press":71,"name":"choice","trial_type":"html-keyboard-response","trial_index":10,"time_elapsed":28588,"internal_node_id":"0.0-10.0","subject":"S1C1601","sona":"41425","block":3,"time":"2021-09-05T15:46:49.426Z","response":"neither","certainty":"high","char":"G","transposition":0,"order":["shifted","swapped"],"probe_pitches":[15,10,4,6,3,7,5,3,13,5,11,4,13,15,5,11],"shifted_pitches":[15,10,4,6,3,7,5,2,13,5,11,4,13,15,5,11],"swapped_pitches":[15,10,4,6,3,7,5,13,3,5,11,4,13,15,5,11],"shift_direction":-1,"question_num":1,"has_decoy":false},{"rt":759.5999999046326,"stimulus":"[A] option 1, [L] option 2, [G] neither","key_press":65,"name":"choice","trial_type":"html-keyboard-response","trial_index":21,"time_elapsed":53000,"internal_node_id":"0.0-21.0","subject":"S1C1601","sona":"41425","block":3,"time":"2021-09-05T15:46:49.426Z","response":"1st","certainty":"high","char":"A","transposition":-2,"order":["shifted","swapped"],"probe_pitches":[3,8,5,10,5,-2,5,10,-2,5,10,1,3,8,3,10],"shifted_pitches":[3,8,5,10,5,-2,5,10,-3,5,10,1,3,8,3,10],"swapped_pitches":[3,8,5,10,5,-2,5,-2,10,5,10,1,3,8,3,10],"shift_direction":-1,"question_num":11,"has_decoy":false},{"rt":3741.2000000476837,"stimulus":"[A] option 1, [L] option 2, [G] neither","key_press":76,"name":"choice","trial_type":"html-keyboard-response","trial_index":32,"time_elapsed":79097,"internal_node_id":"0.0-32.0","subject":"S1C1601","sona":"41425","block":3,"time":"2021-09-05T15:46:49.426Z","response":"2nd","certainty":"high","char":"L","transposition":1,"order":["swapped","shifted"],"probe_pitches":[3,6,1,8,6,8,1,3,8,-2,8,-2,6,-2,8,6],"shifted_pitches":[3,6,1,8,6,8,1,4,8,-2,8,-2,6,-2,8,6],"swapped_pitches":[3,6,1,8,6,8,1,8,3,-2,8,-2,6,-2,8,6],"shift_direction":1,"question_num":21,"has_decoy":false},{"rt":880.8999998569489,"stimulus":"[A] option 1, [L] option 2, [G] neither","key_press":65,"name":"choice","trial_type":"html-keyboard-response","trial_index":43,"time_elapsed":103017,"internal_node_id":"0.0-43.0","subject":"S1C1601","sona":"41425","block":3,"time":"2021-09-05T15:46:49.426Z","response":"1st","certainty":"high","char":"A","transposition":3,"order":["shifted","swapped"],"probe_pitches":[5,2,5,7,2,0,7,-2,5,2,5,0,5,-2,10,7],"shifted_pitches":[5,2,5,7,2,0,7,-2,6,2,5,0,5,-2,10,7],"swapped_pitches":[5,2,5,7,2,0,7,5,-2,2,5,0,5,-2,10,7],"shift_direction":1,"question_num":31,"has_decoy":false},{"rt":788.9000000953674,"stimulus":"[A] option 1, [L] option 2, [G] neither","key_press":76,"name":"choice","trial_type":"html-keyboard-response","trial_index":54,"time_elapsed":126122,"internal_node_id":"0.0-54.0","subject":"S1C1601","sona":"41425","block":3,"time":"2021-09-05T15:46:49.426Z","response":"2nd","certainty":"high","char":"L","transposition":-3,"order":["swapped","shifted"],"probe_pitches":[-2,3,7,10,7,-2,5,0,-2,7,10,5,7,5,-2,0],"shifted_pitches":[-2,3,7,10,7,-2,5,0,-3,7,10,5,7,5,-2,0],"swapped_pitches":[-2,3,7,10,7,-2,5,-2,0,7,10,5,7,5,-2,0],"shift_direction":-1,"question_num":41,"has_decoy":false},{"rt":1515.6000001430511,"stimulus":"[A] option 1, [L] option 2, [G] neither","key_press":76,"name":"choice","trial_type":"html-keyboard-response","trial_index":65,"time_elapsed":150137,"internal_node_id":"0.0-65.0","subject":"S1C1601","sona":"41425","block":3,"time":"2021-09-05T15:46:49.426Z","response":"2nd","certainty":"high","char":"L","transposition":-1,"order":["swapped","shifted"],"probe_pitches":[-2,1,8,10,3,10,8,1,5,3,5,10,3,-2,1,8],"shifted_pitches":[-2,1,8,10,3,10,8,1,6,3,5,10,3,-2,1,8],"swapped_pitches":[-2,1,8,10,3,10,8,5,1,3,5,10,3,-2,1,8],"shift_direction":1,"question_num":51,"has_decoy":false},{"rt":4527.099999904633,"stimulus":"[A] option 1, [L] option 2, [G] neither","key_press":71,"name":"choice","trial_type":"html-keyboard-response","trial_index":76,"time_elapsed":177410,"internal_node_id":"0.0-76.0","subject":"S1C1601","sona":"41425","block":3,"time":"2021-09-05T15:46:49.426Z","response":"neither","certainty":"high","char":"G","transposition":2,"order":["swapped","shifted"],"probe_pitches":[12,6,5,9,5,9,5,6,9,5,3,13,10,6,9,4],"shifted_pitches":[12,6,5,9,5,9,5,7,9,5,3,13,10,6,9,4],"swapped_pitches":[12,6,5,9,5,9,5,9,6,5,3,13,10,6,9,4],"shift_direction":1,"question_num":61,"has_decoy":false},{"rt":2816.9000000953674,"stimulus":"[A] option 1, [L] option 2, [G] neither","key_press":76,"name":"choice","trial_type":"html-keyboard-response","trial_index":87,"time_elapsed":205146,"internal_node_id":"0.0-87.0","subject":"S1C1601","sona":"41425","block":3,"time":"2021-09-05T15:46:49.426Z","response":"2nd","certainty":"high","char":"L","transposition":-1,"order":["shifted","swapped"],"probe_pitches":[5,6,4,6,10,6,12,7,10,14,15,12,3,7,6,13],"shifted_pitches":[5,6,4,6,10,6,12,8,10,14,15,12,3,7,6,13],"swapped_pitches":[5,6,4,6,10,6,12,10,7,14,15,12,3,7,6,13],"shift_direction":1,"question_num":71,"has_decoy":false},{"rt":5373.900000095367,"stimulus":"[A] option 1, [L] option 2, [G] neither","key_press":71,"name":"choice","trial_type":"html-keyboard-response","trial_index":98,"time_elapsed":233713,"internal_node_id":"0.0-98.0","subject":"S1C1601","sona":"41425","block":3,"time":"2021-09-05T15:46:49.426Z","response":"neither","certainty":"high","char":"G","transposition":-1,"order":["swapped","shifted"],"probe_pitches":[5,7,10,5,10,2,-2,5,10,2,10,2,-2,0,5,7],"shifted_pitches":[5,7,10,5,10,2,-2,4,10,2,10,2,-2,0,5,7],"swapped_pitches":[5,7,10,5,10,2,-2,10,5,2,10,2,-2,0,5,7],"shift_direction":-1,"question_num":81,"has_decoy":false},{"rt":2410.2999999523163,"stimulus":"[A] option 1, [L] option 2, [G] neither","key_press":65,"name":"choice","trial_type":"html-keyboard-response","trial_index":109,"time_elapsed":260908,"internal_node_id":"0.0-109.0","subject":"S1C1601","sona":"41425","block":3,"time":"2021-09-05T15:46:49.426Z","response":"1st","certainty":"high","char":"A","transposition":-3,"order":["swapped","shifted"],"probe_pitches":[9,8,15,8,3,8,14,11,12,4,3,14,10,8,5,3],"shifted_pitches":[9,8,15,8,3,8,14,11,13,4,3,14,10,8,5,3],"swapped_pitches":[9,8,15,8,3,8,14,12,11,4,3,14,10,8,5,3],"shift_direction":1,"question_num":91,"has_decoy":false},{"rt":7049.100000143051,"stimulus":"[A] option 1, [L] option 2, [G] neither","key_press":76,"name":"choice","trial_type":"html-keyboard-response","trial_index":120,"time_elapsed":290527,"internal_node_id":"0.0-120.0","subject":"S1C1601","sona":"41425","block":3,"time":"2021-09-05T15:46:49.426Z","response":"2nd","certainty":"high","char":"L","transposition":1,"order":["swapped","shifted"],"probe_pitches":[8,12,8,10,12,4,14,13,8,7,4,12,14,10,8,7],"shifted_pitches":[8,12,8,10,12,4,14,13,9,7,4,12,14,10,8,7],"swapped_pitches":[8,12,8,10,12,4,14,8,13,7,4,12,14,10,8,7],"shift_direction":1,"question_num":101,"has_decoy":false},{"rt":2490.0999999046326,"stimulus":"[A] option 1, [L] option 2, [G] neither","key_press":76,"name":"choice","trial_type":"html-keyboard-response","trial_index":131,"time_elapsed":315477,"internal_node_id":"0.0-131.0","subject":"S1C1601","sona":"41425","block":3,"time":"2021-09-05T15:46:49.426Z","response":"2nd","certainty":"high","char":"L","transposition":-1,"order":["swapped","shifted"],"probe_pitches":[8,9,12,14,10,12,4,13,12,6,15,4,10,5,15,13],"shifted_pitches":[8,9,12,14,10,12,4,13,11,6,15,4,10,5,15,13],"swapped_pitches":[8,9,12,14,10,12,4,12,13,6,15,4,10,5,15,13],"shift_direction":-1,"question_num":111,"has_decoy":false},{"rt":5125,"stimulus":"[A] option 1, [L] option 2, [G] neither","key_press":76,"name":"choice","trial_type":"html-keyboard-response","trial_index":142,"time_elapsed":342785,"internal_node_id":"0.0-142.0","subject":"S1C1601","sona":"41425","block":3,"time":"2021-09-05T15:46:49.426Z","response":"2nd","certainty":"high","char":"L","transposition":-2,"order":["shifted","swapped"],"probe_pitches":[6,7,4,5,8,15,14,11,6,7,11,7,5,14,15,12],"shifted_pitches":[6,7,4,5,8,15,14,10,6,7,11,7,5,14,15,12],"swapped_pitches":[6,7,4,5,8,15,14,6,11,7,11,7,5,14,15,12],"shift_direction":-1,"question_num":121,"has_decoy":false},{"rt":4339.599999904633,"stimulus":"[A] option 1, [L] option 2, [G] neither","key_press":65,"name":"choice","trial_type":"html-keyboard-response","trial_index":153,"time_elapsed":369707,"internal_node_id":"0.0-153.0","subject":"S1C1601","sona":"41425","block":3,"time":"2021-09-05T15:46:49.426Z","response":"1st","certainty":"high","char":"A","transposition":-3,"order":["shifted","swapped"],"probe_pitches":[0,3,0,8,5,10,5,8,10,-2,5,0,3,5,10,8],"shifted_pitches":[0,3,0,8,5,10,5,9,10,-2,5,0,3,5,10,8],"swapped_pitches":[0,3,0,8,5,10,5,10,8,-2,5,0,3,5,10,8],"shift_direction":1,"question_num":131,"has_decoy":false},{"rt":548.5,"stimulus":"[A] option 1, [L] option 2, [G] neither","key_press":76,"name":"choice","trial_type":"html-keyboard-response","trial_index":164,"time_elapsed":392547,"internal_node_id":"0.0-164.0","subject":"S1C1601","sona":"41425","block":3,"time":"2021-09-05T15:46:49.426Z","response":"2nd","certainty":"high","char":"L","transposition":-3,"order":["shifted","swapped"],"probe_pitches":[4,9,12,14,11,9,8,6,11,3,9,12,14,4,12,11],"shifted_pitches":[4,9,12,14,11,9,8,5,11,3,9,12,14,4,12,11],"swapped_pitches":[4,9,12,14,11,9,8,11,6,3,9,12,14,4,12,11],"shift_direction":-1,"question_num":141,"has_decoy":false},{"rt":592.3999998569489,"stimulus":"[A] option 1, [L] option 2, [G] neither","key_press":76,"name":"choice","trial_type":"html-keyboard-response","trial_index":175,"time_elapsed":415543,"internal_node_id":"0.0-175.0","subject":"S1C1601","sona":"41425","block":3,"time":"2021-09-05T15:46:49.426Z","response":"2nd","certainty":"high","char":"L","transposition":0,"order":["swapped","shifted"],"probe_pitches":[10,6,1,-2,3,6,1,10,8,3,-2,6,8,-2,10,1],"shifted_pitches":[10,6,1,-2,3,6,1,11,8,3,-2,6,8,-2,10,1],"swapped_pitches":[10,6,1,-2,3,6,1,8,10,3,-2,6,8,-2,10,1],"shift_direction":1,"question_num":151,"has_decoy":false},{"rt":449.7000000476837,"stimulus":"[A] option 1, [L] option 2, [G] neither","key_press":76,"name":"choice","trial_type":"html-keyboard-response","trial_index":186,"time_elapsed":447192,"internal_node_id":"0.0-186.0","subject":"S1C1601","sona":"41425","block":3,"time":"2021-09-05T15:46:49.426Z","response":"2nd","certainty":"high","char":"L","transposition":-2,"order":["shifted","swapped"],"probe_pitches":[13,9,13,10,5,4,14,8,7,9,5,8,3,14,9,3],"shifted_pitches":[13,9,13,10,5,4,14,8,6,9,5,8,3,14,9,3],"swapped_pitches":[13,9,13,10,5,4,14,7,8,9,5,8,3,14,9,3],"shift_direction":-1,"question_num":161,"has_decoy":false},{"rt":3072.7999999523163,"stimulus":"[A] option 1, [L] option 2, [G] neither","key_press":76,"name":"choice","trial_type":"html-keyboard-response","trial_index":197,"time_elapsed":472727,"internal_node_id":"0.0-197.0","subject":"S1C1601","sona":"41425","block":3,"time":"2021-09-05T15:46:49.426Z","response":"2nd","certainty":"high","char":"L","transposition":-2,"order":["shifted","swapped"],"probe_pitches":[3,0,3,-2,5,10,0,3,10,-2,5,10,-2,8,3,5],"shifted_pitches":[3,0,3,-2,5,10,0,3,9,-2,5,10,-2,8,3,5],"swapped_pitches":[3,0,3,-2,5,10,0,10,3,-2,5,10,-2,8,3,5],"shift_direction":-1,"question_num":171,"has_decoy":false},{"rt":1140,"stimulus":"[A] option 1, [L] option 2, [G] neither","key_press":65,"name":"choice","trial_type":"html-keyboard-response","trial_index":208,"time_elapsed":496400,"internal_node_id":"0.0-208.0","subject":"S1C1601","sona":"41425","block":3,"time":"2021-09-05T15:46:49.426Z","response":"1st","certainty":"high","char":"A","transposition":3,"order":["swapped","shifted"],"probe_pitches":[11,5,11,3,6,5,14,15,11,6,8,6,9,14,15,3],"shifted_pitches":[11,5,11,3,6,5,14,15,12,6,8,6,9,14,15,3],"swapped_pitches":[11,5,11,3,6,5,14,11,15,6,8,6,9,14,15,3],"shift_direction":1,"question_num":181,"has_decoy":false},{"rt":8400.599999904633,"stimulus":"[A] option 1, [L] option 2, [G] neither","key_press":71,"name":"choice","trial_type":"html-keyboard-response","trial_index":219,"time_elapsed":527888,"internal_node_id":"0.0-219.0","subject":"S1C1601","sona":"41425","block":3,"time":"2021-09-05T15:46:49.426Z","response":"neither","certainty":"high","char":"G","transposition":2,"order":["shifted","swapped"],"probe_pitches":[5,10,5,3,10,5,0,10,7,3,10,5,10,7,10,3],"shifted_pitches":[5,10,5,3,10,5,0,9,7,3,10,5,10,7,10,3],"swapped_pitches":[5,10,5,3,10,5,0,7,10,3,10,5,10,7,10,3],"shift_direction":-1,"question_num":191,"has_decoy":false}]