[{"rt":8149,"stimulus":"[A] option 1, [L] option 2, [G] neither","key_press":71,"name":"choice","trial_type":"html-keyboard-response","trial_index":10,"time_elapsed":40991,"internal_node_id":"0.0-10.0","subject":"S1C1601","sona":"41425","block":2,"time":"2021-09-05T15:30:47.069Z","response":"neither","certainty":"high","char":"G","transposition":1,"order":["shifted","swapped"],"probe_pitches":[3,-2,5,10,7,3,7,5,-2,0,7,3,0,3,5,0],"shifted_pitches":[3,-2,5,10,7,3,7,4,-2,0,7,3,0,3,5,0],"swapped_pitches":[3,-2,5,10,7,3,7,-2,5,0,7,3,0,3,5,0],"shift_direction":-1,"question_num":1,"has_decoy":false},{"rt":5544.700000047684,"stimulus":"[A] option 1, [L] option 2, [G] neither","key_press":76,"name":"choice","trial_type":"html-keyboard-response","trial_index":21,"time_elapsed":70594,"internal_node_id":"0.0-21.0","subject":"S1C1601","sona":"41425","block":2,"time":"2021-09-05T15:30:47.069Z","response":"2nd","certainty":"high","char":"L","transposition":1,"order":["shifted","swapped"],"probe_pitches":[7,9,7,8,5,11,8,9,5,3,12,6,5,7,12,8],"shifted_pitches":[7,9,7,8,5,11,8,10,5,3,12,6,5,7,12,8],"swapped_pitches":[7,9,7,8,5,11,8,5,9,3,12,6,5,7,12,8],"shift_direction":1,"question_num":11,"has_decoy":false},{"rt":3267.0999999046326,"stimulus":"[A] option 1, [L] option 2, [G] neither","key_press":71,"name":"choice","trial_type":"html-keyboard-response","trial_index":32,"time_elapsed":98370,"internal_node_id":"0.0-32.0","subject":"S1C1601","sona":"41425","block":2,"time":"2021-09-05T15:30:47.069Z","response":"neither","certainty":"high","char":"G","transposition":-3,"order":["swapped","shifted"],"probe_pitches":[11,13,11,13,14,13,7,12,5,7,12,5,13,2,13,12],"shifted_pitches":[11,13,11,13,14,13,7,12,6,7,12,5,13,2,13,12],"swapped_pitches":[11,13,11,13,14,13,7,5,12,7,12,5,13,2,13,12],"shift_direction":1,"question_num":21,"has_decoy":false},{"rt":550.3000001907349,"stimulus":"[A] option 1, [L] option 2, [G] neither","key_press":76,"name":"choice","trial_type":"html-keyboard-response","trial_index":43,"time_elapsed":122313,"internal_node_id":"0.0-43.0","subject":"S1C1601","sona":"41425","block":2,"time":"2021-09-05T15:30:47.069Z","response":"2nd","certainty":"high","char":"L","transposition":-1,"order":["swapped","shifted"],"probe_pitches":[3,-2,0,-2,5,3,0,-2,3,0,8,5,0,5,0,10],"shifted_pitches":[3,-2,0,-2,5,3,0,-2,2,0,8,5,0,5,0,10],"swapped_pitches":[3,-2,0,-2,5,3,0,3,-2,0,8,5,0,5,0,10],"shift_direction":-1,"question_num":31,"has_decoy":false},{"rt":769.1000001430511,"stimulus":"[A] option 1, [L] option 2, [G] neither","key_press":65,"name":"choice","trial_type":"html-keyboard-response","trial_index":54,"time_elapsed":145499,"internal_node_id":"0.0-54.0","subject":"S1C1601","sona":"41425","block":2,"time":"2021-09-05T15:30:47.069Z","response":"1st","certainty":"high","char":"A","transposition":-2,"order":["shifted","swapped"],"probe_pitches":[0,-2,5,-2,2,10,7,-2,5,2,0,7,5,7,0,7],"shifted_pitches":[0,-2,5,-2,2,10,7,-1,5,2,0,7,5,7,0,7],"swapped_pitches":[0,-2,5,-2,2,10,7,5,-2,2,0,7,5,7,0,7],"shift_direction":1,"question_num":41,"has_decoy":false},{"rt":2135.399999856949,"stimulus":"[A] option 1, [L] option 2, [G] neither","key_press":65,"name":"choice","trial_type":"html-keyboard-response","trial_index":65,"time_elapsed":170762,"internal_node_id":"0.0-65.0","subject":"S1C1601","sona":"41425","block":2,"time":"2021-09-05T15:30:47.069Z","response":"1st","certainty":"high","char":"A","transposition":-3,"order":["swapped","shifted"],"probe_pitches":[8,3,1,3,6,10,1,-2,3,8,3,1,-2,3,8,1],"shifted_pitches":[8,3,1,3,6,10,1,-2,4,8,3,1,-2,3,8,1],"swapped_pitches":[8,3,1,3,6,10,1,3,-2,8,3,1,-2,3,8,1],"shift_direction":1,"question_num":51,"has_decoy":false},{"rt":3114.5,"stimulus":"[A] option 1, [L] option 2, [G] neither","key_press":65,"name":"choice","trial_type":"html-keyboard-response","trial_index":76,"time_elapsed":196991,"internal_node_id":"0.0-76.0","subject":"S1C1601","sona":"41425","block":2,"time":"2021-09-05T15:30:47.069Z","response":"1st","certainty":"high","char":"A","transposition":2,"order":["shifted","swapped"],"probe_pitches":[2,8,9,5,10,3,2,6,13,5,14,9,4,7,9,11],"shifted_pitches":[2,8,9,5,10,3,2,6,12,5,14,9,4,7,9,11],"swapped_pitches":[2,8,9,5,10,3,2,13,6,5,14,9,4,7,9,11],"shift_direction":-1,"question_num":61,"has_decoy":false},{"rt":1500.4000000953674,"stimulus":"[A] option 1, [L] option 2, [G] neither","key_press":76,"name":"choice","trial_type":"html-keyboard-response","trial_index":87,"time_elapsed":220878,"internal_node_id":"0.0-87.0","subject":"S1C1601","sona":"41425","block":2,"time":"2021-09-05T15:30:47.069Z","response":"2nd","certainty":"high","char":"L","transposition":-3,"order":["shifted","swapped"],"probe_pitches":[4,3,10,4,10,14,11,2,12,4,3,7,2,6,2,9],"shifted_pitches":[4,3,10,4,10,14,11,1,12,4,3,7,2,6,2,9],"swapped_pitches":[4,3,10,4,10,14,11,12,2,4,3,7,2,6,2,9],"shift_direction":-1,"question_num":71,"has_decoy":false},{"rt":1287.8999998569489,"stimulus":"[A] option 1, [L] option 2, [G] neither","key_press":76,"name":"choice","trial_type":"html-keyboard-response","trial_index":98,"time_elapsed":244493,"internal_node_id":"0.0-98.0","subject":"S1C1601","sona":"41425","block":2,"time":"2021-09-05T15:30:47.069Z","response":"2nd","certainty":"high","char":"L","transposition":2,"order":["swapped","shifted"],"probe_pitches":[10,8,3,10,8,-2,1,-2,5,3,1,-2,10,3,10,1],"shifted_pitches":[10,8,3,10,8,-2,1,-3,5,3,1,-2,10,3,10,1],"swapped_pitches":[10,8,3,10,8,-2,1,5,-2,3,1,-2,10,3,10,1],"shift_direction":-1,"question_num":81,"has_decoy":false},{"rt":4961.799999952316,"stimulus":"[A] option 1, [L] option 2, [G] neither","key_press":76,"name":"choice","trial_type":"html-keyboard-response","trial_index":109,"time_elapsed":273859,"internal_node_id":"0.0-109.0","subject":"S1C1601","sona":"41425","block":2,"time":"2021-09-05T15:30:47.069Z","response":"2nd","certainty":"high","char":"L","transposition":0,"order":["swapped","shifted"],"probe_pitches":[3,9,10,12,13,10,13,7,10,3,2,3,6,4,5,10],"shifted_pitches":[3,9,10,12,13,10,13,7,11,3,2,3,6,4,5,10],"swapped_pitches":[3,9,10,12,13,10,13,10,7,3,2,3,6,4,5,10],"shift_direction":1,"question_num":91,"has_decoy":false},{"rt":7510.699999809265,"stimulus":"[A] option 1, [L] option 2, [G] neither","key_press":71,"name":"choice","trial_type":"html-keyboard-response","trial_index":120,"time_elapsed":303797,"internal_node_id":"0.0-120.0","subject":"S1C1601","sona":"41425","block":2,"time":"2021-09-05T15:30:47.069Z","response":"neither","certainty":"high","char":"G","transposition":0,"order":["shifted","swapped"],"probe_pitches":[0,3,5,10,3,5,3,10,5,0,7,-2,0,-2,5,3],"shifted_pitches":[0,3,5,10,3,5,3,10,6,0,7,-2,0,-2,5,3],"swapped_pitches":[0,3,5,10,3,5,3,5,10,0,7,-2,0,-2,5,3],"shift_direction":1,"question_num":101,"has_decoy":false},{"rt":1653,"stimulus":"[A] option 1, [L] option 2, [G] neither","key_press":71,"name":"choice","trial_type":"html-keyboard-response","trial_index":131,"time_elapsed":331590,"internal_node_id":"0.0-131.0","subject":"S1C1601","sona":"41425","block":2,"time":"2021-09-05T15:30:47.069Z","response":"neither","certainty":"high","char":"G","transposition":-1,"order":["swapped","shifted"],"probe_pitches":[9,7,6,5,9,2,7,5,13,14,8,3,6,7,8,7],"shifted_pitches":[9,7,6,5,9,2,7,4,13,14,8,3,6,7,8,7],"swapped_pitches":[9,7,6,5,9,2,7,13,5,14,8,3,6,7,8,7],"shift_direction":-1,"question_num":111,"has_decoy":false},{"rt":507.5,"stimulus":"[A] option 1, [L] option 2, [G] neither","key_press":76,"name":"choice","trial_type":"html-keyboard-response","trial_index":142,"time_elapsed":355303,"internal_node_id":"0.0-142.0","subject":"S1C1601","sona":"41425","block":2,"time":"2021-09-05T15:30:47.069Z","response":"2nd","certainty":"high","char":"L","transposition":-1,"order":["swapped","shifted"],"probe_pitches":[10,8,5,10,8,3,-2,10,3,8,3,10,0,3,-2,0],"shifted_pitches":[10,8,5,10,8,3,-2,9,3,8,3,10,0,3,-2,0],"swapped_pitches":[10,8,5,10,8,3,-2,3,10,8,3,10,0,3,-2,0],"shift_direction":-1,"question_num":121,"has_decoy":false},{"rt":1222.8000001907349,"stimulus":"[A] option 1, [L] option 2, [G] neither","key_press":65,"name":"choice","trial_type":"html-keyboard-response","trial_index":153,"time_elapsed":379625,"internal_node_id":"0.0-153.0","subject":"S1C1601","sona":"41425","block":2,"time":"2021-09-05T15:30:47.069Z","response":"1st","certainty":"high","char":"A","transposition":-3,"order":["shifted","swapped"],"probe_pitches":[5,10,7,10,2,0,-2,2,10,7,0,5,0,2,7,2],"shifted_pitches":[5,10,7,10,2,0,-2,2,11,7,0,5,0,2,7,2],"swapped_pitches":[5,10,7,10,2,0,-2,10,2,7,0,5,0,2,7,2],"shift_direction":1,"question_num":131,"has_decoy":false},{"rt":779.2999999523163,"stimulus":"[A] option 1, [L] option 2, [G] neither","key_press":65,"name":"choice","trial_type":"html-keyboard-response","trial_index":164,"time_elapsed":402656,"internal_node_id":"0.0-164.0","subject":"S1C1601","sona":"41425","block":2,"time":"2021-09-05T15:30:47.069Z","response":"1st","certainty":"high","char":"A","transposition":-2,"order":["shifted","swapped"],"probe_pitches":[10,8,10,3,1,10,3,8,6,3,6,8,-2,8,1,3],"shifted_pitches":[10,8,10,3,1,10,3,9,6,3,6,8,-2,8,1,3],"swapped_pitches":[10,8,10,3,1,10,3,6,8,3,6,8,-2,8,1,3],"shift_direction":1,"question_num":141,"has_decoy":false},{"rt":3661.199999809265,"stimulus":"[A] option 1, [L] option 2, [G] neither","key_press":71,"name":"choice","trial_type":"html-keyboard-response","trial_index":175,"time_elapsed":428606,"internal_node_id":"0.0-175.0","subject":"S1C1601","sona":"41425","block":2,"time":"2021-09-05T15:30:47.069Z","response":"neither","certainty":"high","char":"G","transposition":-2,"order":["swapped","shifted"],"probe_pitches":[10,14,11,4,12,7,6,5,10,14,8,12,2,10,7,3],"shifted_pitches":[10,14,11,4,12,7,6,5,9,14,8,12,2,10,7,3],"swapped_pitches":[10,14,11,4,12,7,6,10,5,14,8,12,2,10,7,3],"shift_direction":-1,"question_num":151,"has_decoy":false},{"rt":1481.8000001907349,"stimulus":"[A] option 1, [L] option 2, [G] neither","key_press":76,"name":"choice","trial_type":"html-keyboard-response","trial_index":186,"time_elapsed":452484,"internal_node_id":"0.0-186.0","subject":"S1C1601","sona":"41425","block":2,"time":"2021-09-05T15:30:47.069Z","response":"2nd","certainty":"high","char":"L","transposition":-2,"order":["swapped","shifted"],"probe_pitches":[8,6,12,13,8,9,3,8,12,11,9,12,9,6,11,13],"shifted_pitches":[8,6,12,13,8,9,3,7,12,11,9,12,9,6,11,13],"swapped_pitches":[8,6,12,13,8,9,3,12,8,11,9,12,9,6,11,13],"shift_direction":-1,"question_num":161,"has_decoy":false},{"rt":2197.5,"stimulus":"[A] option 1, [L] option 2, [G] neither","key_press":65,"name":"choice","trial_type":"html-keyboard-response","trial_index":197,"time_elapsed":476993,"internal_node_id":"0.0-197.0","subject":"S1C1601","sona":"41425","block":2,"time":"2021-09-05T15:30:47.069Z","response":"1st","certainty":"high","char":"A","transposition":3,"order":["shifted","swapped"],"probe_pitches":[7,6,3,10,11,10,11,14,7,6,11,5,2,14,5,2],"shifted_pitches":[7,6,3,10,11,10,11,14,8,6,11,5,2,14,5,2],"swapped_pitches":[7,6,3,10,11,10,11,7,14,6,11,5,2,14,5,2],"shift_direction":1,"question_num":171,"has_decoy":false},{"rt":959.5999999046326,"stimulus":"[A] option 1, [L] option 2, [G] neither","key_press":76,"name":"choice","trial_type":"html-keyboard-response","trial_index":208,"time_elapsed":500486,"internal_node_id":"0.0-208.0","subject":"S1C1601","sona":"41425","block":2,"time":"2021-09-05T15:30:47.069Z","response":"2nd","certainty":"high","char":"L","transposition":3,"order":["swapped","shifted"],"probe_pitches":[-2,1,5,8,1,3,-2,3,1,5,3,10,5,1,8,3],"shifted_pitches":[-2,1,5,8,1,3,-2,3,0,5,3,10,5,1,8,3],"swapped_pitches":[-2,1,5,8,1,3,-2,1,3,5,3,10,5,1,8,3],"shift_direction":-1,"question_num":181,"has_decoy":false},{"rt":6956.100000143051,"stimulus":"[A] option 1, [L] option 2, [G] neither","key_press":76,"name":"choice","trial_type":"html-keyboard-response","trial_index":219,"time_elapsed":530177,"internal_node_id":"0.0-219.0","subject":"S1C1601","sona":"41425","block":2,"time":"2021-09-05T15:30:47.069Z","response":"2nd","certainty":"high","char":"L","transposition":-1,"order":["shifted","swapped"],"probe_pitches":[10,4,10,7,8,4,2,4,7,8,14,12,2,11,14,6],"shifted_pitches":[10,4,10,7,8,4,2,5,7,8,14,12,2,11,14,6],"swapped_pitches":[10,4,10,7,8,4,2,7,4,8,14,12,2,11,14,6],"shift_direction":1,"question_num":191,"has_decoy":false}]