[{"rt":914.8000001907349,"stimulus":"[A] option 1, [L] option 2, [G] neither","key_press":76,"name":"choice","trial_type":"html-keyboard-response","trial_index":10,"time_elapsed":25347,"internal_node_id":"0.0-10.0","subject":"S1C1601","sona":"41425","block":4,"time":"2021-09-05T15:58:42.616Z","response":"2nd","certainty":"high","char":"L","transposition":-2,"order":["swapped","shifted"],"probe_pitches":[7,3,1,0,-2,3,-1,9,5,1,5,7,5,0,3,-1],"shifted_pitches":[7,3,1,0,-2,3,-1,9,6,1,5,7,5,0,3,-1],"swapped_pitches":[7,3,1,0,-2,3,-1,5,9,1,5,7,5,0,3,-1],"shift_direction":1,"question_num":1,"has_decoy":false},{"rt":4797.5,"stimulus":"[A] option 1, [L] option 2, [G] neither","key_press":71,"name":"choice","trial_type":"html-keyboard-response","trial_index":21,"time_elapsed":53532,"internal_node_id":"0.0-21.0","subject":"S1C1601","sona":"41425","block":4,"time":"2021-09-05T15:58:42.616Z","response":"neither","certainty":"high","char":"G","transposition":-3,"order":["shifted","swapped"],"probe_pitches":[4,9,11,9,1,11,6,1,11,9,1,6,-1,11,4,9],"shifted_pitches":[4,9,11,9,1,11,6,1,10,9,1,6,-1,11,4,9],"swapped_pitches":[4,9,11,9,1,11,6,11,1,9,1,6,-1,11,4,9],"shift_direction":-1,"question_num":11,"has_decoy":false},{"rt":863.9000000953674,"stimulus":"[A] option 1, [L] option 2, [G] neither","key_press":65,"name":"choice","trial_type":"html-keyboard-response","trial_index":32,"time_elapsed":78343,"internal_node_id":"0.0-32.0","subject":"S1C1601","sona":"41425","block":4,"time":"2021-09-05T15:58:42.616Z","response":"1st","certainty":"high","char":"A","transposition":-1,"order":["swapped","shifted"],"probe_pitches":[1,5,10,6,5,3,5,3,7,5,3,0,-1,8,-1,8],"shifted_pitches":[1,5,10,6,5,3,5,4,7,5,3,0,-1,8,-1,8],"swapped_pitches":[1,5,10,6,5,3,5,7,3,5,3,0,-1,8,-1,8],"shift_direction":1,"question_num":21,"has_decoy":false},{"rt":1818.5,"stimulus":"[A] option 1, [L] option 2, [G] neither","key_press":71,"name":"choice","trial_type":"html-keyboard-response","trial_index":43,"time_elapsed":102320,"internal_node_id":"0.0-43.0","subject":"S1C1601","sona":"41425","block":4,"time":"2021-09-05T15:58:42.616Z","response":"neither","certainty":"high","char":"G","transposition":2,"order":["swapped","shifted"],"probe_pitches":[8,9,7,8,10,4,0,4,8,1,4,1,6,-2,6,-1],"shifted_pitches":[8,9,7,8,10,4,0,5,8,1,4,1,6,-2,6,-1],"swapped_pitches":[8,9,7,8,10,4,0,8,4,1,4,1,6,-2,6,-1],"shift_direction":1,"question_num":31,"has_decoy":false},{"rt":1384.2000000476837,"stimulus":"[A] option 1, [L] option 2, [G] neither","key_press":65,"name":"choice","trial_type":"html-keyboard-response","trial_index":54,"time_elapsed":126014,"internal_node_id":"0.0-54.0","subject":"S1C1601","sona":"41425","block":4,"time":"2021-09-05T15:58:42.616Z","response":"1st","certainty":"high","char":"A","transposition":0,"order":["shifted","swapped"],"probe_pitches":[11,6,4,9,4,9,11,-1,9,11,4,6,2,6,4,-1],"shifted_pitches":[11,6,4,9,4,9,11,0,9,11,4,6,2,6,4,-1],"swapped_pitches":[11,6,4,9,4,9,11,9,-1,11,4,6,2,6,4,-1],"shift_direction":1,"question_num":41,"has_decoy":false},{"rt":986.7000000476837,"stimulus":"[A] option 1, [L] option 2, [G] neither","key_press":76,"name":"choice","trial_type":"html-keyboard-response","trial_index":65,"time_elapsed":149270,"internal_node_id":"0.0-65.0","subject":"S1C1601","sona":"41425","block":4,"time":"2021-09-05T15:58:42.616Z","response":"2nd","certainty":"high","char":"L","transposition":-3,"order":["swapped","shifted"],"probe_pitches":[-1,1,-1,1,8,6,8,4,1,6,4,1,8,4,1,11],"shifted_pitches":[-1,1,-1,1,8,6,8,4,0,6,4,1,8,4,1,11],"swapped_pitches":[-1,1,-1,1,8,6,8,1,4,6,4,1,8,4,1,11],"shift_direction":-1,"question_num":51,"has_decoy":false},{"rt":2422.2000000476837,"stimulus":"[A] option 1, [L] option 2, [G] neither","key_press":71,"name":"choice","trial_type":"html-keyboard-response","trial_index":76,"time_elapsed":173943,"internal_node_id":"0.0-76.0","subject":"S1C1601","sona":"41425","block":4,"time":"2021-09-05T15:58:42.616Z","response":"neither","certainty":"high","char":"G","transposition":-3,"order":["swapped","shifted"],"probe_pitches":[1,6,10,5,10,5,8,4,6,2,4,-1,5,6,-2,-1],"shifted_pitches":[1,6,10,5,10,5,8,3,6,2,4,-1,5,6,-2,-1],"swapped_pitches":[1,6,10,5,10,5,8,6,4,2,4,-1,5,6,-2,-1],"shift_direction":-1,"question_num":61,"has_decoy":false},{"rt":506.2000000476837,"stimulus":"[A] option 1, [L] option 2, [G] neither","key_press":76,"name":"choice","trial_type":"html-keyboard-response","trial_index":87,"time_elapsed":198060,"internal_node_id":"0.0-87.0","subject":"S1C1601","sona":"41425","block":4,"time":"2021-09-05T15:58:42.616Z","response":"2nd","certainty":"high","char":"L","transposition":-1,"order":["swapped","shifted"],"probe_pitches":[9,11,9,11,4,-1,9,1,4,9,1,6,11,6,-1,9],"shifted_pitches":[9,11,9,11,4,-1,9,1,5,9,1,6,11,6,-1,9],"swapped_pitches":[9,11,9,11,4,-1,9,4,1,9,1,6,11,6,-1,9],"shift_direction":1,"question_num":71,"has_decoy":false},{"rt":1029.2999999523163,"stimulus":"[A] option 1, [L] option 2, [G] neither","key_press":65,"name":"choice","trial_type":"html-keyboard-response","trial_index":98,"time_elapsed":221310,"internal_node_id":"0.0-98.0","subject":"S1C1601","sona":"41425","block":4,"time":"2021-09-05T15:58:42.616Z","response":"1st","certainty":"high","char":"A","transposition":-2,"order":["shifted","swapped"],"probe_pitches":[10,9,3,0,9,0,-2,3,6,9,-1,10,1,2,0,8],"shifted_pitches":[10,9,3,0,9,0,-2,3,7,9,-1,10,1,2,0,8],"swapped_pitches":[10,9,3,0,9,0,-2,6,3,9,-1,10,1,2,0,8],"shift_direction":1,"question_num":81,"has_decoy":false},{"rt":1011.2000000476837,"stimulus":"[A] option 1, [L] option 2, [G] neither","key_press":76,"name":"choice","trial_type":"html-keyboard-response","trial_index":109,"time_elapsed":245004,"internal_node_id":"0.0-109.0","subject":"S1C1601","sona":"41425","block":4,"time":"2021-09-05T15:58:42.616Z","response":"2nd","certainty":"high","char":"L","transposition":2,"order":["swapped","shifted"],"probe_pitches":[9,4,-1,4,7,9,7,2,11,7,11,4,9,7,9,11],"shifted_pitches":[9,4,-1,4,7,9,7,2,10,7,11,4,9,7,9,11],"swapped_pitches":[9,4,-1,4,7,9,7,11,2,7,11,4,9,7,9,11],"shift_direction":-1,"question_num":91,"has_decoy":false},{"rt":1676.7999999523163,"stimulus":"[A] option 1, [L] option 2, [G] neither","key_press":76,"name":"choice","trial_type":"html-keyboard-response","trial_index":120,"time_elapsed":269051,"internal_node_id":"0.0-120.0","subject":"S1C1601","sona":"41425","block":4,"time":"2021-09-05T15:58:42.616Z","response":"2nd","certainty":"high","char":"L","transposition":0,"order":["swapped","shifted"],"probe_pitches":[-1,3,0,3,2,6,8,10,-2,4,7,8,10,4,10,-2],"shifted_pitches":[-1,3,0,3,2,6,8,10,-3,4,7,8,10,4,10,-2],"swapped_pitches":[-1,3,0,3,2,6,8,-2,10,4,7,8,10,4,10,-2],"shift_direction":-1,"question_num":101,"has_decoy":false},{"rt":11075.5,"stimulus":"[A] option 1, [L] option 2, [G] neither","key_press":65,"name":"choice","trial_type":"html-keyboard-response","trial_index":131,"time_elapsed":302734,"internal_node_id":"0.0-131.0","subject":"S1C1601","sona":"41425","block":4,"time":"2021-09-05T15:58:42.616Z","response":"1st","certainty":"high","char":"A","transposition":-3,"order":["shifted","swapped"],"probe_pitches":[8,6,8,10,1,8,1,10,3,1,4,-1,3,0,-1,6],"shifted_pitches":[8,6,8,10,1,8,1,10,2,1,4,-1,3,0,-1,6],"swapped_pitches":[8,6,8,10,1,8,1,3,10,1,4,-1,3,0,-1,6],"shift_direction":-1,"question_num":111,"has_decoy":false},{"rt":679.2000000476837,"stimulus":"[A] option 1, [L] option 2, [G] neither","key_press":65,"name":"choice","trial_type":"html-keyboard-response","trial_index":142,"time_elapsed":325855,"internal_node_id":"0.0-142.0","subject":"S1C1601","sona":"41425","block":4,"time":"2021-09-05T15:58:42.616Z","response":"1st","certainty":"high","char":"A","transposition":-2,"order":["shifted","swapped"],"probe_pitches":[11,9,4,2,11,9,-1,4,6,2,9,4,11,9,2,-1],"shifted_pitches":[11,9,4,2,11,9,-1,5,6,2,9,4,11,9,2,-1],"swapped_pitches":[11,9,4,2,11,9,-1,6,4,2,9,4,11,9,2,-1],"shift_direction":1,"question_num":121,"has_decoy":false},{"rt":522,"stimulus":"[A] option 1, [L] option 2, [G] neither","key_press":65,"name":"choice","trial_type":"html-keyboard-response","trial_index":153,"time_elapsed":349658,"internal_node_id":"0.0-153.0","subject":"S1C1601","sona":"41425","block":4,"time":"2021-09-05T15:58:42.616Z","response":"1st","certainty":"high","char":"A","transposition":3,"order":["shifted","swapped"],"probe_pitches":[8,11,6,3,1,8,11,1,3,-1,8,6,1,8,3,1],"shifted_pitches":[8,11,6,3,1,8,11,2,3,-1,8,6,1,8,3,1],"swapped_pitches":[8,11,6,3,1,8,11,3,1,-1,8,6,1,8,3,1],"shift_direction":1,"question_num":131,"has_decoy":false},{"rt":1844.0999999046326,"stimulus":"[A] option 1, [L] option 2, [G] neither","key_press":71,"name":"choice","trial_type":"html-keyboard-response","trial_index":164,"time_elapsed":373626,"internal_node_id":"0.0-164.0","subject":"S1C1601","sona":"41425","block":4,"time":"2021-09-05T15:58:42.616Z","response":"neither","certainty":"high","char":"G","transposition":-1,"order":["shifted","swapped"],"probe_pitches":[4,5,-1,7,10,0,5,4,9,1,9,0,-2,4,10,7],"shifted_pitches":[4,5,-1,7,10,0,5,4,8,1,9,0,-2,4,10,7],"swapped_pitches":[4,5,-1,7,10,0,5,9,4,1,9,0,-2,4,10,7],"shift_direction":-1,"question_num":141,"has_decoy":false},{"rt":206.10000014305115,"stimulus":"[A] option 1, [L] option 2, [G] neither","key_press":76,"name":"choice","trial_type":"html-keyboard-response","trial_index":175,"time_elapsed":397813,"internal_node_id":"0.0-175.0","subject":"S1C1601","sona":"41425","block":4,"time":"2021-09-05T15:58:42.616Z","response":"2nd","certainty":"high","char":"L","transposition":1,"order":["swapped","shifted"],"probe_pitches":[11,8,11,8,11,8,11,1,6,11,6,-1,3,8,1,11],"shifted_pitches":[11,8,11,8,11,8,11,0,6,11,6,-1,3,8,1,11],"swapped_pitches":[11,8,11,8,11,8,11,6,1,11,6,-1,3,8,1,11],"shift_direction":-1,"question_num":151,"has_decoy":false},{"rt":3461.899999856949,"stimulus":"[A] option 1, [L] option 2, [G] neither","key_press":71,"name":"choice","trial_type":"html-keyboard-response","trial_index":186,"time_elapsed":423767,"internal_node_id":"0.0-186.0","subject":"S1C1601","sona":"41425","block":4,"time":"2021-09-05T15:58:42.616Z","response":"neither","certainty":"high","char":"G","transposition":3,"order":["shifted","swapped"],"probe_pitches":[-2,3,6,2,5,7,-2,1,2,9,4,1,3,7,-2,1],"shifted_pitches":[-2,3,6,2,5,7,-2,0,2,9,4,1,3,7,-2,1],"swapped_pitches":[-2,3,6,2,5,7,-2,2,1,9,4,1,3,7,-2,1],"shift_direction":-1,"question_num":161,"has_decoy":false},{"rt":990.6000001430511,"stimulus":"[A] option 1, [L] option 2, [G] neither","key_press":76,"name":"choice","trial_type":"html-keyboard-response","trial_index":197,"time_elapsed":447034,"internal_node_id":"0.0-197.0","subject":"S1C1601","sona":"41425","block":4,"time":"2021-09-05T15:58:42.616Z","response":"2nd","certainty":"high","char":"L","transposition":-1,"order":["swapped","shifted"],"probe_pitches":[-1,4,-1,2,-1,9,2,7,9,-1,7,4,9,11,2,11],"shifted_pitches":[-1,4,-1,2,-1,9,2,7,10,-1,7,4,9,11,2,11],"swapped_pitches":[-1,4,-1,2,-1,9,2,9,7,-1,7,4,9,11,2,11],"shift_direction":1,"question_num":171,"has_decoy":false},{"rt":1761.8999998569489,"stimulus":"[A] option 1, [L] option 2, [G] neither","key_press":65,"name":"choice","trial_type":"html-keyboard-response","trial_index":208,"time_elapsed":471279,"internal_node_id":"0.0-208.0","subject":"S1C1601","sona":"41425","block":4,"time":"2021-09-05T15:58:42.616Z","response":"1st","certainty":"high","char":"A","transposition":1,"order":["shifted","swapped"],"probe_pitches":[3,-2,3,9,0,7,2,0,-1,8,6,0,-2,5,8,5],"shifted_pitches":[3,-2,3,9,0,7,2,1,-1,8,6,0,-2,5,8,5],"swapped_pitches":[3,-2,3,9,0,7,2,-1,0,8,6,0,-2,5,8,5],"shift_direction":1,"question_num":181,"has_decoy":false},{"rt":4990.699999809265,"stimulus":"[A] option 1, [L] option 2, [G] neither","key_press":76,"name":"choice","trial_type":"html-keyboard-response","trial_index":219,"time_elapsed":500473,"internal_node_id":"0.0-219.0","subject":"S1C1601","sona":"41425","block":4,"time":"2021-09-05T15:58:42.616Z","response":"2nd","certainty":"high","char":"L","transposition":-2,"order":["shifted","swapped"],"probe_pitches":[1,6,-1,4,6,4,11,4,8,6,8,-1,1,11,8,6],"shifted_pitches":[1,6,-1,4,6,4,11,3,8,6,8,-1,1,11,8,6],"swapped_pitches":[1,6,-1,4,6,4,11,8,4,6,8,-1,1,11,8,6],"shift_direction":-1,"question_num":191,"has_decoy":false}]