[{"rt":580,"stimulus":"[A] option 1, [L] option 2, [G] neither","key_press":65,"name":"choice","trial_type":"html-keyboard-response","trial_index":10,"time_elapsed":29809,"internal_node_id":"0.0-10.0","subject":"S1C1601","sona":"41425","block":5,"time":"2021-09-05T16:11:09.421Z","response":"1st","certainty":"high","char":"A","transposition":1,"order":["shifted","swapped"],"probe_pitches":[9,7,2,4,-3,2,-1,7,2,-1,7,4,9,-1,7,9],"shifted_pitches":[9,7,2,4,-3,2,-1,6,2,-1,7,4,9,-1,7,9],"swapped_pitches":[9,7,2,4,-3,2,-1,2,7,-1,7,4,9,-1,7,9],"shift_direction":-1,"question_num":1,"has_decoy":false},{"rt":3238.2999999523163,"stimulus":"[A] option 1, [L] option 2, [G] neither","key_press":71,"name":"choice","trial_type":"html-keyboard-response","trial_index":21,"time_elapsed":55606,"internal_node_id":"0.0-21.0","subject":"S1C1601","sona":"41425","block":5,"time":"2021-09-05T16:11:09.421Z","response":"neither","certainty":"high","char":"G","transposition":0,"order":["swapped","shifted"],"probe_pitches":[-3,2,7,4,0,7,-3,2,0,-3,7,9,0,-3,4,2],"shifted_pitches":[-3,2,7,4,0,7,-3,1,0,-3,7,9,0,-3,4,2],"swapped_pitches":[-3,2,7,4,0,7,-3,0,2,-3,7,9,0,-3,4,2],"shift_direction":-1,"question_num":11,"has_decoy":false},{"rt":1275.0999999046326,"stimulus":"[A] option 1, [L] option 2, [G] neither","key_press":65,"name":"choice","trial_type":"html-keyboard-response","trial_index":32,"time_elapsed":94168,"internal_node_id":"0.0-32.0","subject":"S1C1601","sona":"41425","block":5,"time":"2021-09-05T16:11:09.421Z","response":"1st","certainty":"high","char":"A","transposition":-1,"order":["swapped","shifted"],"probe_pitches":[1,0,-2,1,4,7,1,5,7,-3,-1,8,7,3,-2,2],"shifted_pitches":[1,0,-2,1,4,7,1,6,7,-3,-1,8,7,3,-2,2],"swapped_pitches":[1,0,-2,1,4,7,1,7,5,-3,-1,8,7,3,-2,2],"shift_direction":1,"question_num":21,"has_decoy":false},{"rt":1082.5,"stimulus":"[A] option 1, [L] option 2, [G] neither","key_press":76,"name":"choice","trial_type":"html-keyboard-response","trial_index":43,"time_elapsed":117629,"internal_node_id":"0.0-43.0","subject":"S1C1601","sona":"41425","block":5,"time":"2021-09-05T16:11:09.421Z","response":"2nd","certainty":"high","char":"L","transposition":2,"order":["swapped","shifted"],"probe_pitches":[1,6,0,-2,0,3,-2,-1,3,6,7,1,8,2,6,8],"shifted_pitches":[1,6,0,-2,0,3,-2,-1,4,6,7,1,8,2,6,8],"swapped_pitches":[1,6,0,-2,0,3,-2,3,-1,6,7,1,8,2,6,8],"shift_direction":1,"question_num":31,"has_decoy":false},{"rt":2956.7999999523163,"stimulus":"[A] option 1, [L] option 2, [G] neither","key_press":76,"name":"choice","trial_type":"html-keyboard-response","trial_index":54,"time_elapsed":144888,"internal_node_id":"0.0-54.0","subject":"S1C1601","sona":"41425","block":5,"time":"2021-09-05T16:11:09.421Z","response":"2nd","certainty":"high","char":"L","transposition":0,"order":["shifted","swapped"],"probe_pitches":[-3,2,0,8,0,4,9,1,2,9,7,9,7,-2,9,4],"shifted_pitches":[-3,2,0,8,0,4,9,1,3,9,7,9,7,-2,9,4],"swapped_pitches":[-3,2,0,8,0,4,9,2,1,9,7,9,7,-2,9,4],"shift_direction":1,"question_num":41,"has_decoy":false},{"rt":1257,"stimulus":"[A] option 1, [L] option 2, [G] neither","key_press":76,"name":"choice","trial_type":"html-keyboard-response","trial_index":65,"time_elapsed":172535,"internal_node_id":"0.0-65.0","subject":"S1C1601","sona":"41425","block":5,"time":"2021-09-05T16:11:09.421Z","response":"2nd","certainty":"high","char":"L","transposition":-2,"order":["swapped","shifted"],"probe_pitches":[-3,-1,2,-3,-1,-3,4,2,-3,-1,2,-3,2,-3,9,7],"shifted_pitches":[-3,-1,2,-3,-1,-3,4,2,-2,-1,2,-3,2,-3,9,7],"swapped_pitches":[-3,-1,2,-3,-1,-3,4,-3,2,-1,2,-3,2,-3,9,7],"shift_direction":1,"question_num":51,"has_decoy":false},{"rt":659.1000001430511,"stimulus":"[A] option 1, [L] option 2, [G] neither","key_press":76,"name":"choice","trial_type":"html-keyboard-response","trial_index":76,"time_elapsed":195927,"internal_node_id":"0.0-76.0","subject":"S1C1601","sona":"41425","block":5,"time":"2021-09-05T16:11:09.421Z","response":"2nd","certainty":"high","char":"L","transposition":-3,"order":["swapped","shifted"],"probe_pitches":[-3,-1,6,-1,6,-1,2,4,-1,2,9,6,9,2,6,-3],"shifted_pitches":[-3,-1,6,-1,6,-1,2,5,-1,2,9,6,9,2,6,-3],"swapped_pitches":[-3,-1,6,-1,6,-1,2,-1,4,2,9,6,9,2,6,-3],"shift_direction":1,"question_num":61,"has_decoy":false},{"rt":1329.7000000476837,"stimulus":"[A] option 1, [L] option 2, [G] neither","key_press":76,"name":"choice","trial_type":"html-keyboard-response","trial_index":87,"time_elapsed":221710,"internal_node_id":"0.0-87.0","subject":"S1C1601","sona":"41425","block":5,"time":"2021-09-05T16:11:09.421Z","response":"2nd","certainty":"high","char":"L","transposition":-1,"order":["swapped","shifted"],"probe_pitches":[1,-1,-3,-1,6,-3,1,-1,9,1,9,4,-1,4,-1,-3],"shifted_pitches":[1,-1,-3,-1,6,-3,1,-2,9,1,9,4,-1,4,-1,-3],"swapped_pitches":[1,-1,-3,-1,6,-3,1,9,-1,1,9,4,-1,4,-1,-3],"shift_direction":-1,"question_num":71,"has_decoy":false},{"rt":907,"stimulus":"[A] option 1, [L] option 2, [G] neither","key_press":65,"name":"choice","trial_type":"html-keyboard-response","trial_index":98,"time_elapsed":287309,"internal_node_id":"0.0-98.0","subject":"S1C1601","sona":"41425","block":5,"time":"2021-09-05T16:11:09.421Z","response":"1st","certainty":"high","char":"A","transposition":-3,"order":["swapped","shifted"],"probe_pitches":[6,2,4,0,-3,4,1,8,-3,2,-2,3,8,-1,4,3],"shifted_pitches":[6,2,4,0,-3,4,1,7,-3,2,-2,3,8,-1,4,3],"swapped_pitches":[6,2,4,0,-3,4,1,-3,8,2,-2,3,8,-1,4,3],"shift_direction":-1,"question_num":81,"has_decoy":false},{"rt":2125.899999856949,"stimulus":"[A] option 1, [L] option 2, [G] neither","key_press":76,"name":"choice","trial_type":"html-keyboard-response","trial_index":109,"time_elapsed":311926,"internal_node_id":"0.0-109.0","subject":"S1C1601","sona":"41425","block":5,"time":"2021-09-05T16:11:09.421Z","response":"2nd","certainty":"high","char":"L","transposition":1,"order":["swapped","shifted"],"probe_pitches":[4,8,7,3,8,9,0,-2,4,9,3,-3,-1,7,-2,4],"shifted_pitches":[4,8,7,3,8,9,0,-2,5,9,3,-3,-1,7,-2,4],"swapped_pitches":[4,8,7,3,8,9,0,4,-2,9,3,-3,-1,7,-2,4],"shift_direction":1,"question_num":91,"has_decoy":false},{"rt":2179.9000000953674,"stimulus":"[A] option 1, [L] option 2, [G] neither","key_press":76,"name":"choice","trial_type":"html-keyboard-response","trial_index":120,"time_elapsed":337586,"internal_node_id":"0.0-120.0","subject":"S1C1601","sona":"41425","block":5,"time":"2021-09-05T16:11:09.421Z","response":"2nd","certainty":"high","char":"L","transposition":-3,"order":["swapped","shifted"],"probe_pitches":[2,-3,0,2,0,4,-3,7,4,0,2,-3,7,-3,9,7],"shifted_pitches":[2,-3,0,2,0,4,-3,7,3,0,2,-3,7,-3,9,7],"swapped_pitches":[2,-3,0,2,0,4,-3,4,7,0,2,-3,7,-3,9,7],"shift_direction":-1,"question_num":101,"has_decoy":false},{"rt":3544.7999999523163,"stimulus":"[A] option 1, [L] option 2, [G] neither","key_press":71,"name":"choice","trial_type":"html-keyboard-response","trial_index":131,"time_elapsed":366803,"internal_node_id":"0.0-131.0","subject":"S1C1601","sona":"41425","block":5,"time":"2021-09-05T16:11:09.421Z","response":"neither","certainty":"high","char":"G","transposition":-2,"order":["shifted","swapped"],"probe_pitches":[2,6,-1,6,-1,2,4,-1,-3,9,4,-3,4,2,-1,4],"shifted_pitches":[2,6,-1,6,-1,2,4,0,-3,9,4,-3,4,2,-1,4],"swapped_pitches":[2,6,-1,6,-1,2,4,-3,-1,9,4,-3,4,2,-1,4],"shift_direction":1,"question_num":111,"has_decoy":false},{"rt":5619,"stimulus":"[A] option 1, [L] option 2, [G] neither","key_press":71,"name":"choice","trial_type":"html-keyboard-response","trial_index":142,"time_elapsed":395062,"internal_node_id":"0.0-142.0","subject":"S1C1601","sona":"41425","block":5,"time":"2021-09-05T16:11:09.421Z","response":"neither","certainty":"high","char":"G","transposition":-2,"order":["shifted","swapped"],"probe_pitches":[2,-3,-1,3,7,1,3,7,2,-1,4,5,-1,7,-3,4],"shifted_pitches":[2,-3,-1,3,7,1,3,8,2,-1,4,5,-1,7,-3,4],"swapped_pitches":[2,-3,-1,3,7,1,3,2,7,-1,4,5,-1,7,-3,4],"shift_direction":1,"question_num":121,"has_decoy":false},{"rt":459.30000019073486,"stimulus":"[A] option 1, [L] option 2, [G] neither","key_press":65,"name":"choice","trial_type":"html-keyboard-response","trial_index":153,"time_elapsed":418664,"internal_node_id":"0.0-153.0","subject":"S1C1601","sona":"41425","block":5,"time":"2021-09-05T16:11:09.421Z","response":"1st","certainty":"high","char":"A","transposition":-1,"order":["shifted","swapped"],"probe_pitches":[0,5,7,9,7,9,0,-3,7,9,5,0,-3,5,2,7],"shifted_pitches":[0,5,7,9,7,9,0,-3,6,9,5,0,-3,5,2,7],"swapped_pitches":[0,5,7,9,7,9,0,7,-3,9,5,0,-3,5,2,7],"shift_direction":-1,"question_num":131,"has_decoy":false},{"rt":634.9000000953674,"stimulus":"[A] option 1, [L] option 2, [G] neither","key_press":76,"name":"choice","trial_type":"html-keyboard-response","trial_index":164,"time_elapsed":441595,"internal_node_id":"0.0-164.0","subject":"S1C1601","sona":"41425","block":5,"time":"2021-09-05T16:11:09.421Z","response":"2nd","certainty":"high","char":"L","transposition":3,"order":["swapped","shifted"],"probe_pitches":[8,3,0,5,-2,3,8,0,2,3,5,2,1,3,6,-3],"shifted_pitches":[8,3,0,5,-2,3,8,-1,2,3,5,2,1,3,6,-3],"swapped_pitches":[8,3,0,5,-2,3,8,2,0,3,5,2,1,3,6,-3],"shift_direction":-1,"question_num":141,"has_decoy":false},{"rt":1446.5,"stimulus":"[A] option 1, [L] option 2, [G] neither","key_press":76,"name":"choice","trial_type":"html-keyboard-response","trial_index":175,"time_elapsed":468250,"internal_node_id":"0.0-175.0","subject":"S1C1601","sona":"41425","block":5,"time":"2021-09-05T16:11:09.421Z","response":"2nd","certainty":"high","char":"L","transposition":-1,"order":["shifted","swapped"],"probe_pitches":[2,-2,1,3,-3,5,-2,-3,1,-1,2,-2,2,6,9,4],"shifted_pitches":[2,-2,1,3,-3,5,-2,-3,0,-1,2,-2,2,6,9,4],"swapped_pitches":[2,-2,1,3,-3,5,-2,1,-3,-1,2,-2,2,6,9,4],"shift_direction":-1,"question_num":151,"has_decoy":false},{"rt":1111.2000000476837,"stimulus":"[A] option 1, [L] option 2, [G] neither","key_press":71,"name":"choice","trial_type":"html-keyboard-response","trial_index":186,"time_elapsed":492442,"internal_node_id":"0.0-186.0","subject":"S1C1601","sona":"41425","block":5,"time":"2021-09-05T16:11:09.421Z","response":"neither","certainty":"high","char":"G","transposition":2,"order":["shifted","swapped"],"probe_pitches":[6,4,9,1,6,1,9,6,1,4,6,-3,6,1,-1,9],"shifted_pitches":[6,4,9,1,6,1,9,6,2,4,6,-3,6,1,-1,9],"swapped_pitches":[6,4,9,1,6,1,9,1,6,4,6,-3,6,1,-1,9],"shift_direction":1,"question_num":161,"has_decoy":false},{"rt":764.9000000953674,"stimulus":"[A] option 1, [L] option 2, [G] neither","key_press":65,"name":"choice","trial_type":"html-keyboard-response","trial_index":197,"time_elapsed":519045,"internal_node_id":"0.0-197.0","subject":"S1C1601","sona":"41425","block":5,"time":"2021-09-05T16:11:09.421Z","response":"1st","certainty":"high","char":"A","transposition":3,"order":["shifted","swapped"],"probe_pitches":[0,5,2,9,7,-3,5,-3,9,0,5,9,5,-3,5,9],"shifted_pitches":[0,5,2,9,7,-3,5,-3,10,0,5,9,5,-3,5,9],"swapped_pitches":[0,5,2,9,7,-3,5,9,-3,0,5,9,5,-3,5,9],"shift_direction":1,"question_num":171,"has_decoy":false},{"rt":921,"stimulus":"[A] option 1, [L] option 2, [G] neither","key_press":76,"name":"choice","trial_type":"html-keyboard-response","trial_index":208,"time_elapsed":542553,"internal_node_id":"0.0-208.0","subject":"S1C1601","sona":"41425","block":5,"time":"2021-09-05T16:11:09.421Z","response":"2nd","certainty":"high","char":"L","transposition":-2,"order":["shifted","swapped"],"probe_pitches":[0,-3,1,5,3,4,9,6,3,0,-1,1,4,6,-1,3],"shifted_pitches":[0,-3,1,5,3,4,9,6,2,0,-1,1,4,6,-1,3],"swapped_pitches":[0,-3,1,5,3,4,9,3,6,0,-1,1,4,6,-1,3],"shift_direction":-1,"question_num":181,"has_decoy":false},{"rt":10171.599999904633,"stimulus":"[A] option 1, [L] option 2, [G] neither","key_press":76,"name":"choice","trial_type":"html-keyboard-response","trial_index":219,"time_elapsed":575498,"internal_node_id":"0.0-219.0","subject":"S1C1601","sona":"41425","block":5,"time":"2021-09-05T16:11:09.421Z","response":"2nd","certainty":"high","char":"L","transposition":-3,"order":["shifted","swapped"],"probe_pitches":[3,9,6,4,9,3,5,2,-2,9,5,3,7,2,-2,5],"shifted_pitches":[3,9,6,4,9,3,5,1,-2,9,5,3,7,2,-2,5],"swapped_pitches":[3,9,6,4,9,3,5,-2,2,9,5,3,7,2,-2,5],"shift_direction":-1,"question_num":191,"has_decoy":false}]