[{"rt":903.2999999998137,"stimulus":"[A] option 1, [L] option 2, [G] neither","key_press":76,"name":"choice","trial_type":"html-keyboard-response","trial_index":10,"time_elapsed":24525,"internal_node_id":"0.0-10.0","subject":"S1C1610","sona":"41856","block":4,"time":"2021-09-15T18:11:18.147Z","response":"2nd","certainty":"high","char":"L","transposition":-3,"order":["swapped","shifted"],"probe_pitches":[5,2,5,7,10,7,10,7,2,10,12,5,7,12,14,2],"shifted_pitches":[5,2,5,7,10,7,10,7,1,10,12,5,7,12,14,2],"swapped_pitches":[5,2,5,7,10,7,10,2,7,10,12,5,7,12,14,2],"shift_direction":-1,"question_num":1,"has_decoy":false},{"rt":1722.3999999994412,"stimulus":"[A] option 1, [L] option 2, [G] neither","key_press":71,"name":"choice","trial_type":"html-keyboard-response","trial_index":21,"time_elapsed":48823,"internal_node_id":"0.0-21.0","subject":"S1C1610","sona":"41856","block":4,"time":"2021-09-15T18:11:18.147Z","response":"neither","certainty":"high","char":"G","transposition":0,"order":["shifted","swapped"],"probe_pitches":[5,10,5,2,10,5,14,5,12,14,10,2,7,14,5,14],"shifted_pitches":[5,10,5,2,10,5,14,4,12,14,10,2,7,14,5,14],"swapped_pitches":[5,10,5,2,10,5,14,12,5,14,10,2,7,14,5,14],"shift_direction":-1,"question_num":11,"has_decoy":false},{"rt":2799.9000000003725,"stimulus":"[A] option 1, [L] option 2, [G] neither","key_press":71,"name":"choice","trial_type":"html-keyboard-response","trial_index":32,"time_elapsed":74145,"internal_node_id":"0.0-32.0","subject":"S1C1610","sona":"41856","block":4,"time":"2021-09-15T18:11:18.147Z","response":"neither","certainty":"high","char":"G","transposition":-1,"order":["shifted","swapped"],"probe_pitches":[4,2,4,12,4,2,7,2,4,9,7,12,4,9,4,2],"shifted_pitches":[4,2,4,12,4,2,7,2,5,9,7,12,4,9,4,2],"swapped_pitches":[4,2,4,12,4,2,7,4,2,9,7,12,4,9,4,2],"shift_direction":1,"question_num":21,"has_decoy":false},{"rt":1413.7999999998137,"stimulus":"[A] option 1, [L] option 2, [G] neither","key_press":71,"name":"choice","trial_type":"html-keyboard-response","trial_index":43,"time_elapsed":101090,"internal_node_id":"0.0-43.0","subject":"S1C1610","sona":"41856","block":4,"time":"2021-09-15T18:11:18.147Z","response":"neither","certainty":"high","char":"G","transposition":-2,"order":["swapped","shifted"],"probe_pitches":[-1,1,-2,-1,0,7,5,7,-1,10,4,7,0,2,0,-2],"shifted_pitches":[-1,1,-2,-1,0,7,5,6,-1,10,4,7,0,2,0,-2],"swapped_pitches":[-1,1,-2,-1,0,7,5,-1,7,10,4,7,0,2,0,-2],"shift_direction":-1,"question_num":31,"has_decoy":false},{"rt":3273.4000000003725,"stimulus":"[A] option 1, [L] option 2, [G] neither","key_press":71,"name":"choice","trial_type":"html-keyboard-response","trial_index":54,"time_elapsed":127154,"internal_node_id":"0.0-54.0","subject":"S1C1610","sona":"41856","block":4,"time":"2021-09-15T18:11:18.147Z","response":"neither","certainty":"high","char":"G","transposition":-1,"order":["shifted","swapped"],"probe_pitches":[-1,-2,1,7,10,9,10,2,4,-1,-2,10,1,9,10,4],"shifted_pitches":[-1,-2,1,7,10,9,10,2,3,-1,-2,10,1,9,10,4],"swapped_pitches":[-1,-2,1,7,10,9,10,4,2,-1,-2,10,1,9,10,4],"shift_direction":-1,"question_num":41,"has_decoy":false},{"rt":2889.2000000001863,"stimulus":"[A] option 1, [L] option 2, [G] neither","key_press":71,"name":"choice","trial_type":"html-keyboard-response","trial_index":65,"time_elapsed":153495,"internal_node_id":"0.0-65.0","subject":"S1C1610","sona":"41856","block":4,"time":"2021-09-15T18:11:18.147Z","response":"neither","certainty":"high","char":"G","transposition":3,"order":["shifted","swapped"],"probe_pitches":[4,7,2,4,-1,9,10,2,0,5,2,5,3,4,2,3],"shifted_pitches":[4,7,2,4,-1,9,10,2,1,5,2,5,3,4,2,3],"swapped_pitches":[4,7,2,4,-1,9,10,0,2,5,2,5,3,4,2,3],"shift_direction":1,"question_num":51,"has_decoy":false},{"rt":1369.8999999994412,"stimulus":"[A] option 1, [L] option 2, [G] neither","key_press":76,"name":"choice","trial_type":"html-keyboard-response","trial_index":76,"time_elapsed":177278,"internal_node_id":"0.0-76.0","subject":"S1C1610","sona":"41856","block":4,"time":"2021-09-15T18:11:18.147Z","response":"2nd","certainty":"high","char":"L","transposition":-1,"order":["shifted","swapped"],"probe_pitches":[9,4,6,4,2,6,11,9,6,4,11,6,11,4,9,11],"shifted_pitches":[9,4,6,4,2,6,11,10,6,4,11,6,11,4,9,11],"swapped_pitches":[9,4,6,4,2,6,11,6,9,4,11,6,11,4,9,11],"shift_direction":1,"question_num":61,"has_decoy":false},{"rt":2571,"stimulus":"[A] option 1, [L] option 2, [G] neither","key_press":71,"name":"choice","trial_type":"html-keyboard-response","trial_index":87,"time_elapsed":202240,"internal_node_id":"0.0-87.0","subject":"S1C1610","sona":"41856","block":4,"time":"2021-09-15T18:11:18.147Z","response":"neither","certainty":"high","char":"G","transposition":0,"order":["swapped","shifted"],"probe_pitches":[4,-2,5,4,10,2,-1,7,1,3,-1,6,4,-2,7,-2],"shifted_pitches":[4,-2,5,4,10,2,-1,8,1,3,-1,6,4,-2,7,-2],"swapped_pitches":[4,-2,5,4,10,2,-1,1,7,3,-1,6,4,-2,7,-2],"shift_direction":1,"question_num":71,"has_decoy":false},{"rt":2262.7999999998137,"stimulus":"[A] option 1, [L] option 2, [G] neither","key_press":65,"name":"choice","trial_type":"html-keyboard-response","trial_index":98,"time_elapsed":226957,"internal_node_id":"0.0-98.0","subject":"S1C1610","sona":"41856","block":4,"time":"2021-09-15T18:11:18.147Z","response":"1st","certainty":"high","char":"A","transposition":-1,"order":["shifted","swapped"],"probe_pitches":[4,-2,3,6,2,6,10,8,-1,6,3,-2,9,5,9,-2],"shifted_pitches":[4,-2,3,6,2,6,10,7,-1,6,3,-2,9,5,9,-2],"swapped_pitches":[4,-2,3,6,2,6,10,-1,8,6,3,-2,9,5,9,-2],"shift_direction":-1,"question_num":81,"has_decoy":false},{"rt":1034.7999999998137,"stimulus":"[A] option 1, [L] option 2, [G] neither","key_press":71,"name":"choice","trial_type":"html-keyboard-response","trial_index":109,"time_elapsed":250353,"internal_node_id":"0.0-109.0","subject":"S1C1610","sona":"41856","block":4,"time":"2021-09-15T18:11:18.147Z","response":"neither","certainty":"high","char":"G","transposition":3,"order":["swapped","shifted"],"probe_pitches":[5,2,9,12,14,7,2,7,5,14,5,9,14,12,9,2],"shifted_pitches":[5,2,9,12,14,7,2,6,5,14,5,9,14,12,9,2],"swapped_pitches":[5,2,9,12,14,7,2,5,7,14,5,9,14,12,9,2],"shift_direction":-1,"question_num":91,"has_decoy":false},{"rt":3099.4000000003725,"stimulus":"[A] option 1, [L] option 2, [G] neither","key_press":71,"name":"choice","trial_type":"html-keyboard-response","trial_index":120,"time_elapsed":275965,"internal_node_id":"0.0-120.0","subject":"S1C1610","sona":"41856","block":4,"time":"2021-09-15T18:11:18.147Z","response":"neither","certainty":"high","char":"G","transposition":-2,"order":["shifted","swapped"],"probe_pitches":[6,9,10,3,2,9,2,1,6,8,0,9,-2,1,4,7],"shifted_pitches":[6,9,10,3,2,9,2,1,5,8,0,9,-2,1,4,7],"swapped_pitches":[6,9,10,3,2,9,2,6,1,8,0,9,-2,1,4,7],"shift_direction":-1,"question_num":101,"has_decoy":false},{"rt":3607.7999999998137,"stimulus":"[A] option 1, [L] option 2, [G] neither","key_press":71,"name":"choice","trial_type":"html-keyboard-response","trial_index":131,"time_elapsed":302154,"internal_node_id":"0.0-131.0","subject":"S1C1610","sona":"41856","block":4,"time":"2021-09-15T18:11:18.147Z","response":"neither","certainty":"high","char":"G","transposition":1,"order":["swapped","shifted"],"probe_pitches":[9,7,4,2,9,2,9,2,14,4,2,4,7,14,4,11],"shifted_pitches":[9,7,4,2,9,2,9,1,14,4,2,4,7,14,4,11],"swapped_pitches":[9,7,4,2,9,2,9,14,2,4,2,4,7,14,4,11],"shift_direction":-1,"question_num":111,"has_decoy":false},{"rt":1957.6000000005588,"stimulus":"[A] option 1, [L] option 2, [G] neither","key_press":71,"name":"choice","trial_type":"html-keyboard-response","trial_index":142,"time_elapsed":326596,"internal_node_id":"0.0-142.0","subject":"S1C1610","sona":"41856","block":4,"time":"2021-09-15T18:11:18.147Z","response":"neither","certainty":"high","char":"G","transposition":1,"order":["swapped","shifted"],"probe_pitches":[7,9,8,2,8,10,6,5,-1,9,3,-2,3,5,9,3],"shifted_pitches":[7,9,8,2,8,10,6,5,0,9,3,-2,3,5,9,3],"swapped_pitches":[7,9,8,2,8,10,6,-1,5,9,3,-2,3,5,9,3],"shift_direction":1,"question_num":121,"has_decoy":false},{"rt":2454.0999999996275,"stimulus":"[A] option 1, [L] option 2, [G] neither","key_press":65,"name":"choice","trial_type":"html-keyboard-response","trial_index":153,"time_elapsed":351445,"internal_node_id":"0.0-153.0","subject":"S1C1610","sona":"41856","block":4,"time":"2021-09-15T18:11:18.147Z","response":"1st","certainty":"high","char":"A","transposition":-3,"order":["shifted","swapped"],"probe_pitches":[6,1,-2,1,7,-2,4,8,3,-1,4,8,1,3,7,0],"shifted_pitches":[6,1,-2,1,7,-2,4,9,3,-1,4,8,1,3,7,0],"swapped_pitches":[6,1,-2,1,7,-2,4,3,8,-1,4,8,1,3,7,0],"shift_direction":1,"question_num":131,"has_decoy":false},{"rt":2241.0999999996275,"stimulus":"[A] option 1, [L] option 2, [G] neither","key_press":71,"name":"choice","trial_type":"html-keyboard-response","trial_index":164,"time_elapsed":376083,"internal_node_id":"0.0-164.0","subject":"S1C1610","sona":"41856","block":4,"time":"2021-09-15T18:11:18.147Z","response":"neither","certainty":"high","char":"G","transposition":2,"order":["swapped","shifted"],"probe_pitches":[14,11,6,2,6,11,4,9,11,14,4,14,6,9,2,4],"shifted_pitches":[14,11,6,2,6,11,4,9,10,14,4,14,6,9,2,4],"swapped_pitches":[14,11,6,2,6,11,4,11,9,14,4,14,6,9,2,4],"shift_direction":-1,"question_num":141,"has_decoy":false},{"rt":1526.0999999996275,"stimulus":"[A] option 1, [L] option 2, [G] neither","key_press":76,"name":"choice","trial_type":"html-keyboard-response","trial_index":175,"time_elapsed":401121,"internal_node_id":"0.0-175.0","subject":"S1C1610","sona":"41856","block":4,"time":"2021-09-15T18:11:18.147Z","response":"2nd","certainty":"high","char":"L","transposition":-3,"order":["swapped","shifted"],"probe_pitches":[8,6,1,-1,-2,4,9,1,-2,3,10,7,1,7,1,-1],"shifted_pitches":[8,6,1,-1,-2,4,9,2,-2,3,10,7,1,7,1,-1],"swapped_pitches":[8,6,1,-1,-2,4,9,-2,1,3,10,7,1,7,1,-1],"shift_direction":1,"question_num":151,"has_decoy":false},{"rt":1071.199999999255,"stimulus":"[A] option 1, [L] option 2, [G] neither","key_press":76,"name":"choice","trial_type":"html-keyboard-response","trial_index":186,"time_elapsed":424779,"internal_node_id":"0.0-186.0","subject":"S1C1610","sona":"41856","block":4,"time":"2021-09-15T18:11:18.147Z","response":"2nd","certainty":"high","char":"L","transposition":2,"order":["swapped","shifted"],"probe_pitches":[7,2,-1,0,2,-2,0,7,5,1,-1,9,3,5,6,10],"shifted_pitches":[7,2,-1,0,2,-2,0,7,4,1,-1,9,3,5,6,10],"swapped_pitches":[7,2,-1,0,2,-2,0,5,7,1,-1,9,3,5,6,10],"shift_direction":-1,"question_num":161,"has_decoy":false},{"rt":1341.5,"stimulus":"[A] option 1, [L] option 2, [G] neither","key_press":71,"name":"choice","trial_type":"html-keyboard-response","trial_index":197,"time_elapsed":448677,"internal_node_id":"0.0-197.0","subject":"S1C1610","sona":"41856","block":4,"time":"2021-09-15T18:11:18.147Z","response":"neither","certainty":"high","char":"G","transposition":-3,"order":["shifted","swapped"],"probe_pitches":[4,9,14,7,11,14,9,4,7,14,9,14,7,14,7,4],"shifted_pitches":[4,9,14,7,11,14,9,5,7,14,9,14,7,14,7,4],"swapped_pitches":[4,9,14,7,11,14,9,7,4,14,9,14,7,14,7,4],"shift_direction":1,"question_num":171,"has_decoy":false},{"rt":2094.2999999998137,"stimulus":"[A] option 1, [L] option 2, [G] neither","key_press":71,"name":"choice","trial_type":"html-keyboard-response","trial_index":208,"time_elapsed":473169,"internal_node_id":"0.0-208.0","subject":"S1C1610","sona":"41856","block":4,"time":"2021-09-15T18:11:18.147Z","response":"neither","certainty":"high","char":"G","transposition":-2,"order":["swapped","shifted"],"probe_pitches":[12,9,4,2,4,2,4,2,12,7,14,12,2,7,2,4],"shifted_pitches":[12,9,4,2,4,2,4,2,13,7,14,12,2,7,2,4],"swapped_pitches":[12,9,4,2,4,2,4,12,2,7,14,12,2,7,2,4],"shift_direction":1,"question_num":181,"has_decoy":false},{"rt":986.5999999996275,"stimulus":"[A] option 1, [L] option 2, [G] neither","key_press":76,"name":"choice","trial_type":"html-keyboard-response","trial_index":219,"time_elapsed":496659,"internal_node_id":"0.0-219.0","subject":"S1C1610","sona":"41856","block":4,"time":"2021-09-15T18:11:18.147Z","response":"2nd","certainty":"high","char":"L","transposition":-2,"order":["shifted","swapped"],"probe_pitches":[7,2,7,9,7,12,2,9,14,2,14,2,5,7,9,12],"shifted_pitches":[7,2,7,9,7,12,2,9,15,2,14,2,5,7,9,12],"swapped_pitches":[7,2,7,9,7,12,2,14,9,2,14,2,5,7,9,12],"shift_direction":1,"question_num":191,"has_decoy":false}]