[{"rt":1803.2000000001863,"stimulus":"[A] option 1, [L] option 2, [G] neither","key_press":76,"name":"choice","trial_type":"html-keyboard-response","trial_index":10,"time_elapsed":29632,"internal_node_id":"0.0-10.0","subject":"S1C1610","sona":"41856","block":2,"time":"2021-09-15T17:51:18.939Z","response":"2nd","certainty":"high","char":"L","transposition":-3,"order":["shifted","swapped"],"probe_pitches":[9,7,5,0,8,-2,9,2,-2,5,1,-1,0,-1,1,-2],"shifted_pitches":[9,7,5,0,8,-2,9,3,-2,5,1,-1,0,-1,1,-2],"swapped_pitches":[9,7,5,0,8,-2,9,-2,2,5,1,-1,0,-1,1,-2],"shift_direction":1,"question_num":1,"has_decoy":false},{"rt":2047.9000000003725,"stimulus":"[A] option 1, [L] option 2, [G] neither","key_press":76,"name":"choice","trial_type":"html-keyboard-response","trial_index":21,"time_elapsed":54736,"internal_node_id":"0.0-21.0","subject":"S1C1610","sona":"41856","block":2,"time":"2021-09-15T17:51:18.939Z","response":"2nd","certainty":"high","char":"L","transposition":-1,"order":["swapped","shifted"],"probe_pitches":[8,9,2,8,3,9,1,-2,5,3,7,8,2,-2,-3,5],"shifted_pitches":[8,9,2,8,3,9,1,-2,6,3,7,8,2,-2,-3,5],"swapped_pitches":[8,9,2,8,3,9,1,5,-2,3,7,8,2,-2,-3,5],"shift_direction":1,"question_num":11,"has_decoy":false},{"rt":3972.7000000001863,"stimulus":"[A] option 1, [L] option 2, [G] neither","key_press":71,"name":"choice","trial_type":"html-keyboard-response","trial_index":32,"time_elapsed":82155,"internal_node_id":"0.0-32.0","subject":"S1C1610","sona":"41856","block":2,"time":"2021-09-15T17:51:18.939Z","response":"neither","certainty":"high","char":"G","transposition":0,"order":["swapped","shifted"],"probe_pitches":[6,1,3,10,3,6,10,6,8,3,8,10,6,8,6,10],"shifted_pitches":[6,1,3,10,3,6,10,5,8,3,8,10,6,8,6,10],"swapped_pitches":[6,1,3,10,3,6,10,8,6,3,8,10,6,8,6,10],"shift_direction":-1,"question_num":21,"has_decoy":false},{"rt":1664.0999999996275,"stimulus":"[A] option 1, [L] option 2, [G] neither","key_press":65,"name":"choice","trial_type":"html-keyboard-response","trial_index":43,"time_elapsed":106908,"internal_node_id":"0.0-43.0","subject":"S1C1610","sona":"41856","block":2,"time":"2021-09-15T17:51:18.939Z","response":"1st","certainty":"high","char":"A","transposition":3,"order":["shifted","swapped"],"probe_pitches":[13,9,4,9,13,4,6,1,11,4,11,6,13,9,13,6],"shifted_pitches":[13,9,4,9,13,4,6,2,11,4,11,6,13,9,13,6],"swapped_pitches":[13,9,4,9,13,4,6,11,1,4,11,6,13,9,13,6],"shift_direction":1,"question_num":31,"has_decoy":false},{"rt":2309.5,"stimulus":"[A] option 1, [L] option 2, [G] neither","key_press":76,"name":"choice","trial_type":"html-keyboard-response","trial_index":54,"time_elapsed":132296,"internal_node_id":"0.0-54.0","subject":"S1C1610","sona":"41856","block":2,"time":"2021-09-15T17:51:18.939Z","response":"2nd","certainty":"high","char":"L","transposition":-2,"order":["swapped","shifted"],"probe_pitches":[7,1,-3,2,5,7,-3,5,0,7,5,7,5,9,8,3],"shifted_pitches":[7,1,-3,2,5,7,-3,5,-1,7,5,7,5,9,8,3],"swapped_pitches":[7,1,-3,2,5,7,-3,0,5,7,5,7,5,9,8,3],"shift_direction":-1,"question_num":41,"has_decoy":false},{"rt":2211.5,"stimulus":"[A] option 1, [L] option 2, [G] neither","key_press":76,"name":"choice","trial_type":"html-keyboard-response","trial_index":65,"time_elapsed":157000,"internal_node_id":"0.0-65.0","subject":"S1C1610","sona":"41856","block":2,"time":"2021-09-15T17:51:18.939Z","response":"2nd","certainty":"high","char":"L","transposition":-1,"order":["swapped","shifted"],"probe_pitches":[8,13,11,6,11,3,6,1,11,3,11,8,6,8,13,3],"shifted_pitches":[8,13,11,6,11,3,6,1,10,3,11,8,6,8,13,3],"swapped_pitches":[8,13,11,6,11,3,6,11,1,3,11,8,6,8,13,3],"shift_direction":-1,"question_num":51,"has_decoy":false},{"rt":565.9000000003725,"stimulus":"[A] option 1, [L] option 2, [G] neither","key_press":65,"name":"choice","trial_type":"html-keyboard-response","trial_index":76,"time_elapsed":179972,"internal_node_id":"0.0-76.0","subject":"S1C1610","sona":"41856","block":2,"time":"2021-09-15T17:51:18.939Z","response":"1st","certainty":"high","char":"A","transposition":-1,"order":["swapped","shifted"],"probe_pitches":[1,4,11,4,9,6,13,9,4,11,9,13,4,11,9,1],"shifted_pitches":[1,4,11,4,9,6,13,9,3,11,9,13,4,11,9,1],"swapped_pitches":[1,4,11,4,9,6,13,4,9,11,9,13,4,11,9,1],"shift_direction":-1,"question_num":61,"has_decoy":false},{"rt":709.0999999996275,"stimulus":"[A] option 1, [L] option 2, [G] neither","key_press":76,"name":"choice","trial_type":"html-keyboard-response","trial_index":87,"time_elapsed":203103,"internal_node_id":"0.0-87.0","subject":"S1C1610","sona":"41856","block":2,"time":"2021-09-15T17:51:18.939Z","response":"2nd","certainty":"high","char":"L","transposition":2,"order":["shifted","swapped"],"probe_pitches":[-3,-1,0,-1,0,7,1,4,0,3,4,0,6,-1,-3,1],"shifted_pitches":[-3,-1,0,-1,0,7,1,5,0,3,4,0,6,-1,-3,1],"swapped_pitches":[-3,-1,0,-1,0,7,1,0,4,3,4,0,6,-1,-3,1],"shift_direction":1,"question_num":71,"has_decoy":false},{"rt":716.7000000001863,"stimulus":"[A] option 1, [L] option 2, [G] neither","key_press":71,"name":"choice","trial_type":"html-keyboard-response","trial_index":98,"time_elapsed":229154,"internal_node_id":"0.0-98.0","subject":"S1C1610","sona":"41856","block":2,"time":"2021-09-15T17:51:18.939Z","response":"neither","certainty":"high","char":"G","transposition":-2,"order":["swapped","shifted"],"probe_pitches":[10,8,13,8,13,10,1,10,8,5,10,3,1,5,10,3],"shifted_pitches":[10,8,13,8,13,10,1,11,8,5,10,3,1,5,10,3],"swapped_pitches":[10,8,13,8,13,10,1,8,10,5,10,3,1,5,10,3],"shift_direction":1,"question_num":81,"has_decoy":false},{"rt":1631.8999999994412,"stimulus":"[A] option 1, [L] option 2, [G] neither","key_press":71,"name":"choice","trial_type":"html-keyboard-response","trial_index":109,"time_elapsed":254166,"internal_node_id":"0.0-109.0","subject":"S1C1610","sona":"41856","block":2,"time":"2021-09-15T17:51:18.939Z","response":"neither","certainty":"high","char":"G","transposition":-2,"order":["shifted","swapped"],"probe_pitches":[11,6,8,13,6,8,4,6,8,4,11,8,6,4,13,1],"shifted_pitches":[11,6,8,13,6,8,4,7,8,4,11,8,6,4,13,1],"swapped_pitches":[11,6,8,13,6,8,4,8,6,4,11,8,6,4,13,1],"shift_direction":1,"question_num":91,"has_decoy":false},{"rt":2520,"stimulus":"[A] option 1, [L] option 2, [G] neither","key_press":76,"name":"choice","trial_type":"html-keyboard-response","trial_index":120,"time_elapsed":279364,"internal_node_id":"0.0-120.0","subject":"S1C1610","sona":"41856","block":2,"time":"2021-09-15T17:51:18.939Z","response":"2nd","certainty":"high","char":"L","transposition":0,"order":["swapped","shifted"],"probe_pitches":[-3,1,-1,7,4,-3,2,6,-1,3,-1,-3,8,6,-3,6],"shifted_pitches":[-3,1,-1,7,4,-3,2,6,0,3,-1,-3,8,6,-3,6],"swapped_pitches":[-3,1,-1,7,4,-3,2,-1,6,3,-1,-3,8,6,-3,6],"shift_direction":1,"question_num":101,"has_decoy":false},{"rt":2408.4000000003725,"stimulus":"[A] option 1, [L] option 2, [G] neither","key_press":71,"name":"choice","trial_type":"html-keyboard-response","trial_index":131,"time_elapsed":304262,"internal_node_id":"0.0-131.0","subject":"S1C1610","sona":"41856","block":2,"time":"2021-09-15T17:51:18.939Z","response":"neither","certainty":"high","char":"G","transposition":2,"order":["shifted","swapped"],"probe_pitches":[4,6,11,4,6,13,6,8,1,4,13,6,11,4,11,1],"shifted_pitches":[4,6,11,4,6,13,6,8,2,4,13,6,11,4,11,1],"swapped_pitches":[4,6,11,4,6,13,6,1,8,4,13,6,11,4,11,1],"shift_direction":1,"question_num":111,"has_decoy":false},{"rt":1268.7999999998137,"stimulus":"[A] option 1, [L] option 2, [G] neither","key_press":76,"name":"choice","trial_type":"html-keyboard-response","trial_index":142,"time_elapsed":329362,"internal_node_id":"0.0-142.0","subject":"S1C1610","sona":"41856","block":2,"time":"2021-09-15T17:51:18.939Z","response":"2nd","certainty":"high","char":"L","transposition":1,"order":["shifted","swapped"],"probe_pitches":[-2,4,6,-2,-1,0,8,3,1,6,7,9,-2,6,0,7],"shifted_pitches":[-2,4,6,-2,-1,0,8,2,1,6,7,9,-2,6,0,7],"swapped_pitches":[-2,4,6,-2,-1,0,8,1,3,6,7,9,-2,6,0,7],"shift_direction":-1,"question_num":121,"has_decoy":false},{"rt":1695.7000000001863,"stimulus":"[A] option 1, [L] option 2, [G] neither","key_press":71,"name":"choice","trial_type":"html-keyboard-response","trial_index":153,"time_elapsed":357593,"internal_node_id":"0.0-153.0","subject":"S1C1610","sona":"41856","block":2,"time":"2021-09-15T17:51:18.939Z","response":"neither","certainty":"high","char":"G","transposition":-3,"order":["shifted","swapped"],"probe_pitches":[3,8,7,6,2,0,7,6,2,0,-2,-3,5,-2,5,8],"shifted_pitches":[3,8,7,6,2,0,7,6,1,0,-2,-3,5,-2,5,8],"swapped_pitches":[3,8,7,6,2,0,7,2,6,0,-2,-3,5,-2,5,8],"shift_direction":-1,"question_num":131,"has_decoy":false},{"rt":3530.4000000003725,"stimulus":"[A] option 1, [L] option 2, [G] neither","key_press":71,"name":"choice","trial_type":"html-keyboard-response","trial_index":164,"time_elapsed":388826,"internal_node_id":"0.0-164.0","subject":"S1C1610","sona":"41856","block":2,"time":"2021-09-15T17:51:18.939Z","response":"neither","certainty":"high","char":"G","transposition":-2,"order":["shifted","swapped"],"probe_pitches":[4,9,4,1,2,1,6,8,-2,4,6,-1,-3,0,5,8],"shifted_pitches":[4,9,4,1,2,1,6,7,-2,4,6,-1,-3,0,5,8],"swapped_pitches":[4,9,4,1,2,1,6,-2,8,4,6,-1,-3,0,5,8],"shift_direction":-1,"question_num":141,"has_decoy":false},{"rt":1256.2999999998137,"stimulus":"[A] option 1, [L] option 2, [G] neither","key_press":65,"name":"choice","trial_type":"html-keyboard-response","trial_index":175,"time_elapsed":413235,"internal_node_id":"0.0-175.0","subject":"S1C1610","sona":"41856","block":2,"time":"2021-09-15T17:51:18.939Z","response":"1st","certainty":"high","char":"A","transposition":-1,"order":["swapped","shifted"],"probe_pitches":[4,3,7,9,2,7,-2,2,-3,-2,-1,0,7,9,-3,3],"shifted_pitches":[4,3,7,9,2,7,-2,2,-4,-2,-1,0,7,9,-3,3],"swapped_pitches":[4,3,7,9,2,7,-2,-3,2,-2,-1,0,7,9,-3,3],"shift_direction":-1,"question_num":151,"has_decoy":false},{"rt":2026.5,"stimulus":"[A] option 1, [L] option 2, [G] neither","key_press":76,"name":"choice","trial_type":"html-keyboard-response","trial_index":186,"time_elapsed":437617,"internal_node_id":"0.0-186.0","subject":"S1C1610","sona":"41856","block":2,"time":"2021-09-15T17:51:18.939Z","response":"2nd","certainty":"high","char":"L","transposition":3,"order":["swapped","shifted"],"probe_pitches":[0,6,8,9,2,7,2,3,7,5,1,0,-3,6,-2,5],"shifted_pitches":[0,6,8,9,2,7,2,4,7,5,1,0,-3,6,-2,5],"swapped_pitches":[0,6,8,9,2,7,2,7,3,5,1,0,-3,6,-2,5],"shift_direction":1,"question_num":161,"has_decoy":false},{"rt":1837.199999999255,"stimulus":"[A] option 1, [L] option 2, [G] neither","key_press":71,"name":"choice","trial_type":"html-keyboard-response","trial_index":197,"time_elapsed":462617,"internal_node_id":"0.0-197.0","subject":"S1C1610","sona":"41856","block":2,"time":"2021-09-15T17:51:18.939Z","response":"neither","certainty":"high","char":"G","transposition":1,"order":["shifted","swapped"],"probe_pitches":[8,3,6,8,3,13,6,3,1,10,3,13,10,3,8,10],"shifted_pitches":[8,3,6,8,3,13,6,2,1,10,3,13,10,3,8,10],"swapped_pitches":[8,3,6,8,3,13,6,1,3,10,3,13,10,3,8,10],"shift_direction":-1,"question_num":171,"has_decoy":false},{"rt":2075.600000000559,"stimulus":"[A] option 1, [L] option 2, [G] neither","key_press":71,"name":"choice","trial_type":"html-keyboard-response","trial_index":208,"time_elapsed":487166,"internal_node_id":"0.0-208.0","subject":"S1C1610","sona":"41856","block":2,"time":"2021-09-15T17:51:18.939Z","response":"neither","certainty":"high","char":"G","transposition":-3,"order":["shifted","swapped"],"probe_pitches":[10,13,8,3,8,13,10,8,5,10,13,1,5,13,3,1],"shifted_pitches":[10,13,8,3,8,13,10,8,6,10,13,1,5,13,3,1],"swapped_pitches":[10,13,8,3,8,13,10,5,8,10,13,1,5,13,3,1],"shift_direction":1,"question_num":181,"has_decoy":false},{"rt":421.40000000037253,"stimulus":"[A] option 1, [L] option 2, [G] neither","key_press":71,"name":"choice","trial_type":"html-keyboard-response","trial_index":219,"time_elapsed":510174,"internal_node_id":"0.0-219.0","subject":"S1C1610","sona":"41856","block":2,"time":"2021-09-15T17:51:18.939Z","response":"neither","certainty":"high","char":"G","transposition":-3,"order":["swapped","shifted"],"probe_pitches":[11,6,11,6,8,13,3,13,1,11,3,1,11,6,11,3],"shifted_pitches":[11,6,11,6,8,13,3,13,0,11,3,1,11,6,11,3],"swapped_pitches":[11,6,11,6,8,13,3,1,13,11,3,1,11,6,11,3],"shift_direction":-1,"question_num":191,"has_decoy":false}]