[{"rt":5195.0999999996275,"stimulus":"[A] option 1, [L] option 2, [G] neither","key_press":71,"name":"choice","trial_type":"html-keyboard-response","trial_index":10,"time_elapsed":31386,"internal_node_id":"0.0-10.0","subject":"S1C1610","sona":"41856","block":5,"time":"2021-09-15T18:20:27.883Z","response":"neither","certainty":"high","char":"G","transposition":1,"order":["swapped","shifted"],"probe_pitches":[3,6,1,3,1,10,1,10,8,6,1,8,13,1,8,6],"shifted_pitches":[3,6,1,3,1,10,1,10,9,6,1,8,13,1,8,6],"swapped_pitches":[3,6,1,3,1,10,1,8,10,6,1,8,13,1,8,6],"shift_direction":1,"question_num":1,"has_decoy":false},{"rt":1481.5999999996275,"stimulus":"[A] option 1, [L] option 2, [G] neither","key_press":71,"name":"choice","trial_type":"html-keyboard-response","trial_index":21,"time_elapsed":55353,"internal_node_id":"0.0-21.0","subject":"S1C1610","sona":"41856","block":5,"time":"2021-09-15T18:20:27.883Z","response":"neither","certainty":"high","char":"G","transposition":-1,"order":["shifted","swapped"],"probe_pitches":[1,0,6,10,7,8,6,3,-2,9,5,3,-1,4,3,8],"shifted_pitches":[1,0,6,10,7,8,6,2,-2,9,5,3,-1,4,3,8],"swapped_pitches":[1,0,6,10,7,8,6,-2,3,9,5,3,-1,4,3,8],"shift_direction":-1,"question_num":11,"has_decoy":false},{"rt":2447.7000000001863,"stimulus":"[A] option 1, [L] option 2, [G] neither","key_press":71,"name":"choice","trial_type":"html-keyboard-response","trial_index":32,"time_elapsed":80165,"internal_node_id":"0.0-32.0","subject":"S1C1610","sona":"41856","block":5,"time":"2021-09-15T18:20:27.883Z","response":"neither","certainty":"high","char":"G","transposition":0,"order":["shifted","swapped"],"probe_pitches":[1,6,8,11,6,3,13,1,6,3,13,6,11,1,13,8],"shifted_pitches":[1,6,8,11,6,3,13,0,6,3,13,6,11,1,13,8],"swapped_pitches":[1,6,8,11,6,3,13,6,1,3,13,6,11,1,13,8],"shift_direction":-1,"question_num":21,"has_decoy":false},{"rt":2690.600000000559,"stimulus":"[A] option 1, [L] option 2, [G] neither","key_press":71,"name":"choice","trial_type":"html-keyboard-response","trial_index":43,"time_elapsed":109529,"internal_node_id":"0.0-43.0","subject":"S1C1610","sona":"41856","block":5,"time":"2021-09-15T18:20:27.883Z","response":"neither","certainty":"high","char":"G","transposition":-2,"order":["swapped","shifted"],"probe_pitches":[11,13,8,11,3,6,3,13,11,3,13,3,1,6,8,1],"shifted_pitches":[11,13,8,11,3,6,3,13,10,3,13,3,1,6,8,1],"swapped_pitches":[11,13,8,11,3,6,3,11,13,3,13,3,1,6,8,1],"shift_direction":-1,"question_num":31,"has_decoy":false},{"rt":1379.9000000003725,"stimulus":"[A] option 1, [L] option 2, [G] neither","key_press":76,"name":"choice","trial_type":"html-keyboard-response","trial_index":54,"time_elapsed":133494,"internal_node_id":"0.0-54.0","subject":"S1C1610","sona":"41856","block":5,"time":"2021-09-15T18:20:27.883Z","response":"2nd","certainty":"high","char":"L","transposition":-3,"order":["shifted","swapped"],"probe_pitches":[8,9,3,1,6,1,0,8,10,3,5,-2,3,1,6,3],"shifted_pitches":[8,9,3,1,6,1,0,7,10,3,5,-2,3,1,6,3],"swapped_pitches":[8,9,3,1,6,1,0,10,8,3,5,-2,3,1,6,3],"shift_direction":-1,"question_num":41,"has_decoy":false},{"rt":3366.0999999996275,"stimulus":"[A] option 1, [L] option 2, [G] neither","key_press":71,"name":"choice","trial_type":"html-keyboard-response","trial_index":65,"time_elapsed":159379,"internal_node_id":"0.0-65.0","subject":"S1C1610","sona":"41856","block":5,"time":"2021-09-15T18:20:27.883Z","response":"neither","certainty":"high","char":"G","transposition":-2,"order":["shifted","swapped"],"probe_pitches":[6,11,8,11,13,4,1,6,8,1,8,1,4,6,11,8],"shifted_pitches":[6,11,8,11,13,4,1,6,7,1,8,1,4,6,11,8],"swapped_pitches":[6,11,8,11,13,4,1,8,6,1,8,1,4,6,11,8],"shift_direction":-1,"question_num":51,"has_decoy":false},{"rt":2051.5,"stimulus":"[A] option 1, [L] option 2, [G] neither","key_press":71,"name":"choice","trial_type":"html-keyboard-response","trial_index":76,"time_elapsed":183783,"internal_node_id":"0.0-76.0","subject":"S1C1610","sona":"41856","block":5,"time":"2021-09-15T18:20:27.883Z","response":"neither","certainty":"high","char":"G","transposition":-1,"order":["shifted","swapped"],"probe_pitches":[5,10,13,5,8,5,3,10,8,5,13,5,13,1,8,10],"shifted_pitches":[5,10,13,5,8,5,3,10,9,5,13,5,13,1,8,10],"swapped_pitches":[5,10,13,5,8,5,3,8,10,5,13,5,13,1,8,10],"shift_direction":1,"question_num":61,"has_decoy":false},{"rt":649,"stimulus":"[A] option 1, [L] option 2, [G] neither","key_press":71,"name":"choice","trial_type":"html-keyboard-response","trial_index":87,"time_elapsed":212573,"internal_node_id":"0.0-87.0","subject":"S1C1610","sona":"41856","block":5,"time":"2021-09-15T18:20:27.883Z","response":"neither","certainty":"high","char":"G","transposition":-3,"order":["shifted","swapped"],"probe_pitches":[1,6,11,4,9,11,4,6,13,11,4,9,4,1,13,9],"shifted_pitches":[1,6,11,4,9,11,4,5,13,11,4,9,4,1,13,9],"swapped_pitches":[1,6,11,4,9,11,4,13,6,11,4,9,4,1,13,9],"shift_direction":-1,"question_num":71,"has_decoy":false},{"rt":1710,"stimulus":"[A] option 1, [L] option 2, [G] neither","key_press":71,"name":"choice","trial_type":"html-keyboard-response","trial_index":98,"time_elapsed":236638,"internal_node_id":"0.0-98.0","subject":"S1C1610","sona":"41856","block":5,"time":"2021-09-15T18:20:27.883Z","response":"neither","certainty":"high","char":"G","transposition":-2,"order":["shifted","swapped"],"probe_pitches":[3,7,8,2,8,6,0,8,6,1,0,10,9,7,0,2],"shifted_pitches":[3,7,8,2,8,6,0,8,5,1,0,10,9,7,0,2],"swapped_pitches":[3,7,8,2,8,6,0,6,8,1,0,10,9,7,0,2],"shift_direction":-1,"question_num":81,"has_decoy":false},{"rt":2179,"stimulus":"[A] option 1, [L] option 2, [G] neither","key_press":71,"name":"choice","trial_type":"html-keyboard-response","trial_index":109,"time_elapsed":261278,"internal_node_id":"0.0-109.0","subject":"S1C1610","sona":"41856","block":5,"time":"2021-09-15T18:20:27.883Z","response":"neither","certainty":"high","char":"G","transposition":3,"order":["swapped","shifted"],"probe_pitches":[11,6,13,6,13,6,9,13,6,11,9,1,4,1,13,4],"shifted_pitches":[11,6,13,6,13,6,9,12,6,11,9,1,4,1,13,4],"swapped_pitches":[11,6,13,6,13,6,9,6,13,11,9,1,4,1,13,4],"shift_direction":-1,"question_num":91,"has_decoy":false},{"rt":1626.9000000003725,"stimulus":"[A] option 1, [L] option 2, [G] neither","key_press":71,"name":"choice","trial_type":"html-keyboard-response","trial_index":120,"time_elapsed":286418,"internal_node_id":"0.0-120.0","subject":"S1C1610","sona":"41856","block":5,"time":"2021-09-15T18:20:27.883Z","response":"neither","certainty":"high","char":"G","transposition":-2,"order":["swapped","shifted"],"probe_pitches":[1,3,6,3,1,9,2,3,5,-1,8,6,-1,9,8,-2],"shifted_pitches":[1,3,6,3,1,9,2,3,4,-1,8,6,-1,9,8,-2],"swapped_pitches":[1,3,6,3,1,9,2,5,3,-1,8,6,-1,9,8,-2],"shift_direction":-1,"question_num":101,"has_decoy":false},{"rt":3810.9000000003725,"stimulus":"[A] option 1, [L] option 2, [G] neither","key_press":65,"name":"choice","trial_type":"html-keyboard-response","trial_index":131,"time_elapsed":317246,"internal_node_id":"0.0-131.0","subject":"S1C1610","sona":"41856","block":5,"time":"2021-09-15T18:20:27.883Z","response":"1st","certainty":"high","char":"A","transposition":2,"order":["swapped","shifted"],"probe_pitches":[10,13,6,3,1,6,10,3,6,8,6,13,10,13,3,13],"shifted_pitches":[10,13,6,3,1,6,10,3,7,8,6,13,10,13,3,13],"swapped_pitches":[10,13,6,3,1,6,10,6,3,8,6,13,10,13,3,13],"shift_direction":1,"question_num":111,"has_decoy":false},{"rt":778.8000000007451,"stimulus":"[A] option 1, [L] option 2, [G] neither","key_press":76,"name":"choice","trial_type":"html-keyboard-response","trial_index":142,"time_elapsed":348067,"internal_node_id":"0.0-142.0","subject":"S1C1610","sona":"41856","block":5,"time":"2021-09-15T18:20:27.883Z","response":"2nd","certainty":"high","char":"L","transposition":3,"order":["swapped","shifted"],"probe_pitches":[-2,0,5,2,0,8,0,5,8,1,10,8,-1,9,0,2],"shifted_pitches":[-2,0,5,2,0,8,0,6,8,1,10,8,-1,9,0,2],"swapped_pitches":[-2,0,5,2,0,8,0,8,5,1,10,8,-1,9,0,2],"shift_direction":1,"question_num":121,"has_decoy":false},{"rt":1802.7000000001863,"stimulus":"[A] option 1, [L] option 2, [G] neither","key_press":71,"name":"choice","trial_type":"html-keyboard-response","trial_index":153,"time_elapsed":373551,"internal_node_id":"0.0-153.0","subject":"S1C1610","sona":"41856","block":5,"time":"2021-09-15T18:20:27.883Z","response":"neither","certainty":"high","char":"G","transposition":-1,"order":["swapped","shifted"],"probe_pitches":[13,11,13,6,11,8,13,6,4,11,13,11,6,8,13,11],"shifted_pitches":[13,11,13,6,11,8,13,7,4,11,13,11,6,8,13,11],"swapped_pitches":[13,11,13,6,11,8,13,4,6,11,13,11,6,8,13,11],"shift_direction":1,"question_num":131,"has_decoy":false},{"rt":3065.0999999996275,"stimulus":"[A] option 1, [L] option 2, [G] neither","key_press":76,"name":"choice","trial_type":"html-keyboard-response","trial_index":164,"time_elapsed":403145,"internal_node_id":"0.0-164.0","subject":"S1C1610","sona":"41856","block":5,"time":"2021-09-15T18:20:27.883Z","response":"2nd","certainty":"high","char":"L","transposition":1,"order":["shifted","swapped"],"probe_pitches":[3,1,3,-1,6,-1,6,9,1,3,-1,1,4,2,9,-1],"shifted_pitches":[3,1,3,-1,6,-1,6,9,0,3,-1,1,4,2,9,-1],"swapped_pitches":[3,1,3,-1,6,-1,6,1,9,3,-1,1,4,2,9,-1],"shift_direction":-1,"question_num":141,"has_decoy":false},{"rt":1070.9000000003725,"stimulus":"[A] option 1, [L] option 2, [G] neither","key_press":76,"name":"choice","trial_type":"html-keyboard-response","trial_index":175,"time_elapsed":426506,"internal_node_id":"0.0-175.0","subject":"S1C1610","sona":"41856","block":5,"time":"2021-09-15T18:20:27.883Z","response":"2nd","certainty":"high","char":"L","transposition":0,"order":["shifted","swapped"],"probe_pitches":[5,8,4,10,1,0,6,8,1,2,10,7,-2,0,-1,7],"shifted_pitches":[5,8,4,10,1,0,6,9,1,2,10,7,-2,0,-1,7],"swapped_pitches":[5,8,4,10,1,0,6,1,8,2,10,7,-2,0,-1,7],"shift_direction":1,"question_num":151,"has_decoy":false},{"rt":1783.7999999998137,"stimulus":"[A] option 1, [L] option 2, [G] neither","key_press":71,"name":"choice","trial_type":"html-keyboard-response","trial_index":186,"time_elapsed":451049,"internal_node_id":"0.0-186.0","subject":"S1C1610","sona":"41856","block":5,"time":"2021-09-15T18:20:27.883Z","response":"neither","certainty":"high","char":"G","transposition":-3,"order":["swapped","shifted"],"probe_pitches":[2,-2,-1,0,7,2,-1,2,10,7,10,7,10,2,8,5],"shifted_pitches":[2,-2,-1,0,7,2,-1,3,10,7,10,7,10,2,8,5],"swapped_pitches":[2,-2,-1,0,7,2,-1,10,2,7,10,7,10,2,8,5],"shift_direction":1,"question_num":161,"has_decoy":false},{"rt":1151.4000000003725,"stimulus":"[A] option 1, [L] option 2, [G] neither","key_press":71,"name":"choice","trial_type":"html-keyboard-response","trial_index":197,"time_elapsed":476492,"internal_node_id":"0.0-197.0","subject":"S1C1610","sona":"41856","block":5,"time":"2021-09-15T18:20:27.883Z","response":"neither","certainty":"high","char":"G","transposition":-1,"order":["swapped","shifted"],"probe_pitches":[10,7,3,7,10,7,3,-2,7,2,9,5,7,1,2,3],"shifted_pitches":[10,7,3,7,10,7,3,-2,8,2,9,5,7,1,2,3],"swapped_pitches":[10,7,3,7,10,7,3,7,-2,2,9,5,7,1,2,3],"shift_direction":1,"question_num":171,"has_decoy":false},{"rt":981.1000000005588,"stimulus":"[A] option 1, [L] option 2, [G] neither","key_press":76,"name":"choice","trial_type":"html-keyboard-response","trial_index":208,"time_elapsed":502461,"internal_node_id":"0.0-208.0","subject":"S1C1610","sona":"41856","block":5,"time":"2021-09-15T18:20:27.883Z","response":"2nd","certainty":"high","char":"L","transposition":2,"order":["swapped","shifted"],"probe_pitches":[6,4,8,4,-1,2,-1,-2,0,4,7,2,8,-2,5,10],"shifted_pitches":[6,4,8,4,-1,2,-1,-2,1,4,7,2,8,-2,5,10],"swapped_pitches":[6,4,8,4,-1,2,-1,0,-2,4,7,2,8,-2,5,10],"shift_direction":1,"question_num":181,"has_decoy":false},{"rt":1199.800000000745,"stimulus":"[A] option 1, [L] option 2, [G] neither","key_press":71,"name":"choice","trial_type":"html-keyboard-response","trial_index":219,"time_elapsed":529097,"internal_node_id":"0.0-219.0","subject":"S1C1610","sona":"41856","block":5,"time":"2021-09-15T18:20:27.883Z","response":"neither","certainty":"high","char":"G","transposition":-3,"order":["shifted","swapped"],"probe_pitches":[5,1,5,1,10,3,8,1,3,10,3,8,3,13,1,13],"shifted_pitches":[5,1,5,1,10,3,8,2,3,10,3,8,3,13,1,13],"swapped_pitches":[5,1,5,1,10,3,8,3,1,10,3,8,3,13,1,13],"shift_direction":1,"question_num":191,"has_decoy":false}]