[{"rt":6863.700000000186,"stimulus":"[A] option 1, [L] option 2, [G] neither","key_press":76,"name":"choice","trial_type":"html-keyboard-response","trial_index":15,"time_elapsed":86735,"internal_node_id":"0.0-15.0","response":"2nd","certainty":"high","char":"L","transposition":-2,"order":["shifted","swapped"],"probe_pitches":[14,11,8,11,10,14,8,14,5,3,10,15,10,3,9,15],"shifted_pitches":[14,11,8,11,10,14,8,13,5,3,10,15,10,3,9,15],"swapped_pitches":[14,11,8,11,10,14,8,5,14,3,10,15,10,3,9,15],"shift_direction":-1,"question_num":1,"has_decoy":false,"subject":"S1C1610","sona":"41856","block":1,"time":"2021-09-15T17:41:24.530Z"},{"rt":1360.5,"stimulus":"[A] option 1, [L] option 2, [G] neither","key_press":71,"name":"choice","trial_type":"html-keyboard-response","trial_index":26,"time_elapsed":117467,"internal_node_id":"0.0-26.0","response":"neither","certainty":"high","char":"G","transposition":3,"order":["shifted","swapped"],"probe_pitches":[13,8,11,15,13,9,11,6,9,13,8,11,3,12,9,4],"shifted_pitches":[13,8,11,15,13,9,11,7,9,13,8,11,3,12,9,4],"swapped_pitches":[13,8,11,15,13,9,11,9,6,13,8,11,3,12,9,4],"shift_direction":1,"question_num":11,"has_decoy":false,"subject":"S1C1610","sona":"41856","block":1,"time":"2021-09-15T17:41:24.530Z"},{"rt":1874.8999999994412,"stimulus":"[A] option 1, [L] option 2, [G] neither","key_press":65,"name":"choice","trial_type":"html-keyboard-response","trial_index":37,"time_elapsed":143732,"internal_node_id":"0.0-37.0","response":"1st","certainty":"high","char":"A","transposition":2,"order":["swapped","shifted"],"probe_pitches":[7,3,9,4,9,13,9,10,13,15,8,11,6,10,8,11],"shifted_pitches":[7,3,9,4,9,13,9,10,14,15,8,11,6,10,8,11],"swapped_pitches":[7,3,9,4,9,13,9,13,10,15,8,11,6,10,8,11],"shift_direction":1,"question_num":21,"has_decoy":false,"subject":"S1C1610","sona":"41856","block":1,"time":"2021-09-15T17:41:24.530Z"},{"rt":1045.0999999996275,"stimulus":"[A] option 1, [L] option 2, [G] neither","key_press":65,"name":"choice","trial_type":"html-keyboard-response","trial_index":48,"time_elapsed":167078,"internal_node_id":"0.0-48.0","response":"1st","certainty":"high","char":"A","transposition":-3,"order":["shifted","swapped"],"probe_pitches":[6,3,4,7,15,14,8,11,6,4,11,5,14,8,14,6],"shifted_pitches":[6,3,4,7,15,14,8,10,6,4,11,5,14,8,14,6],"swapped_pitches":[6,3,4,7,15,14,8,6,11,4,11,5,14,8,14,6],"shift_direction":-1,"question_num":31,"has_decoy":false,"subject":"S1C1610","sona":"41856","block":1,"time":"2021-09-15T17:41:24.530Z"},{"rt":653.6000000005588,"stimulus":"[A] option 1, [L] option 2, [G] neither","key_press":71,"name":"choice","trial_type":"html-keyboard-response","trial_index":59,"time_elapsed":190384,"internal_node_id":"0.0-59.0","response":"neither","certainty":"high","char":"G","transposition":1,"order":["swapped","shifted"],"probe_pitches":[11,8,3,-1,3,-1,1,6,3,8,11,6,1,8,1,6],"shifted_pitches":[11,8,3,-1,3,-1,1,5,3,8,11,6,1,8,1,6],"swapped_pitches":[11,8,3,-1,3,-1,1,3,6,8,11,6,1,8,1,6],"shift_direction":-1,"question_num":41,"has_decoy":false,"subject":"S1C1610","sona":"41856","block":1,"time":"2021-09-15T17:41:24.530Z"},{"rt":1186.8999999994412,"stimulus":"[A] option 1, [L] option 2, [G] neither","key_press":76,"name":"choice","trial_type":"html-keyboard-response","trial_index":70,"time_elapsed":215074,"internal_node_id":"0.0-70.0","response":"2nd","certainty":"high","char":"L","transposition":-2,"order":["swapped","shifted"],"probe_pitches":[4,3,9,3,9,10,6,8,4,15,9,6,12,10,15,8],"shifted_pitches":[4,3,9,3,9,10,6,8,5,15,9,6,12,10,15,8],"swapped_pitches":[4,3,9,3,9,10,6,4,8,15,9,6,12,10,15,8],"shift_direction":1,"question_num":51,"has_decoy":false,"subject":"S1C1610","sona":"41856","block":1,"time":"2021-09-15T17:41:24.530Z"},{"rt":466.80000000074506,"stimulus":"[A] option 1, [L] option 2, [G] neither","key_press":65,"name":"choice","trial_type":"html-keyboard-response","trial_index":81,"time_elapsed":238438,"internal_node_id":"0.0-81.0","response":"1st","certainty":"high","char":"A","transposition":-3,"order":["swapped","shifted"],"probe_pitches":[14,13,12,14,10,4,7,5,12,9,15,4,10,6,15,13],"shifted_pitches":[14,13,12,14,10,4,7,5,11,9,15,4,10,6,15,13],"swapped_pitches":[14,13,12,14,10,4,7,12,5,9,15,4,10,6,15,13],"shift_direction":-1,"question_num":61,"has_decoy":false,"subject":"S1C1610","sona":"41856","block":1,"time":"2021-09-15T17:41:24.530Z"},{"rt":1249.2000000001863,"stimulus":"[A] option 1, [L] option 2, [G] neither","key_press":76,"name":"choice","trial_type":"html-keyboard-response","trial_index":92,"time_elapsed":262432,"internal_node_id":"0.0-92.0","response":"2nd","certainty":"high","char":"L","transposition":-1,"order":["swapped","shifted"],"probe_pitches":[6,8,1,8,-1,8,6,11,3,-1,3,11,-1,3,11,8],"shifted_pitches":[6,8,1,8,-1,8,6,11,4,-1,3,11,-1,3,11,8],"swapped_pitches":[6,8,1,8,-1,8,6,3,11,-1,3,11,-1,3,11,8],"shift_direction":1,"question_num":71,"has_decoy":false,"subject":"S1C1610","sona":"41856","block":1,"time":"2021-09-15T17:41:24.530Z"},{"rt":1040.5,"stimulus":"[A] option 1, [L] option 2, [G] neither","key_press":76,"name":"choice","trial_type":"html-keyboard-response","trial_index":103,"time_elapsed":290438,"internal_node_id":"0.0-103.0","response":"2nd","certainty":"high","char":"L","transposition":3,"order":["swapped","shifted"],"probe_pitches":[-1,4,6,1,6,1,8,-1,1,6,1,11,1,6,-1,11],"shifted_pitches":[-1,4,6,1,6,1,8,-1,0,6,1,11,1,6,-1,11],"swapped_pitches":[-1,4,6,1,6,1,8,1,-1,6,1,11,1,6,-1,11],"shift_direction":-1,"question_num":81,"has_decoy":false,"subject":"S1C1610","sona":"41856","block":1,"time":"2021-09-15T17:41:24.530Z"},{"rt":556.9000000003725,"stimulus":"[A] option 1, [L] option 2, [G] neither","key_press":65,"name":"choice","trial_type":"html-keyboard-response","trial_index":114,"time_elapsed":313364,"internal_node_id":"0.0-114.0","response":"1st","certainty":"high","char":"A","transposition":1,"order":["shifted","swapped"],"probe_pitches":[5,7,10,4,7,13,7,14,13,8,10,14,15,4,8,11],"shifted_pitches":[5,7,10,4,7,13,7,14,12,8,10,14,15,4,8,11],"swapped_pitches":[5,7,10,4,7,13,7,13,14,8,10,14,15,4,8,11],"shift_direction":-1,"question_num":91,"has_decoy":false,"subject":"S1C1610","sona":"41856","block":1,"time":"2021-09-15T17:41:24.530Z"},{"rt":954.7999999998137,"stimulus":"[A] option 1, [L] option 2, [G] neither","key_press":76,"name":"choice","trial_type":"html-keyboard-response","trial_index":125,"time_elapsed":336864,"internal_node_id":"0.0-125.0","response":"2nd","certainty":"high","char":"L","transposition":-2,"order":["swapped","shifted"],"probe_pitches":[9,11,6,11,9,4,6,4,2,9,2,11,4,6,11,6],"shifted_pitches":[9,11,6,11,9,4,6,5,2,9,2,11,4,6,11,6],"swapped_pitches":[9,11,6,11,9,4,6,2,4,9,2,11,4,6,11,6],"shift_direction":1,"question_num":101,"has_decoy":false,"subject":"S1C1610","sona":"41856","block":1,"time":"2021-09-15T17:41:24.530Z"},{"rt":1784.6000000005588,"stimulus":"[A] option 1, [L] option 2, [G] neither","key_press":71,"name":"choice","trial_type":"html-keyboard-response","trial_index":136,"time_elapsed":361090,"internal_node_id":"0.0-136.0","response":"neither","certainty":"high","char":"G","transposition":-1,"order":["shifted","swapped"],"probe_pitches":[4,2,7,4,11,9,11,7,4,11,-1,9,4,-1,4,2],"shifted_pitches":[4,2,7,4,11,9,11,8,4,11,-1,9,4,-1,4,2],"swapped_pitches":[4,2,7,4,11,9,11,4,7,11,-1,9,4,-1,4,2],"shift_direction":1,"question_num":111,"has_decoy":false,"subject":"S1C1610","sona":"41856","block":1,"time":"2021-09-15T17:41:24.530Z"},{"rt":2386.7999999998137,"stimulus":"[A] option 1, [L] option 2, [G] neither","key_press":65,"name":"choice","trial_type":"html-keyboard-response","trial_index":147,"time_elapsed":385853,"internal_node_id":"0.0-147.0","response":"1st","certainty":"high","char":"A","transposition":-1,"order":["swapped","shifted"],"probe_pitches":[11,10,12,15,7,5,11,8,10,12,8,15,3,12,8,5],"shifted_pitches":[11,10,12,15,7,5,11,9,10,12,8,15,3,12,8,5],"swapped_pitches":[11,10,12,15,7,5,11,10,8,12,8,15,3,12,8,5],"shift_direction":1,"question_num":121,"has_decoy":false,"subject":"S1C1610","sona":"41856","block":1,"time":"2021-09-15T17:41:24.530Z"},{"rt":4500.899999999441,"stimulus":"[A] option 1, [L] option 2, [G] neither","key_press":71,"name":"choice","trial_type":"html-keyboard-response","trial_index":158,"time_elapsed":413984,"internal_node_id":"0.0-158.0","response":"neither","certainty":"high","char":"G","transposition":2,"order":["shifted","swapped"],"probe_pitches":[6,1,-1,6,-1,8,1,6,8,1,-1,6,8,11,4,6],"shifted_pitches":[6,1,-1,6,-1,8,1,6,7,1,-1,6,8,11,4,6],"swapped_pitches":[6,1,-1,6,-1,8,1,8,6,1,-1,6,8,11,4,6],"shift_direction":-1,"question_num":131,"has_decoy":false,"subject":"S1C1610","sona":"41856","block":1,"time":"2021-09-15T17:41:24.530Z"},{"rt":708.7000000001863,"stimulus":"[A] option 1, [L] option 2, [G] neither","key_press":76,"name":"choice","trial_type":"html-keyboard-response","trial_index":169,"time_elapsed":437589,"internal_node_id":"0.0-169.0","response":"2nd","certainty":"high","char":"L","transposition":-3,"order":["shifted","swapped"],"probe_pitches":[-1,2,4,9,7,-1,7,11,4,9,7,9,11,2,11,-1],"shifted_pitches":[-1,2,4,9,7,-1,7,12,4,9,7,9,11,2,11,-1],"swapped_pitches":[-1,2,4,9,7,-1,7,4,11,9,7,9,11,2,11,-1],"shift_direction":1,"question_num":141,"has_decoy":false,"subject":"S1C1610","sona":"41856","block":1,"time":"2021-09-15T17:41:24.530Z"},{"rt":1205.7999999998137,"stimulus":"[A] option 1, [L] option 2, [G] neither","key_press":71,"name":"choice","trial_type":"html-keyboard-response","trial_index":180,"time_elapsed":461426,"internal_node_id":"0.0-180.0","response":"neither","certainty":"high","char":"G","transposition":-3,"order":["shifted","swapped"],"probe_pitches":[1,6,11,6,4,1,-1,9,4,11,4,1,-1,4,9,11],"shifted_pitches":[1,6,11,6,4,1,-1,9,3,11,4,1,-1,4,9,11],"swapped_pitches":[1,6,11,6,4,1,-1,4,9,11,4,1,-1,4,9,11],"shift_direction":-1,"question_num":151,"has_decoy":false,"subject":"S1C1610","sona":"41856","block":1,"time":"2021-09-15T17:41:24.530Z"},{"rt":2080,"stimulus":"[A] option 1, [L] option 2, [G] neither","key_press":71,"name":"choice","trial_type":"html-keyboard-response","trial_index":191,"time_elapsed":487944,"internal_node_id":"0.0-191.0","response":"neither","certainty":"high","char":"G","transposition":-1,"order":["swapped","shifted"],"probe_pitches":[5,3,7,9,6,5,6,9,5,13,11,7,3,14,15,3],"shifted_pitches":[5,3,7,9,6,5,6,8,5,13,11,7,3,14,15,3],"swapped_pitches":[5,3,7,9,6,5,6,5,9,13,11,7,3,14,15,3],"shift_direction":-1,"question_num":161,"has_decoy":false,"subject":"S1C1610","sona":"41856","block":1,"time":"2021-09-15T17:41:24.530Z"},{"rt":2164.4000000003725,"stimulus":"[A] option 1, [L] option 2, [G] neither","key_press":65,"name":"choice","trial_type":"html-keyboard-response","trial_index":202,"time_elapsed":515591,"internal_node_id":"0.0-202.0","response":"1st","certainty":"high","char":"A","transposition":0,"order":["shifted","swapped"],"probe_pitches":[6,4,6,4,11,6,4,-1,1,4,1,4,6,11,4,9],"shifted_pitches":[6,4,6,4,11,6,4,0,1,4,1,4,6,11,4,9],"swapped_pitches":[6,4,6,4,11,6,4,1,-1,4,1,4,6,11,4,9],"shift_direction":1,"question_num":171,"has_decoy":false,"subject":"S1C1610","sona":"41856","block":1,"time":"2021-09-15T17:41:24.530Z"},{"rt":1598.1000000005588,"stimulus":"[A] option 1, [L] option 2, [G] neither","key_press":71,"name":"choice","trial_type":"html-keyboard-response","trial_index":213,"time_elapsed":544466,"internal_node_id":"0.0-213.0","response":"neither","certainty":"high","char":"G","transposition":-2,"order":["swapped","shifted"],"probe_pitches":[-1,2,9,2,9,-1,2,9,4,2,4,6,11,4,9,11],"shifted_pitches":[-1,2,9,2,9,-1,2,9,3,2,4,6,11,4,9,11],"swapped_pitches":[-1,2,9,2,9,-1,2,4,9,2,4,6,11,4,9,11],"shift_direction":-1,"question_num":181,"has_decoy":false,"subject":"S1C1610","sona":"41856","block":1,"time":"2021-09-15T17:41:24.530Z"},{"rt":1935.5,"stimulus":"[A] option 1, [L] option 2, [G] neither","key_press":71,"name":"choice","trial_type":"html-keyboard-response","trial_index":224,"time_elapsed":569220,"internal_node_id":"0.0-224.0","response":"neither","certainty":"high","char":"G","transposition":0,"order":["shifted","swapped"],"probe_pitches":[15,12,8,13,14,7,10,3,5,13,14,10,11,8,4,12],"shifted_pitches":[15,12,8,13,14,7,10,3,6,13,14,10,11,8,4,12],"swapped_pitches":[15,12,8,13,14,7,10,5,3,13,14,10,11,8,4,12],"shift_direction":1,"question_num":191,"has_decoy":false,"subject":"S1C1610","sona":"41856","block":1,"time":"2021-09-15T17:41:24.530Z"}]