[{"rt":2917.9000000003725,"stimulus":"[A] option 1, [L] option 2, [G] neither","key_press":71,"name":"choice","trial_type":"html-keyboard-response","trial_index":10,"time_elapsed":28368,"internal_node_id":"0.0-10.0","subject":"S1C1610","sona":"41856","block":3,"time":"2021-09-15T18:02:49.951Z","response":"neither","certainty":"high","char":"G","transposition":1,"order":["shifted","swapped"],"probe_pitches":[-3,-1,-3,2,4,-3,4,2,-1,-3,6,-3,2,6,4,-1],"shifted_pitches":[-3,-1,-3,2,4,-3,4,2,-2,-3,6,-3,2,6,4,-1],"swapped_pitches":[-3,-1,-3,2,4,-3,4,-1,2,-3,6,-3,2,6,4,-1],"shift_direction":-1,"question_num":1,"has_decoy":false},{"rt":1478.7000000001863,"stimulus":"[A] option 1, [L] option 2, [G] neither","key_press":76,"name":"choice","trial_type":"html-keyboard-response","trial_index":21,"time_elapsed":55548,"internal_node_id":"0.0-21.0","subject":"S1C1610","sona":"41856","block":3,"time":"2021-09-15T18:02:49.951Z","response":"2nd","certainty":"high","char":"L","transposition":-2,"order":["shifted","swapped"],"probe_pitches":[5,2,6,5,6,11,8,12,7,2,7,12,2,10,8,3],"shifted_pitches":[5,2,6,5,6,11,8,13,7,2,7,12,2,10,8,3],"swapped_pitches":[5,2,6,5,6,11,8,7,12,2,7,12,2,10,8,3],"shift_direction":1,"question_num":11,"has_decoy":false},{"rt":4416.5,"stimulus":"[A] option 1, [L] option 2, [G] neither","key_press":71,"name":"choice","trial_type":"html-keyboard-response","trial_index":32,"time_elapsed":82647,"internal_node_id":"0.0-32.0","subject":"S1C1610","sona":"41856","block":3,"time":"2021-09-15T18:02:49.951Z","response":"neither","certainty":"high","char":"G","transposition":-3,"order":["swapped","shifted"],"probe_pitches":[14,10,5,10,12,4,13,8,3,5,14,2,7,2,8,11],"shifted_pitches":[14,10,5,10,12,4,13,9,3,5,14,2,7,2,8,11],"swapped_pitches":[14,10,5,10,12,4,13,3,8,5,14,2,7,2,8,11],"shift_direction":1,"question_num":21,"has_decoy":false},{"rt":2016.5999999996275,"stimulus":"[A] option 1, [L] option 2, [G] neither","key_press":71,"name":"choice","trial_type":"html-keyboard-response","trial_index":43,"time_elapsed":107399,"internal_node_id":"0.0-43.0","subject":"S1C1610","sona":"41856","block":3,"time":"2021-09-15T18:02:49.951Z","response":"neither","certainty":"high","char":"G","transposition":-3,"order":["shifted","swapped"],"probe_pitches":[4,2,-3,4,2,-3,-1,6,2,-1,4,6,9,2,-3,-1],"shifted_pitches":[4,2,-3,4,2,-3,-1,5,2,-1,4,6,9,2,-3,-1],"swapped_pitches":[4,2,-3,4,2,-3,-1,2,6,-1,4,6,9,2,-3,-1],"shift_direction":-1,"question_num":31,"has_decoy":false},{"rt":1205.0999999996275,"stimulus":"[A] option 1, [L] option 2, [G] neither","key_press":71,"name":"choice","trial_type":"html-keyboard-response","trial_index":54,"time_elapsed":131047,"internal_node_id":"0.0-54.0","subject":"S1C1610","sona":"41856","block":3,"time":"2021-09-15T18:02:49.951Z","response":"neither","certainty":"high","char":"G","transposition":-3,"order":["shifted","swapped"],"probe_pitches":[2,-3,0,7,4,0,7,4,2,7,0,7,9,-3,7,4],"shifted_pitches":[2,-3,0,7,4,0,7,4,1,7,0,7,9,-3,7,4],"swapped_pitches":[2,-3,0,7,4,0,7,2,4,7,0,7,9,-3,7,4],"shift_direction":-1,"question_num":41,"has_decoy":false},{"rt":2069.899999999441,"stimulus":"[A] option 1, [L] option 2, [G] neither","key_press":76,"name":"choice","trial_type":"html-keyboard-response","trial_index":65,"time_elapsed":155769,"internal_node_id":"0.0-65.0","subject":"S1C1610","sona":"41856","block":3,"time":"2021-09-15T18:02:49.951Z","response":"2nd","certainty":"high","char":"L","transposition":0,"order":["shifted","swapped"],"probe_pitches":[11,8,13,7,5,14,6,11,3,4,7,9,8,13,5,13],"shifted_pitches":[11,8,13,7,5,14,6,10,3,4,7,9,8,13,5,13],"swapped_pitches":[11,8,13,7,5,14,6,3,11,4,7,9,8,13,5,13],"shift_direction":-1,"question_num":51,"has_decoy":false},{"rt":2684.9000000003725,"stimulus":"[A] option 1, [L] option 2, [G] neither","key_press":71,"name":"choice","trial_type":"html-keyboard-response","trial_index":76,"time_elapsed":184299,"internal_node_id":"0.0-76.0","subject":"S1C1610","sona":"41856","block":3,"time":"2021-09-15T18:02:49.951Z","response":"neither","certainty":"high","char":"G","transposition":3,"order":["swapped","shifted"],"probe_pitches":[2,-1,4,2,-1,9,2,-3,7,4,-3,4,-3,7,4,-3],"shifted_pitches":[2,-1,4,2,-1,9,2,-2,7,4,-3,4,-3,7,4,-3],"swapped_pitches":[2,-1,4,2,-1,9,2,7,-3,4,-3,4,-3,7,4,-3],"shift_direction":1,"question_num":61,"has_decoy":false},{"rt":1606.2999999998137,"stimulus":"[A] option 1, [L] option 2, [G] neither","key_press":76,"name":"choice","trial_type":"html-keyboard-response","trial_index":87,"time_elapsed":208411,"internal_node_id":"0.0-87.0","subject":"S1C1610","sona":"41856","block":3,"time":"2021-09-15T18:02:49.951Z","response":"2nd","certainty":"high","char":"L","transposition":-1,"order":["swapped","shifted"],"probe_pitches":[4,7,0,2,-3,4,-3,2,9,-3,4,0,2,0,2,-3],"shifted_pitches":[4,7,0,2,-3,4,-3,2,10,-3,4,0,2,0,2,-3],"swapped_pitches":[4,7,0,2,-3,4,-3,9,2,-3,4,0,2,0,2,-3],"shift_direction":1,"question_num":71,"has_decoy":false},{"rt":2563.7999999998137,"stimulus":"[A] option 1, [L] option 2, [G] neither","key_press":71,"name":"choice","trial_type":"html-keyboard-response","trial_index":98,"time_elapsed":234969,"internal_node_id":"0.0-98.0","subject":"S1C1610","sona":"41856","block":3,"time":"2021-09-15T18:02:49.951Z","response":"neither","certainty":"high","char":"G","transposition":-2,"order":["swapped","shifted"],"probe_pitches":[10,14,11,14,9,2,9,12,5,4,13,7,11,7,10,7],"shifted_pitches":[10,14,11,14,9,2,9,12,6,4,13,7,11,7,10,7],"swapped_pitches":[10,14,11,14,9,2,9,5,12,4,13,7,11,7,10,7],"shift_direction":1,"question_num":81,"has_decoy":false},{"rt":4063.7999999998137,"stimulus":"[A] option 1, [L] option 2, [G] neither","key_press":71,"name":"choice","trial_type":"html-keyboard-response","trial_index":109,"time_elapsed":261489,"internal_node_id":"0.0-109.0","subject":"S1C1610","sona":"41856","block":3,"time":"2021-09-15T18:02:49.951Z","response":"neither","certainty":"high","char":"G","transposition":0,"order":["shifted","swapped"],"probe_pitches":[-3,2,7,9,7,5,0,9,7,2,7,5,9,5,0,2],"shifted_pitches":[-3,2,7,9,7,5,0,8,7,2,7,5,9,5,0,2],"swapped_pitches":[-3,2,7,9,7,5,0,7,9,2,7,5,9,5,0,2],"shift_direction":-1,"question_num":91,"has_decoy":false},{"rt":1669.1000000005588,"stimulus":"[A] option 1, [L] option 2, [G] neither","key_press":71,"name":"choice","trial_type":"html-keyboard-response","trial_index":120,"time_elapsed":285586,"internal_node_id":"0.0-120.0","subject":"S1C1610","sona":"41856","block":3,"time":"2021-09-15T18:02:49.951Z","response":"neither","certainty":"high","char":"G","transposition":-2,"order":["swapped","shifted"],"probe_pitches":[9,4,6,9,6,-3,-1,9,6,1,-3,6,-3,6,-1,-3],"shifted_pitches":[9,4,6,9,6,-3,-1,9,7,1,-3,6,-3,6,-1,-3],"swapped_pitches":[9,4,6,9,6,-3,-1,6,9,1,-3,6,-3,6,-1,-3],"shift_direction":1,"question_num":101,"has_decoy":false},{"rt":2058.600000000559,"stimulus":"[A] option 1, [L] option 2, [G] neither","key_press":71,"name":"choice","trial_type":"html-keyboard-response","trial_index":131,"time_elapsed":310008,"internal_node_id":"0.0-131.0","subject":"S1C1610","sona":"41856","block":3,"time":"2021-09-15T18:02:49.951Z","response":"neither","certainty":"high","char":"G","transposition":-1,"order":["shifted","swapped"],"probe_pitches":[13,11,12,10,11,3,14,9,13,6,2,6,12,10,11,3],"shifted_pitches":[13,11,12,10,11,3,14,8,13,6,2,6,12,10,11,3],"swapped_pitches":[13,11,12,10,11,3,14,13,9,6,2,6,12,10,11,3],"shift_direction":-1,"question_num":111,"has_decoy":false},{"rt":1346.300000000745,"stimulus":"[A] option 1, [L] option 2, [G] neither","key_press":71,"name":"choice","trial_type":"html-keyboard-response","trial_index":142,"time_elapsed":334721,"internal_node_id":"0.0-142.0","subject":"S1C1610","sona":"41856","block":3,"time":"2021-09-15T18:02:49.951Z","response":"neither","certainty":"high","char":"G","transposition":2,"order":["swapped","shifted"],"probe_pitches":[4,10,12,6,4,5,13,5,8,6,10,2,8,4,13,9],"shifted_pitches":[4,10,12,6,4,5,13,5,7,6,10,2,8,4,13,9],"swapped_pitches":[4,10,12,6,4,5,13,8,5,6,10,2,8,4,13,9],"shift_direction":-1,"question_num":121,"has_decoy":false},{"rt":1925.699999999255,"stimulus":"[A] option 1, [L] option 2, [G] neither","key_press":76,"name":"choice","trial_type":"html-keyboard-response","trial_index":153,"time_elapsed":361237,"internal_node_id":"0.0-153.0","subject":"S1C1610","sona":"41856","block":3,"time":"2021-09-15T18:02:49.951Z","response":"2nd","certainty":"high","char":"L","transposition":-3,"order":["shifted","swapped"],"probe_pitches":[13,10,8,5,7,13,5,2,13,4,8,3,2,3,9,5],"shifted_pitches":[13,10,8,5,7,13,5,2,12,4,8,3,2,3,9,5],"swapped_pitches":[13,10,8,5,7,13,5,13,2,4,8,3,2,3,9,5],"shift_direction":-1,"question_num":131,"has_decoy":false},{"rt":6956.5999999996275,"stimulus":"[A] option 1, [L] option 2, [G] neither","key_press":76,"name":"choice","trial_type":"html-keyboard-response","trial_index":164,"time_elapsed":395585,"internal_node_id":"0.0-164.0","subject":"S1C1610","sona":"41856","block":3,"time":"2021-09-15T18:02:49.951Z","response":"2nd","certainty":"high","char":"L","transposition":3,"order":["swapped","shifted"],"probe_pitches":[7,13,14,11,14,11,14,5,7,6,9,14,5,3,8,13],"shifted_pitches":[7,13,14,11,14,11,14,4,7,6,9,14,5,3,8,13],"swapped_pitches":[7,13,14,11,14,11,14,7,5,6,9,14,5,3,8,13],"shift_direction":-1,"question_num":141,"has_decoy":false},{"rt":920.5999999996275,"stimulus":"[A] option 1, [L] option 2, [G] neither","key_press":71,"name":"choice","trial_type":"html-keyboard-response","trial_index":175,"time_elapsed":423075,"internal_node_id":"0.0-175.0","subject":"S1C1610","sona":"41856","block":3,"time":"2021-09-15T18:02:49.951Z","response":"neither","certainty":"high","char":"G","transposition":1,"order":["shifted","swapped"],"probe_pitches":[3,8,10,2,4,14,7,2,4,9,2,3,13,3,2,8],"shifted_pitches":[3,8,10,2,4,14,7,2,5,9,2,3,13,3,2,8],"swapped_pitches":[3,8,10,2,4,14,7,4,2,9,2,3,13,3,2,8],"shift_direction":1,"question_num":151,"has_decoy":false},{"rt":710.3999999994412,"stimulus":"[A] option 1, [L] option 2, [G] neither","key_press":71,"name":"choice","trial_type":"html-keyboard-response","trial_index":186,"time_elapsed":446178,"internal_node_id":"0.0-186.0","subject":"S1C1610","sona":"41856","block":3,"time":"2021-09-15T18:02:49.951Z","response":"neither","certainty":"high","char":"G","transposition":-1,"order":["swapped","shifted"],"probe_pitches":[4,6,9,6,4,-1,6,-3,4,-1,1,9,1,4,9,6],"shifted_pitches":[4,6,9,6,4,-1,6,-2,4,-1,1,9,1,4,9,6],"swapped_pitches":[4,6,9,6,4,-1,6,4,-3,-1,1,9,1,4,9,6],"shift_direction":1,"question_num":161,"has_decoy":false},{"rt":3748.9000000003725,"stimulus":"[A] option 1, [L] option 2, [G] neither","key_press":65,"name":"choice","trial_type":"html-keyboard-response","trial_index":197,"time_elapsed":473585,"internal_node_id":"0.0-197.0","subject":"S1C1610","sona":"41856","block":3,"time":"2021-09-15T18:02:49.951Z","response":"1st","certainty":"high","char":"A","transposition":-1,"order":["swapped","shifted"],"probe_pitches":[2,8,14,10,13,12,14,5,10,13,9,8,9,8,2,8],"shifted_pitches":[2,8,14,10,13,12,14,5,11,13,9,8,9,8,2,8],"swapped_pitches":[2,8,14,10,13,12,14,10,5,13,9,8,9,8,2,8],"shift_direction":1,"question_num":171,"has_decoy":false},{"rt":957.2999999998137,"stimulus":"[A] option 1, [L] option 2, [G] neither","key_press":71,"name":"choice","trial_type":"html-keyboard-response","trial_index":208,"time_elapsed":497557,"internal_node_id":"0.0-208.0","subject":"S1C1610","sona":"41856","block":3,"time":"2021-09-15T18:02:49.951Z","response":"neither","certainty":"high","char":"G","transposition":2,"order":["shifted","swapped"],"probe_pitches":[2,-1,-3,2,7,-3,-1,4,7,9,-3,9,7,2,-3,2],"shifted_pitches":[2,-1,-3,2,7,-3,-1,4,6,9,-3,9,7,2,-3,2],"swapped_pitches":[2,-1,-3,2,7,-3,-1,7,4,9,-3,9,7,2,-3,2],"shift_direction":-1,"question_num":181,"has_decoy":false},{"rt":3314.5999999996275,"stimulus":"[A] option 1, [L] option 2, [G] neither","key_press":76,"name":"choice","trial_type":"html-keyboard-response","trial_index":219,"time_elapsed":524049,"internal_node_id":"0.0-219.0","subject":"S1C1610","sona":"41856","block":3,"time":"2021-09-15T18:02:49.951Z","response":"2nd","certainty":"high","char":"L","transposition":-2,"order":["swapped","shifted"],"probe_pitches":[0,-3,2,5,0,2,5,0,-3,7,0,9,0,-3,2,5],"shifted_pitches":[0,-3,2,5,0,2,5,1,-3,7,0,9,0,-3,2,5],"swapped_pitches":[0,-3,2,5,0,2,5,-3,0,7,0,9,0,-3,2,5],"shift_direction":1,"question_num":191,"has_decoy":false}]