[{"rt":1973.0999999996275,"stimulus":"[A] option 1, [L] option 2, [G] neither","key_press":71,"name":"choice","trial_type":"html-keyboard-response","trial_index":10,"time_elapsed":25916,"internal_node_id":"0.0-10.0","subject":"S1C1610","sona":"41856","block":6,"time":"2021-09-15T18:29:27.333Z","response":"neither","certainty":"high","char":"G","transposition":3,"order":["swapped","shifted"],"probe_pitches":[-1,5,1,0,6,0,6,9,4,8,9,2,6,9,-2,6],"shifted_pitches":[-1,5,1,0,6,0,6,9,3,8,9,2,6,9,-2,6],"swapped_pitches":[-1,5,1,0,6,0,6,4,9,8,9,2,6,9,-2,6],"shift_direction":-1,"question_num":1,"has_decoy":false},{"rt":3161.7000000001863,"stimulus":"[A] option 1, [L] option 2, [G] neither","key_press":76,"name":"choice","trial_type":"html-keyboard-response","trial_index":21,"time_elapsed":55137,"internal_node_id":"0.0-21.0","subject":"S1C1610","sona":"41856","block":6,"time":"2021-09-15T18:29:27.333Z","response":"2nd","certainty":"high","char":"L","transposition":-2,"order":["shifted","swapped"],"probe_pitches":[-3,1,6,3,2,1,3,-2,-3,5,6,0,4,0,-1,-3],"shifted_pitches":[-3,1,6,3,2,1,3,-2,-4,5,6,0,4,0,-1,-3],"swapped_pitches":[-3,1,6,3,2,1,3,-3,-2,5,6,0,4,0,-1,-3],"shift_direction":-1,"question_num":11,"has_decoy":false},{"rt":1047.9000000003725,"stimulus":"[A] option 1, [L] option 2, [G] neither","key_press":76,"name":"choice","trial_type":"html-keyboard-response","trial_index":32,"time_elapsed":80363,"internal_node_id":"0.0-32.0","subject":"S1C1610","sona":"41856","block":6,"time":"2021-09-15T18:29:27.333Z","response":"2nd","certainty":"high","char":"L","transposition":-2,"order":["shifted","swapped"],"probe_pitches":[12,10,7,12,10,7,5,10,7,5,10,2,5,7,12,5],"shifted_pitches":[12,10,7,12,10,7,5,11,7,5,10,2,5,7,12,5],"swapped_pitches":[12,10,7,12,10,7,5,7,10,5,10,2,5,7,12,5],"shift_direction":1,"question_num":21,"has_decoy":false},{"rt":2128.4000000003725,"stimulus":"[A] option 1, [L] option 2, [G] neither","key_press":76,"name":"choice","trial_type":"html-keyboard-response","trial_index":43,"time_elapsed":107642,"internal_node_id":"0.0-43.0","subject":"S1C1610","sona":"41856","block":6,"time":"2021-09-15T18:29:27.333Z","response":"2nd","certainty":"high","char":"L","transposition":-3,"order":["swapped","shifted"],"probe_pitches":[6,0,3,-3,1,-3,4,1,-2,3,4,0,8,7,4,-3],"shifted_pitches":[6,0,3,-3,1,-3,4,2,-2,3,4,0,8,7,4,-3],"swapped_pitches":[6,0,3,-3,1,-3,4,-2,1,3,4,0,8,7,4,-3],"shift_direction":1,"question_num":31,"has_decoy":false},{"rt":2948.5,"stimulus":"[A] option 1, [L] option 2, [G] neither","key_press":71,"name":"choice","trial_type":"html-keyboard-response","trial_index":54,"time_elapsed":136468,"internal_node_id":"0.0-54.0","subject":"S1C1610","sona":"41856","block":6,"time":"2021-09-15T18:29:27.333Z","response":"neither","certainty":"high","char":"G","transposition":2,"order":["swapped","shifted"],"probe_pitches":[10,7,10,2,7,10,7,12,2,10,7,12,7,5,0,7],"shifted_pitches":[10,7,10,2,7,10,7,12,3,10,7,12,7,5,0,7],"swapped_pitches":[10,7,10,2,7,10,7,2,12,10,7,12,7,5,0,7],"shift_direction":1,"question_num":41,"has_decoy":false},{"rt":1117.2999999998137,"stimulus":"[A] option 1, [L] option 2, [G] neither","key_press":71,"name":"choice","trial_type":"html-keyboard-response","trial_index":65,"time_elapsed":166559,"internal_node_id":"0.0-65.0","subject":"S1C1610","sona":"41856","block":6,"time":"2021-09-15T18:29:27.333Z","response":"neither","certainty":"high","char":"G","transposition":-3,"order":["shifted","swapped"],"probe_pitches":[0,2,7,4,12,4,0,9,7,4,12,7,4,12,7,12],"shifted_pitches":[0,2,7,4,12,4,0,8,7,4,12,7,4,12,7,12],"swapped_pitches":[0,2,7,4,12,4,0,7,9,4,12,7,4,12,7,12],"shift_direction":-1,"question_num":51,"has_decoy":false},{"rt":1099.2000000001863,"stimulus":"[A] option 1, [L] option 2, [G] neither","key_press":71,"name":"choice","trial_type":"html-keyboard-response","trial_index":76,"time_elapsed":193484,"internal_node_id":"0.0-76.0","subject":"S1C1610","sona":"41856","block":6,"time":"2021-09-15T18:29:27.333Z","response":"neither","certainty":"high","char":"G","transposition":0,"order":["swapped","shifted"],"probe_pitches":[0,5,2,9,5,7,9,7,12,9,12,7,5,7,9,12],"shifted_pitches":[0,5,2,9,5,7,9,7,13,9,12,7,5,7,9,12],"swapped_pitches":[0,5,2,9,5,7,9,12,7,9,12,7,5,7,9,12],"shift_direction":1,"question_num":61,"has_decoy":false},{"rt":1540.0999999996275,"stimulus":"[A] option 1, [L] option 2, [G] neither","key_press":65,"name":"choice","trial_type":"html-keyboard-response","trial_index":87,"time_elapsed":222870,"internal_node_id":"0.0-87.0","subject":"S1C1610","sona":"41856","block":6,"time":"2021-09-15T18:29:27.333Z","response":"1st","certainty":"high","char":"A","transposition":0,"order":["shifted","swapped"],"probe_pitches":[8,9,4,8,1,4,9,2,8,5,4,9,5,8,3,-1],"shifted_pitches":[8,9,4,8,1,4,9,2,7,5,4,9,5,8,3,-1],"swapped_pitches":[8,9,4,8,1,4,9,8,2,5,4,9,5,8,3,-1],"shift_direction":-1,"question_num":71,"has_decoy":false},{"rt":3019.399999999441,"stimulus":"[A] option 1, [L] option 2, [G] neither","key_press":71,"name":"choice","trial_type":"html-keyboard-response","trial_index":98,"time_elapsed":248372,"internal_node_id":"0.0-98.0","subject":"S1C1610","sona":"41856","block":6,"time":"2021-09-15T18:29:27.333Z","response":"neither","certainty":"high","char":"G","transposition":-3,"order":["swapped","shifted"],"probe_pitches":[4,-1,1,-3,-1,7,2,4,6,-2,7,-2,3,2,1,2],"shifted_pitches":[4,-1,1,-3,-1,7,2,5,6,-2,7,-2,3,2,1,2],"swapped_pitches":[4,-1,1,-3,-1,7,2,6,4,-2,7,-2,3,2,1,2],"shift_direction":1,"question_num":81,"has_decoy":false},{"rt":1228.9000000003725,"stimulus":"[A] option 1, [L] option 2, [G] neither","key_press":71,"name":"choice","trial_type":"html-keyboard-response","trial_index":109,"time_elapsed":272048,"internal_node_id":"0.0-109.0","subject":"S1C1610","sona":"41856","block":6,"time":"2021-09-15T18:29:27.333Z","response":"neither","certainty":"high","char":"G","transposition":-1,"order":["shifted","swapped"],"probe_pitches":[7,5,9,3,9,7,4,-2,9,3,4,9,1,8,-3,4],"shifted_pitches":[7,5,9,3,9,7,4,-1,9,3,4,9,1,8,-3,4],"swapped_pitches":[7,5,9,3,9,7,4,9,-2,3,4,9,1,8,-3,4],"shift_direction":1,"question_num":91,"has_decoy":false},{"rt":1170.8999999994412,"stimulus":"[A] option 1, [L] option 2, [G] neither","key_press":76,"name":"choice","trial_type":"html-keyboard-response","trial_index":120,"time_elapsed":295884,"internal_node_id":"0.0-120.0","subject":"S1C1610","sona":"41856","block":6,"time":"2021-09-15T18:29:27.333Z","response":"2nd","certainty":"high","char":"L","transposition":-1,"order":["shifted","swapped"],"probe_pitches":[7,9,6,1,-3,-2,5,0,3,-3,9,2,8,-3,1,2],"shifted_pitches":[7,9,6,1,-3,-2,5,0,4,-3,9,2,8,-3,1,2],"swapped_pitches":[7,9,6,1,-3,-2,5,3,0,-3,9,2,8,-3,1,2],"shift_direction":1,"question_num":101,"has_decoy":false},{"rt":1530,"stimulus":"[A] option 1, [L] option 2, [G] neither","key_press":71,"name":"choice","trial_type":"html-keyboard-response","trial_index":131,"time_elapsed":324154,"internal_node_id":"0.0-131.0","subject":"S1C1610","sona":"41856","block":6,"time":"2021-09-15T18:29:27.333Z","response":"neither","certainty":"high","char":"G","transposition":3,"order":["shifted","swapped"],"probe_pitches":[7,4,7,12,9,0,4,12,2,0,2,7,4,7,2,7],"shifted_pitches":[7,4,7,12,9,0,4,12,1,0,2,7,4,7,2,7],"swapped_pitches":[7,4,7,12,9,0,4,2,12,0,2,7,4,7,2,7],"shift_direction":-1,"question_num":111,"has_decoy":false},{"rt":1744.6000000005588,"stimulus":"[A] option 1, [L] option 2, [G] neither","key_press":71,"name":"choice","trial_type":"html-keyboard-response","trial_index":142,"time_elapsed":350962,"internal_node_id":"0.0-142.0","subject":"S1C1610","sona":"41856","block":6,"time":"2021-09-15T18:29:27.333Z","response":"neither","certainty":"high","char":"G","transposition":-2,"order":["swapped","shifted"],"probe_pitches":[-2,1,6,1,2,9,6,1,3,8,1,5,-1,4,1,4],"shifted_pitches":[-2,1,6,1,2,9,6,0,3,8,1,5,-1,4,1,4],"swapped_pitches":[-2,1,6,1,2,9,6,3,1,8,1,5,-1,4,1,4],"shift_direction":-1,"question_num":121,"has_decoy":false},{"rt":2899.9000000003725,"stimulus":"[A] option 1, [L] option 2, [G] neither","key_press":71,"name":"choice","trial_type":"html-keyboard-response","trial_index":153,"time_elapsed":380416,"internal_node_id":"0.0-153.0","subject":"S1C1610","sona":"41856","block":6,"time":"2021-09-15T18:29:27.333Z","response":"neither","certainty":"high","char":"G","transposition":-1,"order":["swapped","shifted"],"probe_pitches":[12,9,2,7,9,5,7,9,2,0,12,2,7,2,0,5],"shifted_pitches":[12,9,2,7,9,5,7,9,3,0,12,2,7,2,0,5],"swapped_pitches":[12,9,2,7,9,5,7,2,9,0,12,2,7,2,0,5],"shift_direction":1,"question_num":131,"has_decoy":false},{"rt":871,"stimulus":"[A] option 1, [L] option 2, [G] neither","key_press":76,"name":"choice","trial_type":"html-keyboard-response","trial_index":164,"time_elapsed":409071,"internal_node_id":"0.0-164.0","subject":"S1C1610","sona":"41856","block":6,"time":"2021-09-15T18:29:27.333Z","response":"2nd","certainty":"high","char":"L","transposition":-2,"order":["swapped","shifted"],"probe_pitches":[0,5,3,5,12,5,10,12,5,0,8,10,3,10,3,5],"shifted_pitches":[0,5,3,5,12,5,10,12,4,0,8,10,3,10,3,5],"swapped_pitches":[0,5,3,5,12,5,10,5,12,0,8,10,3,10,3,5],"shift_direction":-1,"question_num":141,"has_decoy":false},{"rt":403.59999999962747,"stimulus":"[A] option 1, [L] option 2, [G] neither","key_press":76,"name":"choice","trial_type":"html-keyboard-response","trial_index":175,"time_elapsed":434129,"internal_node_id":"0.0-175.0","subject":"S1C1610","sona":"41856","block":6,"time":"2021-09-15T18:29:27.333Z","response":"2nd","certainty":"high","char":"L","transposition":-3,"order":["shifted","swapped"],"probe_pitches":[3,5,10,5,10,12,7,0,3,12,7,3,7,3,0,5],"shifted_pitches":[3,5,10,5,10,12,7,-1,3,12,7,3,7,3,0,5],"swapped_pitches":[3,5,10,5,10,12,7,3,0,12,7,3,7,3,0,5],"shift_direction":-1,"question_num":151,"has_decoy":false},{"rt":2475.600000000559,"stimulus":"[A] option 1, [L] option 2, [G] neither","key_press":71,"name":"choice","trial_type":"html-keyboard-response","trial_index":186,"time_elapsed":459164,"internal_node_id":"0.0-186.0","subject":"S1C1610","sona":"41856","block":6,"time":"2021-09-15T18:29:27.333Z","response":"neither","certainty":"high","char":"G","transposition":1,"order":["shifted","swapped"],"probe_pitches":[0,4,3,-2,5,9,2,0,9,-3,4,0,2,8,3,4],"shifted_pitches":[0,4,3,-2,5,9,2,1,9,-3,4,0,2,8,3,4],"swapped_pitches":[0,4,3,-2,5,9,2,9,0,-3,4,0,2,8,3,4],"shift_direction":1,"question_num":161,"has_decoy":false},{"rt":1143.9000000003725,"stimulus":"[A] option 1, [L] option 2, [G] neither","key_press":76,"name":"choice","trial_type":"html-keyboard-response","trial_index":197,"time_elapsed":482723,"internal_node_id":"0.0-197.0","subject":"S1C1610","sona":"41856","block":6,"time":"2021-09-15T18:29:27.333Z","response":"2nd","certainty":"high","char":"L","transposition":2,"order":["swapped","shifted"],"probe_pitches":[8,5,4,0,9,5,1,5,7,1,5,4,9,3,8,-2],"shifted_pitches":[8,5,4,0,9,5,1,5,6,1,5,4,9,3,8,-2],"swapped_pitches":[8,5,4,0,9,5,1,7,5,1,5,4,9,3,8,-2],"shift_direction":-1,"question_num":171,"has_decoy":false},{"rt":1746.9000000003725,"stimulus":"[A] option 1, [L] option 2, [G] neither","key_press":71,"name":"choice","trial_type":"html-keyboard-response","trial_index":208,"time_elapsed":508862,"internal_node_id":"0.0-208.0","subject":"S1C1610","sona":"41856","block":6,"time":"2021-09-15T18:29:27.333Z","response":"neither","certainty":"high","char":"G","transposition":1,"order":["swapped","shifted"],"probe_pitches":[3,5,0,5,0,3,0,7,12,0,5,10,3,10,7,12],"shifted_pitches":[3,5,0,5,0,3,0,8,12,0,5,10,3,10,7,12],"swapped_pitches":[3,5,0,5,0,3,0,12,7,0,5,10,3,10,7,12],"shift_direction":1,"question_num":181,"has_decoy":false},{"rt":407.5,"stimulus":"[A] option 1, [L] option 2, [G] neither","key_press":65,"name":"choice","trial_type":"html-keyboard-response","trial_index":219,"time_elapsed":534360,"internal_node_id":"0.0-219.0","subject":"S1C1610","sona":"41856","block":6,"time":"2021-09-15T18:29:27.333Z","response":"1st","certainty":"high","char":"A","transposition":-1,"order":["shifted","swapped"],"probe_pitches":[10,12,5,3,0,10,5,0,12,5,8,10,12,3,12,8],"shifted_pitches":[10,12,5,3,0,10,5,-1,12,5,8,10,12,3,12,8],"swapped_pitches":[10,12,5,3,0,10,5,12,0,5,8,10,12,3,12,8],"shift_direction":-1,"question_num":191,"has_decoy":false}]