[{"rt":520.2999999523163,"stimulus":"[A] option 1, [L] option 2, [G] neither","key_press":65,"name":"choice","trial_type":"html-keyboard-response","trial_index":10,"time_elapsed":15658,"internal_node_id":"0.0-10.0","subject":"S1C0816","sona":"41639","block":5,"time":"2021-09-15T23:18:37.871Z","response":"1st","certainty":"high","char":"A","transposition":2,"order":["swapped","shifted"],"probe_pitches":[-1,-2,4,7,2,0,7,5],"shifted_pitches":[-1,-2,4,8,2,0,7,5],"swapped_pitches":[-1,-2,4,2,7,0,7,5],"shift_direction":1,"question_num":1,"has_decoy":false},{"rt":507.1999999284744,"stimulus":"[A] option 1, [L] option 2, [G] neither","key_press":65,"name":"choice","trial_type":"html-keyboard-response","trial_index":21,"time_elapsed":31465,"internal_node_id":"0.0-21.0","subject":"S1C0816","sona":"41639","block":5,"time":"2021-09-15T23:18:37.871Z","response":"1st","certainty":"high","char":"A","transposition":-3,"order":["shifted","swapped"],"probe_pitches":[11,8,1,-1,3,6,1,6],"shifted_pitches":[11,8,1,-1,2,6,1,6],"swapped_pitches":[11,8,1,3,-1,6,1,6],"shift_direction":-1,"question_num":11,"has_decoy":false},{"rt":401.2000000476837,"stimulus":"[A] option 1, [L] option 2, [G] neither","key_press":65,"name":"choice","trial_type":"html-keyboard-response","trial_index":32,"time_elapsed":46559,"internal_node_id":"0.0-32.0","subject":"S1C0816","sona":"41639","block":5,"time":"2021-09-15T23:18:37.871Z","response":"1st","certainty":"high","char":"A","transposition":2,"order":["swapped","shifted"],"probe_pitches":[1,6,9,11,4,-1,4,11],"shifted_pitches":[1,6,9,12,4,-1,4,11],"swapped_pitches":[1,6,9,4,11,-1,4,11],"shift_direction":1,"question_num":21,"has_decoy":false},{"rt":1084,"stimulus":"[A] option 1, [L] option 2, [G] neither","key_press":65,"name":"choice","trial_type":"html-keyboard-response","trial_index":43,"time_elapsed":62012,"internal_node_id":"0.0-43.0","subject":"S1C0816","sona":"41639","block":5,"time":"2021-09-15T23:18:37.871Z","response":"1st","certainty":"high","char":"A","transposition":3,"order":["shifted","swapped"],"probe_pitches":[5,6,5,1,8,5,0,9],"shifted_pitches":[5,6,5,1,7,5,0,9],"swapped_pitches":[5,6,5,8,1,5,0,9],"shift_direction":-1,"question_num":31,"has_decoy":false},{"rt":1027.5,"stimulus":"[A] option 1, [L] option 2, [G] neither","key_press":65,"name":"choice","trial_type":"html-keyboard-response","trial_index":54,"time_elapsed":77665,"internal_node_id":"0.0-54.0","subject":"S1C0816","sona":"41639","block":5,"time":"2021-09-15T23:18:37.871Z","response":"1st","certainty":"high","char":"A","transposition":-3,"order":["swapped","shifted"],"probe_pitches":[5,9,7,1,3,-2,6,-2],"shifted_pitches":[5,9,7,1,2,-2,6,-2],"swapped_pitches":[5,9,7,3,1,-2,6,-2],"shift_direction":-1,"question_num":41,"has_decoy":false},{"rt":408.1999999284744,"stimulus":"[A] option 1, [L] option 2, [G] neither","key_press":76,"name":"choice","trial_type":"html-keyboard-response","trial_index":65,"time_elapsed":92816,"internal_node_id":"0.0-65.0","subject":"S1C0816","sona":"41639","block":5,"time":"2021-09-15T23:18:37.871Z","response":"2nd","certainty":"high","char":"L","transposition":-2,"order":["shifted","swapped"],"probe_pitches":[1,6,8,4,0,7,-2,6],"shifted_pitches":[1,6,8,5,0,7,-2,6],"swapped_pitches":[1,6,8,0,4,7,-2,6],"shift_direction":1,"question_num":51,"has_decoy":false},{"rt":1009.2000000476837,"stimulus":"[A] option 1, [L] option 2, [G] neither","key_press":65,"name":"choice","trial_type":"html-keyboard-response","trial_index":76,"time_elapsed":108537,"internal_node_id":"0.0-76.0","subject":"S1C0816","sona":"41639","block":5,"time":"2021-09-15T23:18:37.871Z","response":"1st","certainty":"high","char":"A","transposition":1,"order":["shifted","swapped"],"probe_pitches":[7,6,1,5,3,-1,5,-1],"shifted_pitches":[7,6,1,4,3,-1,5,-1],"swapped_pitches":[7,6,1,3,5,-1,5,-1],"shift_direction":-1,"question_num":61,"has_decoy":false},{"rt":349.10000002384186,"stimulus":"[A] option 1, [L] option 2, [G] neither","key_press":76,"name":"choice","trial_type":"html-keyboard-response","trial_index":87,"time_elapsed":123576,"internal_node_id":"0.0-87.0","subject":"S1C0816","sona":"41639","block":5,"time":"2021-09-15T23:18:37.871Z","response":"2nd","certainty":"high","char":"L","transposition":-2,"order":["shifted","swapped"],"probe_pitches":[8,11,6,11,3,-1,1,11],"shifted_pitches":[8,11,6,11,4,-1,1,11],"swapped_pitches":[8,11,6,3,11,-1,1,11],"shift_direction":1,"question_num":71,"has_decoy":false},{"rt":562.6999999284744,"stimulus":"[A] option 1, [L] option 2, [G] neither","key_press":76,"name":"choice","trial_type":"html-keyboard-response","trial_index":98,"time_elapsed":138550,"internal_node_id":"0.0-98.0","subject":"S1C0816","sona":"41639","block":5,"time":"2021-09-15T23:18:37.871Z","response":"2nd","certainty":"high","char":"L","transposition":-2,"order":["shifted","swapped"],"probe_pitches":[8,7,1,-2,2,8,-2,3],"shifted_pitches":[8,7,1,-3,2,8,-2,3],"swapped_pitches":[8,7,1,2,-2,8,-2,3],"shift_direction":-1,"question_num":81,"has_decoy":false},{"rt":4958.899999976158,"stimulus":"[A] option 1, [L] option 2, [G] neither","key_press":76,"name":"choice","trial_type":"html-keyboard-response","trial_index":109,"time_elapsed":158056,"internal_node_id":"0.0-109.0","subject":"S1C0816","sona":"41639","block":5,"time":"2021-09-15T23:18:37.871Z","response":"2nd","certainty":"high","char":"L","transposition":-1,"order":["swapped","shifted"],"probe_pitches":[9,8,5,6,2,8,-1,6],"shifted_pitches":[9,8,5,6,3,8,-1,6],"swapped_pitches":[9,8,5,2,6,8,-1,6],"shift_direction":1,"question_num":91,"has_decoy":false},{"rt":356.89999997615814,"stimulus":"[A] option 1, [L] option 2, [G] neither","key_press":76,"name":"choice","trial_type":"html-keyboard-response","trial_index":120,"time_elapsed":173174,"internal_node_id":"0.0-120.0","subject":"S1C0816","sona":"41639","block":5,"time":"2021-09-15T23:18:37.871Z","response":"2nd","certainty":"high","char":"L","transposition":-1,"order":["shifted","swapped"],"probe_pitches":[8,4,8,11,6,1,-1,11],"shifted_pitches":[8,4,8,10,6,1,-1,11],"swapped_pitches":[8,4,8,6,11,1,-1,11],"shift_direction":-1,"question_num":101,"has_decoy":false},{"rt":824.2000000476837,"stimulus":"[A] option 1, [L] option 2, [G] neither","key_press":65,"name":"choice","trial_type":"html-keyboard-response","trial_index":131,"time_elapsed":188420,"internal_node_id":"0.0-131.0","subject":"S1C0816","sona":"41639","block":5,"time":"2021-09-15T23:18:37.871Z","response":"1st","certainty":"high","char":"A","transposition":-1,"order":["shifted","swapped"],"probe_pitches":[2,4,9,2,7,11,7,9],"shifted_pitches":[2,4,9,3,7,11,7,9],"swapped_pitches":[2,4,9,7,2,11,7,9],"shift_direction":1,"question_num":111,"has_decoy":false},{"rt":2010.8999999761581,"stimulus":"[A] option 1, [L] option 2, [G] neither","key_press":76,"name":"choice","trial_type":"html-keyboard-response","trial_index":142,"time_elapsed":205447,"internal_node_id":"0.0-142.0","subject":"S1C0816","sona":"41639","block":5,"time":"2021-09-15T23:18:37.871Z","response":"2nd","certainty":"high","char":"L","transposition":0,"order":["swapped","shifted"],"probe_pitches":[-1,4,9,1,-1,6,1,6],"shifted_pitches":[-1,4,9,2,-1,6,1,6],"swapped_pitches":[-1,4,9,-1,1,6,1,6],"shift_direction":1,"question_num":121,"has_decoy":false},{"rt":629.5,"stimulus":"[A] option 1, [L] option 2, [G] neither","key_press":65,"name":"choice","trial_type":"html-keyboard-response","trial_index":153,"time_elapsed":220698,"internal_node_id":"0.0-153.0","subject":"S1C0816","sona":"41639","block":5,"time":"2021-09-15T23:18:37.871Z","response":"1st","certainty":"high","char":"A","transposition":1,"order":["swapped","shifted"],"probe_pitches":[11,7,2,9,11,4,9,4],"shifted_pitches":[11,7,2,8,11,4,9,4],"swapped_pitches":[11,7,2,11,9,4,9,4],"shift_direction":-1,"question_num":131,"has_decoy":false},{"rt":361.5,"stimulus":"[A] option 1, [L] option 2, [G] neither","key_press":65,"name":"choice","trial_type":"html-keyboard-response","trial_index":164,"time_elapsed":235620,"internal_node_id":"0.0-164.0","subject":"S1C0816","sona":"41639","block":5,"time":"2021-09-15T23:18:37.871Z","response":"1st","certainty":"high","char":"A","transposition":3,"order":["swapped","shifted"],"probe_pitches":[2,6,-1,4,9,2,6,-1],"shifted_pitches":[2,6,-1,4,10,2,6,-1],"swapped_pitches":[2,6,-1,9,4,2,6,-1],"shift_direction":1,"question_num":141,"has_decoy":false},{"rt":393.39999997615814,"stimulus":"[A] option 1, [L] option 2, [G] neither","key_press":65,"name":"choice","trial_type":"html-keyboard-response","trial_index":175,"time_elapsed":251352,"internal_node_id":"0.0-175.0","subject":"S1C0816","sona":"41639","block":5,"time":"2021-09-15T23:18:37.871Z","response":"1st","certainty":"high","char":"A","transposition":0,"order":["shifted","swapped"],"probe_pitches":[5,4,7,9,0,7,10,6],"shifted_pitches":[5,4,7,9,1,7,10,6],"swapped_pitches":[5,4,7,0,9,7,10,6],"shift_direction":1,"question_num":151,"has_decoy":false},{"rt":357.89999997615814,"stimulus":"[A] option 1, [L] option 2, [G] neither","key_press":65,"name":"choice","trial_type":"html-keyboard-response","trial_index":186,"time_elapsed":266785,"internal_node_id":"0.0-186.0","subject":"S1C0816","sona":"41639","block":5,"time":"2021-09-15T23:18:37.871Z","response":"1st","certainty":"high","char":"A","transposition":-3,"order":["shifted","swapped"],"probe_pitches":[9,4,11,6,4,2,6,2],"shifted_pitches":[9,4,11,6,3,2,6,2],"swapped_pitches":[9,4,11,4,6,2,6,2],"shift_direction":-1,"question_num":161,"has_decoy":false},{"rt":530.7000000476837,"stimulus":"[A] option 1, [L] option 2, [G] neither","key_press":65,"name":"choice","trial_type":"html-keyboard-response","trial_index":197,"time_elapsed":282377,"internal_node_id":"0.0-197.0","subject":"S1C0816","sona":"41639","block":5,"time":"2021-09-15T23:18:37.871Z","response":"1st","certainty":"high","char":"A","transposition":-3,"order":["swapped","shifted"],"probe_pitches":[9,4,2,-1,5,3,10,5],"shifted_pitches":[9,4,2,-1,6,3,10,5],"swapped_pitches":[9,4,2,5,-1,3,10,5],"shift_direction":1,"question_num":171,"has_decoy":false},{"rt":473.5,"stimulus":"[A] option 1, [L] option 2, [G] neither","key_press":65,"name":"choice","trial_type":"html-keyboard-response","trial_index":208,"time_elapsed":297490,"internal_node_id":"0.0-208.0","subject":"S1C0816","sona":"41639","block":5,"time":"2021-09-15T23:18:37.871Z","response":"1st","certainty":"high","char":"A","transposition":-1,"order":["swapped","shifted"],"probe_pitches":[2,4,-2,1,4,3,5,-2],"shifted_pitches":[2,4,-2,0,4,3,5,-2],"swapped_pitches":[2,4,-2,4,1,3,5,-2],"shift_direction":-1,"question_num":181,"has_decoy":false},{"rt":511.10000002384186,"stimulus":"[A] option 1, [L] option 2, [G] neither","key_press":76,"name":"choice","trial_type":"html-keyboard-response","trial_index":219,"time_elapsed":313148,"internal_node_id":"0.0-219.0","subject":"S1C0816","sona":"41639","block":5,"time":"2021-09-15T23:18:37.871Z","response":"2nd","certainty":"high","char":"L","transposition":-2,"order":["swapped","shifted"],"probe_pitches":[-1,4,1,6,-1,8,-1,4],"shifted_pitches":[-1,4,1,6,-2,8,-1,4],"swapped_pitches":[-1,4,1,-1,6,8,-1,4],"shift_direction":-1,"question_num":191,"has_decoy":false}]