[{"rt":264.39999997615814,"stimulus":"[A] option 1, [L] option 2, [G] neither","key_press":76,"name":"choice","trial_type":"html-keyboard-response","trial_index":10,"time_elapsed":14513,"internal_node_id":"0.0-10.0","subject":"S1C0816","sona":"41639","block":2,"time":"2021-09-15T23:01:54.398Z","response":"2nd","certainty":"high","char":"L","transposition":-2,"order":["swapped","shifted"],"probe_pitches":[8,11,8,6,1,11,4,8],"shifted_pitches":[8,11,8,7,1,11,4,8],"swapped_pitches":[8,11,8,1,6,11,4,8],"shift_direction":1,"question_num":1,"has_decoy":false},{"rt":297.1999999284744,"stimulus":"[A] option 1, [L] option 2, [G] neither","key_press":76,"name":"choice","trial_type":"html-keyboard-response","trial_index":21,"time_elapsed":29106,"internal_node_id":"0.0-21.0","subject":"S1C0816","sona":"41639","block":2,"time":"2021-09-15T23:01:54.398Z","response":"2nd","certainty":"high","char":"L","transposition":-1,"order":["shifted","swapped"],"probe_pitches":[6,3,1,3,6,8,1,10],"shifted_pitches":[6,3,1,3,7,8,1,10],"swapped_pitches":[6,3,1,6,3,8,1,10],"shift_direction":1,"question_num":11,"has_decoy":false},{"rt":265.60000002384186,"stimulus":"[A] option 1, [L] option 2, [G] neither","key_press":76,"name":"choice","trial_type":"html-keyboard-response","trial_index":32,"time_elapsed":43692,"internal_node_id":"0.0-32.0","subject":"S1C0816","sona":"41639","block":2,"time":"2021-09-15T23:01:54.398Z","response":"2nd","certainty":"high","char":"L","transposition":-3,"order":["swapped","shifted"],"probe_pitches":[6,10,3,8,13,6,13,3],"shifted_pitches":[6,10,3,9,13,6,13,3],"swapped_pitches":[6,10,3,13,8,6,13,3],"shift_direction":1,"question_num":21,"has_decoy":false},{"rt":520.3999999761581,"stimulus":"[A] option 1, [L] option 2, [G] neither","key_press":65,"name":"choice","trial_type":"html-keyboard-response","trial_index":43,"time_elapsed":58486,"internal_node_id":"0.0-43.0","subject":"S1C0816","sona":"41639","block":2,"time":"2021-09-15T23:01:54.398Z","response":"1st","certainty":"high","char":"A","transposition":0,"order":["shifted","swapped"],"probe_pitches":[9,13,11,9,4,6,1,13],"shifted_pitches":[9,13,11,9,5,6,1,13],"swapped_pitches":[9,13,11,4,9,6,1,13],"shift_direction":1,"question_num":31,"has_decoy":false},{"rt":473.60000002384186,"stimulus":"[A] option 1, [L] option 2, [G] neither","key_press":76,"name":"choice","trial_type":"html-keyboard-response","trial_index":54,"time_elapsed":73669,"internal_node_id":"0.0-54.0","subject":"S1C0816","sona":"41639","block":2,"time":"2021-09-15T23:01:54.398Z","response":"2nd","certainty":"high","char":"L","transposition":1,"order":["swapped","shifted"],"probe_pitches":[13,8,10,5,8,3,1,5],"shifted_pitches":[13,8,10,4,8,3,1,5],"swapped_pitches":[13,8,10,8,5,3,1,5],"shift_direction":-1,"question_num":41,"has_decoy":false},{"rt":318.2999999523163,"stimulus":"[A] option 1, [L] option 2, [G] neither","key_press":76,"name":"choice","trial_type":"html-keyboard-response","trial_index":65,"time_elapsed":88607,"internal_node_id":"0.0-65.0","subject":"S1C0816","sona":"41639","block":2,"time":"2021-09-15T23:01:54.398Z","response":"2nd","certainty":"high","char":"L","transposition":0,"order":["shifted","swapped"],"probe_pitches":[14,12,6,4,11,13,14,13],"shifted_pitches":[14,12,6,4,10,13,14,13],"swapped_pitches":[14,12,6,11,4,13,14,13],"shift_direction":-1,"question_num":51,"has_decoy":false},{"rt":388.6999999284744,"stimulus":"[A] option 1, [L] option 2, [G] neither","key_press":76,"name":"choice","trial_type":"html-keyboard-response","trial_index":76,"time_elapsed":103437,"internal_node_id":"0.0-76.0","subject":"S1C0816","sona":"41639","block":2,"time":"2021-09-15T23:01:54.398Z","response":"2nd","certainty":"high","char":"L","transposition":-2,"order":["swapped","shifted"],"probe_pitches":[2,3,8,5,12,13,9,14],"shifted_pitches":[2,3,8,5,11,13,9,14],"swapped_pitches":[2,3,8,12,5,13,9,14],"shift_direction":-1,"question_num":61,"has_decoy":false},{"rt":378.60000002384186,"stimulus":"[A] option 1, [L] option 2, [G] neither","key_press":76,"name":"choice","trial_type":"html-keyboard-response","trial_index":87,"time_elapsed":118115,"internal_node_id":"0.0-87.0","subject":"S1C0816","sona":"41639","block":2,"time":"2021-09-15T23:01:54.398Z","response":"2nd","certainty":"high","char":"L","transposition":-3,"order":["shifted","swapped"],"probe_pitches":[9,5,7,11,5,2,9,4],"shifted_pitches":[9,5,7,12,5,2,9,4],"swapped_pitches":[9,5,7,5,11,2,9,4],"shift_direction":1,"question_num":71,"has_decoy":false},{"rt":507.2000000476837,"stimulus":"[A] option 1, [L] option 2, [G] neither","key_press":65,"name":"choice","trial_type":"html-keyboard-response","trial_index":98,"time_elapsed":132995,"internal_node_id":"0.0-98.0","subject":"S1C0816","sona":"41639","block":2,"time":"2021-09-15T23:01:54.398Z","response":"1st","certainty":"high","char":"A","transposition":-1,"order":["swapped","shifted"],"probe_pitches":[8,4,11,14,6,3,10,3],"shifted_pitches":[8,4,11,14,5,3,10,3],"swapped_pitches":[8,4,11,6,14,3,10,3],"shift_direction":-1,"question_num":81,"has_decoy":false},{"rt":245,"stimulus":"[A] option 1, [L] option 2, [G] neither","key_press":76,"name":"choice","trial_type":"html-keyboard-response","trial_index":109,"time_elapsed":147803,"internal_node_id":"0.0-109.0","subject":"S1C0816","sona":"41639","block":2,"time":"2021-09-15T23:01:54.398Z","response":"2nd","certainty":"high","char":"L","transposition":3,"order":["shifted","swapped"],"probe_pitches":[5,8,5,8,1,5,10,3],"shifted_pitches":[5,8,5,7,1,5,10,3],"swapped_pitches":[5,8,5,1,8,5,10,3],"shift_direction":-1,"question_num":91,"has_decoy":false},{"rt":270.7000000476837,"stimulus":"[A] option 1, [L] option 2, [G] neither","key_press":76,"name":"choice","trial_type":"html-keyboard-response","trial_index":120,"time_elapsed":162389,"internal_node_id":"0.0-120.0","subject":"S1C0816","sona":"41639","block":2,"time":"2021-09-15T23:01:54.398Z","response":"2nd","certainty":"high","char":"L","transposition":-1,"order":["shifted","swapped"],"probe_pitches":[3,6,3,8,13,11,1,3],"shifted_pitches":[3,6,3,7,13,11,1,3],"swapped_pitches":[3,6,3,13,8,11,1,3],"shift_direction":-1,"question_num":101,"has_decoy":false},{"rt":1294,"stimulus":"[A] option 1, [L] option 2, [G] neither","key_press":76,"name":"choice","trial_type":"html-keyboard-response","trial_index":131,"time_elapsed":177992,"internal_node_id":"0.0-131.0","subject":"S1C0816","sona":"41639","block":2,"time":"2021-09-15T23:01:54.398Z","response":"2nd","certainty":"high","char":"L","transposition":1,"order":["swapped","shifted"],"probe_pitches":[4,7,6,2,7,5,6,2],"shifted_pitches":[4,7,6,1,7,5,6,2],"swapped_pitches":[4,7,6,7,2,5,6,2],"shift_direction":-1,"question_num":111,"has_decoy":false},{"rt":374,"stimulus":"[A] option 1, [L] option 2, [G] neither","key_press":76,"name":"choice","trial_type":"html-keyboard-response","trial_index":142,"time_elapsed":193302,"internal_node_id":"0.0-142.0","subject":"S1C0816","sona":"41639","block":2,"time":"2021-09-15T23:01:54.398Z","response":"2nd","certainty":"high","char":"L","transposition":2,"order":["shifted","swapped"],"probe_pitches":[1,6,11,4,9,1,11,13],"shifted_pitches":[1,6,11,4,8,1,11,13],"swapped_pitches":[1,6,11,9,4,1,11,13],"shift_direction":-1,"question_num":121,"has_decoy":false},{"rt":685.9000000953674,"stimulus":"[A] option 1, [L] option 2, [G] neither","key_press":65,"name":"choice","trial_type":"html-keyboard-response","trial_index":153,"time_elapsed":208604,"internal_node_id":"0.0-153.0","subject":"S1C0816","sona":"41639","block":2,"time":"2021-09-15T23:01:54.398Z","response":"1st","certainty":"high","char":"A","transposition":3,"order":["swapped","shifted"],"probe_pitches":[12,14,11,10,7,9,10,2],"shifted_pitches":[12,14,11,10,8,9,10,2],"swapped_pitches":[12,14,11,7,10,9,10,2],"shift_direction":1,"question_num":131,"has_decoy":false},{"rt":320.7999999523163,"stimulus":"[A] option 1, [L] option 2, [G] neither","key_press":76,"name":"choice","trial_type":"html-keyboard-response","trial_index":164,"time_elapsed":223429,"internal_node_id":"0.0-164.0","subject":"S1C0816","sona":"41639","block":2,"time":"2021-09-15T23:01:54.398Z","response":"2nd","certainty":"high","char":"L","transposition":-2,"order":["shifted","swapped"],"probe_pitches":[14,11,5,6,3,10,11,5],"shifted_pitches":[14,11,5,6,4,10,11,5],"swapped_pitches":[14,11,5,3,6,10,11,5],"shift_direction":1,"question_num":141,"has_decoy":false},{"rt":1648.8000000715256,"stimulus":"[A] option 1, [L] option 2, [G] neither","key_press":76,"name":"choice","trial_type":"html-keyboard-response","trial_index":175,"time_elapsed":239477,"internal_node_id":"0.0-175.0","subject":"S1C0816","sona":"41639","block":2,"time":"2021-09-15T23:01:54.398Z","response":"2nd","certainty":"high","char":"L","transposition":-1,"order":["shifted","swapped"],"probe_pitches":[8,3,2,6,5,12,13,8],"shifted_pitches":[8,3,2,7,5,12,13,8],"swapped_pitches":[8,3,2,5,6,12,13,8],"shift_direction":1,"question_num":151,"has_decoy":false},{"rt":486.5,"stimulus":"[A] option 1, [L] option 2, [G] neither","key_press":65,"name":"choice","trial_type":"html-keyboard-response","trial_index":186,"time_elapsed":254847,"internal_node_id":"0.0-186.0","subject":"S1C0816","sona":"41639","block":2,"time":"2021-09-15T23:01:54.398Z","response":"1st","certainty":"high","char":"A","transposition":-2,"order":["swapped","shifted"],"probe_pitches":[11,13,6,4,11,13,8,1],"shifted_pitches":[11,13,6,4,12,13,8,1],"swapped_pitches":[11,13,6,11,4,13,8,1],"shift_direction":1,"question_num":161,"has_decoy":false},{"rt":2140,"stimulus":"[A] option 1, [L] option 2, [G] neither","key_press":76,"name":"choice","trial_type":"html-keyboard-response","trial_index":197,"time_elapsed":271438,"internal_node_id":"0.0-197.0","subject":"S1C0816","sona":"41639","block":2,"time":"2021-09-15T23:01:54.398Z","response":"2nd","certainty":"high","char":"L","transposition":-3,"order":["swapped","shifted"],"probe_pitches":[1,3,1,6,11,8,1,11],"shifted_pitches":[1,3,1,6,10,8,1,11],"swapped_pitches":[1,3,1,11,6,8,1,11],"shift_direction":-1,"question_num":171,"has_decoy":false},{"rt":790,"stimulus":"[A] option 1, [L] option 2, [G] neither","key_press":76,"name":"choice","trial_type":"html-keyboard-response","trial_index":208,"time_elapsed":286975,"internal_node_id":"0.0-208.0","subject":"S1C0816","sona":"41639","block":2,"time":"2021-09-15T23:01:54.398Z","response":"2nd","certainty":"high","char":"L","transposition":-3,"order":["swapped","shifted"],"probe_pitches":[4,8,4,8,10,14,5,8],"shifted_pitches":[4,8,4,9,10,14,5,8],"swapped_pitches":[4,8,4,10,8,14,5,8],"shift_direction":1,"question_num":181,"has_decoy":false},{"rt":372.60000002384186,"stimulus":"[A] option 1, [L] option 2, [G] neither","key_press":76,"name":"choice","trial_type":"html-keyboard-response","trial_index":219,"time_elapsed":302038,"internal_node_id":"0.0-219.0","subject":"S1C0816","sona":"41639","block":2,"time":"2021-09-15T23:01:54.398Z","response":"2nd","certainty":"high","char":"L","transposition":2,"order":["shifted","swapped"],"probe_pitches":[8,7,12,7,5,13,10,14],"shifted_pitches":[8,7,12,6,5,13,10,14],"swapped_pitches":[8,7,12,5,7,13,10,14],"shift_direction":-1,"question_num":191,"has_decoy":false}]