[{"rt":756.8999999761581,"stimulus":"[A] option 1, [L] option 2, [G] neither","key_press":76,"name":"choice","trial_type":"html-keyboard-response","trial_index":10,"time_elapsed":15979,"internal_node_id":"0.0-10.0","subject":"S1C0816","sona":"41639","block":6,"time":"2021-09-15T23:27:28.091Z","response":"2nd","certainty":"high","char":"L","transposition":-2,"order":["swapped","shifted"],"probe_pitches":[2,-1,1,4,-2,-1,7,-1],"shifted_pitches":[2,-1,1,3,-2,-1,7,-1],"swapped_pitches":[2,-1,1,-2,4,-1,7,-1],"shift_direction":-1,"question_num":1,"has_decoy":false},{"rt":407.39999997615814,"stimulus":"[A] option 1, [L] option 2, [G] neither","key_press":76,"name":"choice","trial_type":"html-keyboard-response","trial_index":21,"time_elapsed":30860,"internal_node_id":"0.0-21.0","subject":"S1C0816","sona":"41639","block":6,"time":"2021-09-15T23:27:28.091Z","response":"2nd","certainty":"high","char":"L","transposition":-3,"order":["shifted","swapped"],"probe_pitches":[1,-2,3,8,6,1,8,6],"shifted_pitches":[1,-2,3,8,5,1,8,6],"swapped_pitches":[1,-2,3,6,8,1,8,6],"shift_direction":-1,"question_num":11,"has_decoy":false},{"rt":387.39999997615814,"stimulus":"[A] option 1, [L] option 2, [G] neither","key_press":76,"name":"choice","trial_type":"html-keyboard-response","trial_index":32,"time_elapsed":45790,"internal_node_id":"0.0-32.0","subject":"S1C0816","sona":"41639","block":6,"time":"2021-09-15T23:27:28.091Z","response":"2nd","certainty":"high","char":"L","transposition":3,"order":["shifted","swapped"],"probe_pitches":[10,7,0,2,-2,5,0,-2],"shifted_pitches":[10,7,0,2,-1,5,0,-2],"swapped_pitches":[10,7,0,-2,2,5,0,-2],"shift_direction":1,"question_num":21,"has_decoy":false},{"rt":590.9000000953674,"stimulus":"[A] option 1, [L] option 2, [G] neither","key_press":65,"name":"choice","trial_type":"html-keyboard-response","trial_index":43,"time_elapsed":60821,"internal_node_id":"0.0-43.0","subject":"S1C0816","sona":"41639","block":6,"time":"2021-09-15T23:27:28.091Z","response":"1st","certainty":"high","char":"A","transposition":-2,"order":["shifted","swapped"],"probe_pitches":[10,7,3,7,5,0,7,0],"shifted_pitches":[10,7,3,7,6,0,7,0],"swapped_pitches":[10,7,3,5,7,0,7,0],"shift_direction":1,"question_num":31,"has_decoy":false},{"rt":325,"stimulus":"[A] option 1, [L] option 2, [G] neither","key_press":76,"name":"choice","trial_type":"html-keyboard-response","trial_index":54,"time_elapsed":76004,"internal_node_id":"0.0-54.0","subject":"S1C0816","sona":"41639","block":6,"time":"2021-09-15T23:27:28.091Z","response":"2nd","certainty":"high","char":"L","transposition":-3,"order":["swapped","shifted"],"probe_pitches":[3,8,5,8,0,3,-2,3],"shifted_pitches":[3,8,5,9,0,3,-2,3],"swapped_pitches":[3,8,5,0,8,3,-2,3],"shift_direction":1,"question_num":41,"has_decoy":false},{"rt":2280.7999999523163,"stimulus":"[A] option 1, [L] option 2, [G] neither","key_press":65,"name":"choice","trial_type":"html-keyboard-response","trial_index":65,"time_elapsed":92900,"internal_node_id":"0.0-65.0","subject":"S1C0816","sona":"41639","block":6,"time":"2021-09-15T23:27:28.091Z","response":"1st","certainty":"high","char":"A","transposition":-3,"order":["shifted","swapped"],"probe_pitches":[4,7,8,0,2,4,-3,8],"shifted_pitches":[4,7,8,0,1,4,-3,8],"swapped_pitches":[4,7,8,2,0,4,-3,8],"shift_direction":-1,"question_num":51,"has_decoy":false},{"rt":3758.600000023842,"stimulus":"[A] option 1, [L] option 2, [G] neither","key_press":76,"name":"choice","trial_type":"html-keyboard-response","trial_index":76,"time_elapsed":111118,"internal_node_id":"0.0-76.0","subject":"S1C0816","sona":"41639","block":6,"time":"2021-09-15T23:27:28.091Z","response":"2nd","certainty":"high","char":"L","transposition":-3,"order":["swapped","shifted"],"probe_pitches":[9,8,3,-3,6,1,9,2],"shifted_pitches":[9,8,3,-3,7,1,9,2],"swapped_pitches":[9,8,3,6,-3,1,9,2],"shift_direction":1,"question_num":61,"has_decoy":false},{"rt":379.5,"stimulus":"[A] option 1, [L] option 2, [G] neither","key_press":76,"name":"choice","trial_type":"html-keyboard-response","trial_index":87,"time_elapsed":209344,"internal_node_id":"0.0-87.0","subject":"S1C0816","sona":"41639","block":6,"time":"2021-09-15T23:27:28.091Z","response":"2nd","certainty":"high","char":"L","transposition":3,"order":["swapped","shifted"],"probe_pitches":[6,8,1,0,9,1,3,5],"shifted_pitches":[6,8,1,-1,9,1,3,5],"swapped_pitches":[6,8,1,9,0,1,3,5],"shift_direction":-1,"question_num":71,"has_decoy":false},{"rt":290.10000002384186,"stimulus":"[A] option 1, [L] option 2, [G] neither","key_press":76,"name":"choice","trial_type":"html-keyboard-response","trial_index":98,"time_elapsed":224125,"internal_node_id":"0.0-98.0","subject":"S1C0816","sona":"41639","block":6,"time":"2021-09-15T23:27:28.091Z","response":"2nd","certainty":"high","char":"L","transposition":2,"order":["shifted","swapped"],"probe_pitches":[4,6,5,9,7,3,0,2],"shifted_pitches":[4,6,5,9,8,3,0,2],"swapped_pitches":[4,6,5,7,9,3,0,2],"shift_direction":1,"question_num":81,"has_decoy":false},{"rt":342.59999990463257,"stimulus":"[A] option 1, [L] option 2, [G] neither","key_press":76,"name":"choice","trial_type":"html-keyboard-response","trial_index":109,"time_elapsed":239087,"internal_node_id":"0.0-109.0","subject":"S1C0816","sona":"41639","block":6,"time":"2021-09-15T23:27:28.091Z","response":"2nd","certainty":"high","char":"L","transposition":2,"order":["swapped","shifted"],"probe_pitches":[10,8,1,3,5,8,-2,3],"shifted_pitches":[10,8,1,2,5,8,-2,3],"swapped_pitches":[10,8,1,5,3,8,-2,3],"shift_direction":-1,"question_num":91,"has_decoy":false},{"rt":578.1000000238419,"stimulus":"[A] option 1, [L] option 2, [G] neither","key_press":65,"name":"choice","trial_type":"html-keyboard-response","trial_index":120,"time_elapsed":353745,"internal_node_id":"0.0-120.0","subject":"S1C0816","sona":"41639","block":6,"time":"2021-09-15T23:27:28.091Z","response":"1st","certainty":"high","char":"A","transposition":-1,"order":["swapped","shifted"],"probe_pitches":[2,5,2,7,0,5,-2,0],"shifted_pitches":[2,5,2,6,0,5,-2,0],"swapped_pitches":[2,5,2,0,7,5,-2,0],"shift_direction":-1,"question_num":101,"has_decoy":false},{"rt":364,"stimulus":"[A] option 1, [L] option 2, [G] neither","key_press":65,"name":"choice","trial_type":"html-keyboard-response","trial_index":131,"time_elapsed":368871,"internal_node_id":"0.0-131.0","subject":"S1C0816","sona":"41639","block":6,"time":"2021-09-15T23:27:28.091Z","response":"1st","certainty":"high","char":"A","transposition":-1,"order":["swapped","shifted"],"probe_pitches":[9,3,9,4,-3,7,4,-1],"shifted_pitches":[9,3,9,5,-3,7,4,-1],"swapped_pitches":[9,3,9,-3,4,7,4,-1],"shift_direction":1,"question_num":111,"has_decoy":false},{"rt":370.60000002384186,"stimulus":"[A] option 1, [L] option 2, [G] neither","key_press":76,"name":"choice","trial_type":"html-keyboard-response","trial_index":142,"time_elapsed":383868,"internal_node_id":"0.0-142.0","subject":"S1C0816","sona":"41639","block":6,"time":"2021-09-15T23:27:28.091Z","response":"2nd","certainty":"high","char":"L","transposition":0,"order":["shifted","swapped"],"probe_pitches":[0,-2,3,7,0,-2,3,5],"shifted_pitches":[0,-2,3,6,0,-2,3,5],"swapped_pitches":[0,-2,3,0,7,-2,3,5],"shift_direction":-1,"question_num":121,"has_decoy":false},{"rt":35883.39999997616,"stimulus":"[A] option 1, [L] option 2, [G] neither","key_press":76,"name":"choice","trial_type":"html-keyboard-response","trial_index":153,"time_elapsed":434221,"internal_node_id":"0.0-153.0","subject":"S1C0816","sona":"41639","block":6,"time":"2021-09-15T23:27:28.091Z","response":"2nd","certainty":"high","char":"L","transposition":-2,"order":["swapped","shifted"],"probe_pitches":[8,10,3,6,1,8,10,8],"shifted_pitches":[8,10,3,6,0,8,10,8],"swapped_pitches":[8,10,3,1,6,8,10,8],"shift_direction":-1,"question_num":131,"has_decoy":false},{"rt":386.10000002384186,"stimulus":"[A] option 1, [L] option 2, [G] neither","key_press":76,"name":"choice","trial_type":"html-keyboard-response","trial_index":164,"time_elapsed":449474,"internal_node_id":"0.0-164.0","subject":"S1C0816","sona":"41639","block":6,"time":"2021-09-15T23:27:28.091Z","response":"2nd","certainty":"high","char":"L","transposition":0,"order":["shifted","swapped"],"probe_pitches":[1,4,3,1,-1,4,-2,4],"shifted_pitches":[1,4,3,1,0,4,-2,4],"swapped_pitches":[1,4,3,-1,1,4,-2,4],"shift_direction":1,"question_num":141,"has_decoy":false},{"rt":300.10000002384186,"stimulus":"[A] option 1, [L] option 2, [G] neither","key_press":76,"name":"choice","trial_type":"html-keyboard-response","trial_index":175,"time_elapsed":464609,"internal_node_id":"0.0-175.0","subject":"S1C0816","sona":"41639","block":6,"time":"2021-09-15T23:27:28.091Z","response":"2nd","certainty":"high","char":"L","transposition":-1,"order":["shifted","swapped"],"probe_pitches":[4,7,4,3,1,4,-2,8],"shifted_pitches":[4,7,4,2,1,4,-2,8],"swapped_pitches":[4,7,4,1,3,4,-2,8],"shift_direction":-1,"question_num":151,"has_decoy":false},{"rt":487.1999999284744,"stimulus":"[A] option 1, [L] option 2, [G] neither","key_press":65,"name":"choice","trial_type":"html-keyboard-response","trial_index":186,"time_elapsed":479706,"internal_node_id":"0.0-186.0","subject":"S1C0816","sona":"41639","block":6,"time":"2021-09-15T23:27:28.091Z","response":"1st","certainty":"high","char":"A","transposition":-2,"order":["swapped","shifted"],"probe_pitches":[-1,-2,3,-3,5,1,0,8],"shifted_pitches":[-1,-2,3,-3,4,1,0,8],"swapped_pitches":[-1,-2,3,5,-3,1,0,8],"shift_direction":-1,"question_num":161,"has_decoy":false},{"rt":359.1999999284744,"stimulus":"[A] option 1, [L] option 2, [G] neither","key_press":76,"name":"choice","trial_type":"html-keyboard-response","trial_index":197,"time_elapsed":494568,"internal_node_id":"0.0-197.0","subject":"S1C0816","sona":"41639","block":6,"time":"2021-09-15T23:27:28.091Z","response":"2nd","certainty":"high","char":"L","transposition":1,"order":["shifted","swapped"],"probe_pitches":[4,-2,3,5,-3,7,0,9],"shifted_pitches":[4,-2,3,6,-3,7,0,9],"swapped_pitches":[4,-2,3,-3,5,7,0,9],"shift_direction":1,"question_num":171,"has_decoy":false},{"rt":868.5,"stimulus":"[A] option 1, [L] option 2, [G] neither","key_press":65,"name":"choice","trial_type":"html-keyboard-response","trial_index":208,"time_elapsed":510015,"internal_node_id":"0.0-208.0","subject":"S1C0816","sona":"41639","block":6,"time":"2021-09-15T23:27:28.091Z","response":"1st","certainty":"high","char":"A","transposition":1,"order":["swapped","shifted"],"probe_pitches":[10,8,1,3,8,5,3,8],"shifted_pitches":[10,8,1,4,8,5,3,8],"swapped_pitches":[10,8,1,8,3,5,3,8],"shift_direction":1,"question_num":181,"has_decoy":false},{"rt":557,"stimulus":"[A] option 1, [L] option 2, [G] neither","key_press":76,"name":"choice","trial_type":"html-keyboard-response","trial_index":219,"time_elapsed":525386,"internal_node_id":"0.0-219.0","subject":"S1C0816","sona":"41639","block":6,"time":"2021-09-15T23:27:28.091Z","response":"2nd","certainty":"high","char":"L","transposition":-1,"order":["shifted","swapped"],"probe_pitches":[10,8,5,0,8,-2,3,10],"shifted_pitches":[10,8,5,0,9,-2,3,10],"swapped_pitches":[10,8,5,8,0,-2,3,10],"shift_direction":1,"question_num":191,"has_decoy":false}]