[{"rt":298.7999999523163,"stimulus":"[A] option 1, [L] option 2, [G] neither","key_press":76,"name":"choice","trial_type":"html-keyboard-response","trial_index":10,"time_elapsed":14637,"internal_node_id":"0.0-10.0","subject":"S1C0816","sona":"41639","block":4,"time":"2021-09-15T23:12:24.406Z","response":"2nd","certainty":"high","char":"L","transposition":-1,"order":["swapped","shifted"],"probe_pitches":[6,8,3,1,-2,6,3,6],"shifted_pitches":[6,8,3,1,-1,6,3,6],"swapped_pitches":[6,8,3,-2,1,6,3,6],"shift_direction":1,"question_num":1,"has_decoy":false},{"rt":398.89999997615814,"stimulus":"[A] option 1, [L] option 2, [G] neither","key_press":76,"name":"choice","trial_type":"html-keyboard-response","trial_index":21,"time_elapsed":29687,"internal_node_id":"0.0-21.0","subject":"S1C0816","sona":"41639","block":4,"time":"2021-09-15T23:12:24.406Z","response":"2nd","certainty":"high","char":"L","transposition":-3,"order":["shifted","swapped"],"probe_pitches":[-3,1,4,3,-1,-2,2,-1],"shifted_pitches":[-3,1,4,3,0,-2,2,-1],"swapped_pitches":[-3,1,4,-1,3,-2,2,-1],"shift_direction":1,"question_num":11,"has_decoy":false},{"rt":5115.399999976158,"stimulus":"[A] option 1, [L] option 2, [G] neither","key_press":65,"name":"choice","trial_type":"html-keyboard-response","trial_index":32,"time_elapsed":49866,"internal_node_id":"0.0-32.0","subject":"S1C0816","sona":"41639","block":4,"time":"2021-09-15T23:12:24.406Z","response":"1st","certainty":"high","char":"A","transposition":-2,"order":["shifted","swapped"],"probe_pitches":[1,-2,5,10,3,8,10,1],"shifted_pitches":[1,-2,5,10,2,8,10,1],"swapped_pitches":[1,-2,5,3,10,8,10,1],"shift_direction":-1,"question_num":21,"has_decoy":false},{"rt":706.1000000238419,"stimulus":"[A] option 1, [L] option 2, [G] neither","key_press":65,"name":"choice","trial_type":"html-keyboard-response","trial_index":43,"time_elapsed":65107,"internal_node_id":"0.0-43.0","subject":"S1C0816","sona":"41639","block":4,"time":"2021-09-15T23:12:24.406Z","response":"1st","certainty":"high","char":"A","transposition":-2,"order":["swapped","shifted"],"probe_pitches":[-2,-3,-1,-3,3,-1,1,6],"shifted_pitches":[-2,-3,-1,-3,2,-1,1,6],"swapped_pitches":[-2,-3,-1,3,-3,-1,1,6],"shift_direction":-1,"question_num":31,"has_decoy":false},{"rt":296.2000000476837,"stimulus":"[A] option 1, [L] option 2, [G] neither","key_press":76,"name":"choice","trial_type":"html-keyboard-response","trial_index":54,"time_elapsed":79947,"internal_node_id":"0.0-54.0","subject":"S1C0816","sona":"41639","block":4,"time":"2021-09-15T23:12:24.406Z","response":"2nd","certainty":"high","char":"L","transposition":0,"order":["shifted","swapped"],"probe_pitches":[-2,1,8,3,-2,6,3,10],"shifted_pitches":[-2,1,8,3,-3,6,3,10],"swapped_pitches":[-2,1,8,-2,3,6,3,10],"shift_direction":-1,"question_num":41,"has_decoy":false},{"rt":332.5,"stimulus":"[A] option 1, [L] option 2, [G] neither","key_press":76,"name":"choice","trial_type":"html-keyboard-response","trial_index":65,"time_elapsed":94873,"internal_node_id":"0.0-65.0","subject":"S1C0816","sona":"41639","block":4,"time":"2021-09-15T23:12:24.406Z","response":"2nd","certainty":"high","char":"L","transposition":-3,"order":["shifted","swapped"],"probe_pitches":[6,3,-2,4,6,3,-3,6],"shifted_pitches":[6,3,-2,5,6,3,-3,6],"swapped_pitches":[6,3,-2,6,4,3,-3,6],"shift_direction":1,"question_num":51,"has_decoy":false},{"rt":329.2000000476837,"stimulus":"[A] option 1, [L] option 2, [G] neither","key_press":76,"name":"choice","trial_type":"html-keyboard-response","trial_index":76,"time_elapsed":109550,"internal_node_id":"0.0-76.0","subject":"S1C0816","sona":"41639","block":4,"time":"2021-09-15T23:12:24.406Z","response":"2nd","certainty":"high","char":"L","transposition":-1,"order":["shifted","swapped"],"probe_pitches":[4,6,4,6,8,5,6,-2],"shifted_pitches":[4,6,4,6,7,5,6,-2],"swapped_pitches":[4,6,4,8,6,5,6,-2],"shift_direction":-1,"question_num":61,"has_decoy":false},{"rt":305.5,"stimulus":"[A] option 1, [L] option 2, [G] neither","key_press":65,"name":"choice","trial_type":"html-keyboard-response","trial_index":87,"time_elapsed":124436,"internal_node_id":"0.0-87.0","subject":"S1C0816","sona":"41639","block":4,"time":"2021-09-15T23:12:24.406Z","response":"1st","certainty":"high","char":"A","transposition":0,"order":["swapped","shifted"],"probe_pitches":[3,4,3,7,2,4,2,1],"shifted_pitches":[3,4,3,6,2,4,2,1],"swapped_pitches":[3,4,3,2,7,4,2,1],"shift_direction":-1,"question_num":71,"has_decoy":false},{"rt":441.3000000715256,"stimulus":"[A] option 1, [L] option 2, [G] neither","key_press":76,"name":"choice","trial_type":"html-keyboard-response","trial_index":98,"time_elapsed":139512,"internal_node_id":"0.0-98.0","subject":"S1C0816","sona":"41639","block":4,"time":"2021-09-15T23:12:24.406Z","response":"2nd","certainty":"high","char":"L","transposition":3,"order":["shifted","swapped"],"probe_pitches":[6,8,1,3,-3,6,8,0],"shifted_pitches":[6,8,1,4,-3,6,8,0],"swapped_pitches":[6,8,1,-3,3,6,8,0],"shift_direction":1,"question_num":81,"has_decoy":false},{"rt":370.60000002384186,"stimulus":"[A] option 1, [L] option 2, [G] neither","key_press":76,"name":"choice","trial_type":"html-keyboard-response","trial_index":109,"time_elapsed":154591,"internal_node_id":"0.0-109.0","subject":"S1C0816","sona":"41639","block":4,"time":"2021-09-15T23:12:24.406Z","response":"2nd","certainty":"high","char":"L","transposition":1,"order":["shifted","swapped"],"probe_pitches":[3,7,0,-2,3,10,5,10],"shifted_pitches":[3,7,0,-3,3,10,5,10],"swapped_pitches":[3,7,0,3,-2,10,5,10],"shift_direction":-1,"question_num":91,"has_decoy":false},{"rt":1044.6999999284744,"stimulus":"[A] option 1, [L] option 2, [G] neither","key_press":76,"name":"choice","trial_type":"html-keyboard-response","trial_index":120,"time_elapsed":170285,"internal_node_id":"0.0-120.0","subject":"S1C0816","sona":"41639","block":4,"time":"2021-09-15T23:12:24.406Z","response":"2nd","certainty":"high","char":"L","transposition":-2,"order":["swapped","shifted"],"probe_pitches":[5,2,1,6,0,4,-2,-3],"shifted_pitches":[5,2,1,6,-1,4,-2,-3],"swapped_pitches":[5,2,1,0,6,4,-2,-3],"shift_direction":-1,"question_num":101,"has_decoy":false},{"rt":380.89999997615814,"stimulus":"[A] option 1, [L] option 2, [G] neither","key_press":76,"name":"choice","trial_type":"html-keyboard-response","trial_index":131,"time_elapsed":185411,"internal_node_id":"0.0-131.0","subject":"S1C0816","sona":"41639","block":4,"time":"2021-09-15T23:12:24.406Z","response":"2nd","certainty":"high","char":"L","transposition":2,"order":["shifted","swapped"],"probe_pitches":[3,8,3,10,5,1,8,1],"shifted_pitches":[3,8,3,11,5,1,8,1],"swapped_pitches":[3,8,3,5,10,1,8,1],"shift_direction":1,"question_num":111,"has_decoy":false},{"rt":1025.5,"stimulus":"[A] option 1, [L] option 2, [G] neither","key_press":65,"name":"choice","trial_type":"html-keyboard-response","trial_index":142,"time_elapsed":201316,"internal_node_id":"0.0-142.0","subject":"S1C0816","sona":"41639","block":4,"time":"2021-09-15T23:12:24.406Z","response":"1st","certainty":"high","char":"A","transposition":2,"order":["swapped","shifted"],"probe_pitches":[7,4,9,4,-2,8,-1,-3],"shifted_pitches":[7,4,9,3,-2,8,-1,-3],"swapped_pitches":[7,4,9,-2,4,8,-1,-3],"shift_direction":-1,"question_num":121,"has_decoy":false},{"rt":2465.2999999523163,"stimulus":"[A] option 1, [L] option 2, [G] neither","key_press":65,"name":"choice","trial_type":"html-keyboard-response","trial_index":153,"time_elapsed":218463,"internal_node_id":"0.0-153.0","subject":"S1C0816","sona":"41639","block":4,"time":"2021-09-15T23:12:24.406Z","response":"1st","certainty":"high","char":"A","transposition":-2,"order":["swapped","shifted"],"probe_pitches":[0,5,0,2,5,7,0,-2],"shifted_pitches":[0,5,0,3,5,7,0,-2],"swapped_pitches":[0,5,0,5,2,7,0,-2],"shift_direction":1,"question_num":131,"has_decoy":false},{"rt":807.6999999284744,"stimulus":"[A] option 1, [L] option 2, [G] neither","key_press":65,"name":"choice","trial_type":"html-keyboard-response","trial_index":164,"time_elapsed":233874,"internal_node_id":"0.0-164.0","subject":"S1C0816","sona":"41639","block":4,"time":"2021-09-15T23:12:24.406Z","response":"1st","certainty":"high","char":"A","transposition":-1,"order":["shifted","swapped"],"probe_pitches":[2,0,6,-1,7,9,0,7],"shifted_pitches":[2,0,6,-1,8,9,0,7],"swapped_pitches":[2,0,6,7,-1,9,0,7],"shift_direction":1,"question_num":141,"has_decoy":false},{"rt":3728.5,"stimulus":"[A] option 1, [L] option 2, [G] neither","key_press":65,"name":"choice","trial_type":"html-keyboard-response","trial_index":175,"time_elapsed":252056,"internal_node_id":"0.0-175.0","subject":"S1C0816","sona":"41639","block":4,"time":"2021-09-15T23:12:24.406Z","response":"1st","certainty":"high","char":"A","transposition":3,"order":["swapped","shifted"],"probe_pitches":[5,10,8,0,3,5,0,-2],"shifted_pitches":[5,10,8,0,2,5,0,-2],"swapped_pitches":[5,10,8,3,0,5,0,-2],"shift_direction":-1,"question_num":151,"has_decoy":false},{"rt":530.2999999523163,"stimulus":"[A] option 1, [L] option 2, [G] neither","key_press":76,"name":"choice","trial_type":"html-keyboard-response","trial_index":186,"time_elapsed":267158,"internal_node_id":"0.0-186.0","subject":"S1C0816","sona":"41639","block":4,"time":"2021-09-15T23:12:24.406Z","response":"2nd","certainty":"high","char":"L","transposition":-1,"order":["shifted","swapped"],"probe_pitches":[7,3,-2,0,7,5,0,-2],"shifted_pitches":[7,3,-2,1,7,5,0,-2],"swapped_pitches":[7,3,-2,7,0,5,0,-2],"shift_direction":1,"question_num":161,"has_decoy":false},{"rt":917.1000000238419,"stimulus":"[A] option 1, [L] option 2, [G] neither","key_press":65,"name":"choice","trial_type":"html-keyboard-response","trial_index":197,"time_elapsed":282704,"internal_node_id":"0.0-197.0","subject":"S1C0816","sona":"41639","block":4,"time":"2021-09-15T23:12:24.406Z","response":"1st","certainty":"high","char":"A","transposition":-3,"order":["swapped","shifted"],"probe_pitches":[5,2,5,2,10,7,0,-2],"shifted_pitches":[5,2,5,3,10,7,0,-2],"swapped_pitches":[5,2,5,10,2,7,0,-2],"shift_direction":1,"question_num":171,"has_decoy":false},{"rt":538.3999999761581,"stimulus":"[A] option 1, [L] option 2, [G] neither","key_press":65,"name":"choice","trial_type":"html-keyboard-response","trial_index":208,"time_elapsed":297536,"internal_node_id":"0.0-208.0","subject":"S1C0816","sona":"41639","block":4,"time":"2021-09-15T23:12:24.406Z","response":"1st","certainty":"high","char":"A","transposition":-3,"order":["swapped","shifted"],"probe_pitches":[5,3,0,5,-2,8,3,-2],"shifted_pitches":[5,3,0,5,-3,8,3,-2],"swapped_pitches":[5,3,0,-2,5,8,3,-2],"shift_direction":-1,"question_num":181,"has_decoy":false},{"rt":1093.6999999284744,"stimulus":"[A] option 1, [L] option 2, [G] neither","key_press":65,"name":"choice","trial_type":"html-keyboard-response","trial_index":219,"time_elapsed":313261,"internal_node_id":"0.0-219.0","subject":"S1C0816","sona":"41639","block":4,"time":"2021-09-15T23:12:24.406Z","response":"1st","certainty":"high","char":"A","transposition":1,"order":["swapped","shifted"],"probe_pitches":[2,-2,3,0,-1,2,6,4],"shifted_pitches":[2,-2,3,1,-1,2,6,4],"swapped_pitches":[2,-2,3,-1,0,2,6,4],"shift_direction":1,"question_num":191,"has_decoy":false}]