[{"rt":394.60000002384186,"stimulus":"[A] option 1, [L] option 2, [G] neither","key_press":76,"name":"choice","trial_type":"html-keyboard-response","trial_index":10,"time_elapsed":14686,"internal_node_id":"0.0-10.0","subject":"S1C0816","sona":"41639","block":3,"time":"2021-09-15T23:07:07.861Z","response":"2nd","certainty":"high","char":"L","transposition":-3,"order":["shifted","swapped"],"probe_pitches":[6,9,3,8,9,6,9,2],"shifted_pitches":[6,9,3,7,9,6,9,2],"swapped_pitches":[6,9,3,9,8,6,9,2],"shift_direction":-1,"question_num":1,"has_decoy":false},{"rt":770.1999999284744,"stimulus":"[A] option 1, [L] option 2, [G] neither","key_press":65,"name":"choice","trial_type":"html-keyboard-response","trial_index":21,"time_elapsed":30112,"internal_node_id":"0.0-21.0","subject":"S1C0816","sona":"41639","block":3,"time":"2021-09-15T23:07:07.861Z","response":"1st","certainty":"high","char":"A","transposition":1,"order":["swapped","shifted"],"probe_pitches":[2,8,2,10,11,2,0,7],"shifted_pitches":[2,8,2,9,11,2,0,7],"swapped_pitches":[2,8,2,11,10,2,0,7],"shift_direction":-1,"question_num":11,"has_decoy":false},{"rt":796.7000000476837,"stimulus":"[A] option 1, [L] option 2, [G] neither","key_press":76,"name":"choice","trial_type":"html-keyboard-response","trial_index":32,"time_elapsed":45481,"internal_node_id":"0.0-32.0","subject":"S1C0816","sona":"41639","block":3,"time":"2021-09-15T23:07:07.861Z","response":"2nd","certainty":"high","char":"L","transposition":3,"order":["shifted","swapped"],"probe_pitches":[-1,3,4,5,1,3,11,9],"shifted_pitches":[-1,3,4,5,2,3,11,9],"swapped_pitches":[-1,3,4,1,5,3,11,9],"shift_direction":1,"question_num":21,"has_decoy":false},{"rt":2028.6000000238419,"stimulus":"[A] option 1, [L] option 2, [G] neither","key_press":76,"name":"choice","trial_type":"html-keyboard-response","trial_index":43,"time_elapsed":62842,"internal_node_id":"0.0-43.0","subject":"S1C0816","sona":"41639","block":3,"time":"2021-09-15T23:07:07.861Z","response":"2nd","certainty":"high","char":"L","transposition":-1,"order":["swapped","shifted"],"probe_pitches":[8,5,0,2,3,-1,6,7],"shifted_pitches":[8,5,0,1,3,-1,6,7],"swapped_pitches":[8,5,0,3,2,-1,6,7],"shift_direction":-1,"question_num":31,"has_decoy":false},{"rt":295.39999997615814,"stimulus":"[A] option 1, [L] option 2, [G] neither","key_press":65,"name":"choice","trial_type":"html-keyboard-response","trial_index":54,"time_elapsed":77909,"internal_node_id":"0.0-54.0","subject":"S1C0816","sona":"41639","block":3,"time":"2021-09-15T23:07:07.861Z","response":"1st","certainty":"high","char":"A","transposition":-2,"order":["swapped","shifted"],"probe_pitches":[2,5,11,3,5,-1,0,9],"shifted_pitches":[2,5,11,3,4,-1,0,9],"swapped_pitches":[2,5,11,5,3,-1,0,9],"shift_direction":-1,"question_num":41,"has_decoy":false},{"rt":949,"stimulus":"[A] option 1, [L] option 2, [G] neither","key_press":65,"name":"choice","trial_type":"html-keyboard-response","trial_index":65,"time_elapsed":93223,"internal_node_id":"0.0-65.0","subject":"S1C0816","sona":"41639","block":3,"time":"2021-09-15T23:07:07.861Z","response":"1st","certainty":"high","char":"A","transposition":-3,"order":["swapped","shifted"],"probe_pitches":[0,3,0,7,10,5,-2,3],"shifted_pitches":[0,3,0,7,9,5,-2,3],"swapped_pitches":[0,3,0,10,7,5,-2,3],"shift_direction":-1,"question_num":51,"has_decoy":false},{"rt":344,"stimulus":"[A] option 1, [L] option 2, [G] neither","key_press":76,"name":"choice","trial_type":"html-keyboard-response","trial_index":76,"time_elapsed":108078,"internal_node_id":"0.0-76.0","subject":"S1C0816","sona":"41639","block":3,"time":"2021-09-15T23:07:07.861Z","response":"2nd","certainty":"high","char":"L","transposition":1,"order":["shifted","swapped"],"probe_pitches":[0,2,-2,5,0,7,5,-2],"shifted_pitches":[0,2,-2,5,1,7,5,-2],"swapped_pitches":[0,2,-2,0,5,7,5,-2],"shift_direction":1,"question_num":61,"has_decoy":false},{"rt":3436.100000023842,"stimulus":"[A] option 1, [L] option 2, [G] neither","key_press":65,"name":"choice","trial_type":"html-keyboard-response","trial_index":87,"time_elapsed":126130,"internal_node_id":"0.0-87.0","subject":"S1C0816","sona":"41639","block":3,"time":"2021-09-15T23:07:07.861Z","response":"1st","certainty":"high","char":"A","transposition":-1,"order":["swapped","shifted"],"probe_pitches":[9,4,8,7,4,11,1,9],"shifted_pitches":[9,4,8,7,5,11,1,9],"swapped_pitches":[9,4,8,4,7,11,1,9],"shift_direction":1,"question_num":71,"has_decoy":false},{"rt":311.39999997615814,"stimulus":"[A] option 1, [L] option 2, [G] neither","key_press":65,"name":"choice","trial_type":"html-keyboard-response","trial_index":98,"time_elapsed":140835,"internal_node_id":"0.0-98.0","subject":"S1C0816","sona":"41639","block":3,"time":"2021-09-15T23:07:07.861Z","response":"1st","certainty":"high","char":"A","transposition":0,"order":["swapped","shifted"],"probe_pitches":[3,1,-2,6,1,-2,8,6],"shifted_pitches":[3,1,-2,6,2,-2,8,6],"swapped_pitches":[3,1,-2,1,6,-2,8,6],"shift_direction":1,"question_num":81,"has_decoy":false},{"rt":284.60000002384186,"stimulus":"[A] option 1, [L] option 2, [G] neither","key_press":65,"name":"choice","trial_type":"html-keyboard-response","trial_index":109,"time_elapsed":155709,"internal_node_id":"0.0-109.0","subject":"S1C0816","sona":"41639","block":3,"time":"2021-09-15T23:07:07.861Z","response":"1st","certainty":"high","char":"A","transposition":-1,"order":["swapped","shifted"],"probe_pitches":[5,0,5,0,-2,8,3,-2],"shifted_pitches":[5,0,5,-1,-2,8,3,-2],"swapped_pitches":[5,0,5,-2,0,8,3,-2],"shift_direction":-1,"question_num":91,"has_decoy":false},{"rt":469.39999997615814,"stimulus":"[A] option 1, [L] option 2, [G] neither","key_press":76,"name":"choice","trial_type":"html-keyboard-response","trial_index":120,"time_elapsed":170761,"internal_node_id":"0.0-120.0","subject":"S1C0816","sona":"41639","block":3,"time":"2021-09-15T23:07:07.861Z","response":"2nd","certainty":"high","char":"L","transposition":-2,"order":["swapped","shifted"],"probe_pitches":[8,6,8,10,3,1,10,-2],"shifted_pitches":[8,6,8,11,3,1,10,-2],"swapped_pitches":[8,6,8,3,10,1,10,-2],"shift_direction":1,"question_num":101,"has_decoy":false},{"rt":367.8000000715256,"stimulus":"[A] option 1, [L] option 2, [G] neither","key_press":76,"name":"choice","trial_type":"html-keyboard-response","trial_index":131,"time_elapsed":185699,"internal_node_id":"0.0-131.0","subject":"S1C0816","sona":"41639","block":3,"time":"2021-09-15T23:07:07.861Z","response":"2nd","certainty":"high","char":"L","transposition":-1,"order":["swapped","shifted"],"probe_pitches":[-2,0,3,0,8,5,0,3],"shifted_pitches":[-2,0,3,1,8,5,0,3],"swapped_pitches":[-2,0,3,8,0,5,0,3],"shift_direction":1,"question_num":111,"has_decoy":false},{"rt":312.2000000476837,"stimulus":"[A] option 1, [L] option 2, [G] neither","key_press":76,"name":"choice","trial_type":"html-keyboard-response","trial_index":142,"time_elapsed":200744,"internal_node_id":"0.0-142.0","subject":"S1C0816","sona":"41639","block":3,"time":"2021-09-15T23:07:07.861Z","response":"2nd","certainty":"high","char":"L","transposition":-3,"order":["shifted","swapped"],"probe_pitches":[7,10,3,1,5,4,-1,3],"shifted_pitches":[7,10,3,1,6,4,-1,3],"swapped_pitches":[7,10,3,5,1,4,-1,3],"shift_direction":1,"question_num":121,"has_decoy":false},{"rt":2134.100000023842,"stimulus":"[A] option 1, [L] option 2, [G] neither","key_press":65,"name":"choice","trial_type":"html-keyboard-response","trial_index":153,"time_elapsed":217216,"internal_node_id":"0.0-153.0","subject":"S1C0816","sona":"41639","block":3,"time":"2021-09-15T23:07:07.861Z","response":"1st","certainty":"high","char":"A","transposition":2,"order":["shifted","swapped"],"probe_pitches":[10,8,1,3,5,10,5,10],"shifted_pitches":[10,8,1,4,5,10,5,10],"swapped_pitches":[10,8,1,5,3,10,5,10],"shift_direction":1,"question_num":131,"has_decoy":false},{"rt":535.4000000953674,"stimulus":"[A] option 1, [L] option 2, [G] neither","key_press":76,"name":"choice","trial_type":"html-keyboard-response","trial_index":164,"time_elapsed":232497,"internal_node_id":"0.0-164.0","subject":"S1C0816","sona":"41639","block":3,"time":"2021-09-15T23:07:07.861Z","response":"2nd","certainty":"high","char":"L","transposition":-2,"order":["swapped","shifted"],"probe_pitches":[9,10,5,2,1,8,6,9],"shifted_pitches":[9,10,5,3,1,8,6,9],"swapped_pitches":[9,10,5,1,2,8,6,9],"shift_direction":1,"question_num":141,"has_decoy":false},{"rt":1921.2000000476837,"stimulus":"[A] option 1, [L] option 2, [G] neither","key_press":76,"name":"choice","trial_type":"html-keyboard-response","trial_index":175,"time_elapsed":249193,"internal_node_id":"0.0-175.0","subject":"S1C0816","sona":"41639","block":3,"time":"2021-09-15T23:07:07.861Z","response":"2nd","certainty":"high","char":"L","transposition":2,"order":["shifted","swapped"],"probe_pitches":[0,1,5,1,7,5,1,5],"shifted_pitches":[0,1,5,1,8,5,1,5],"swapped_pitches":[0,1,5,7,1,5,1,5],"shift_direction":1,"question_num":151,"has_decoy":false},{"rt":336.7000000476837,"stimulus":"[A] option 1, [L] option 2, [G] neither","key_press":76,"name":"choice","trial_type":"html-keyboard-response","trial_index":186,"time_elapsed":263988,"internal_node_id":"0.0-186.0","subject":"S1C0816","sona":"41639","block":3,"time":"2021-09-15T23:07:07.861Z","response":"2nd","certainty":"high","char":"L","transposition":0,"order":["shifted","swapped"],"probe_pitches":[6,7,4,-1,0,3,4,-1],"shifted_pitches":[6,7,4,-2,0,3,4,-1],"swapped_pitches":[6,7,4,0,-1,3,4,-1],"shift_direction":-1,"question_num":161,"has_decoy":false},{"rt":246.89999997615814,"stimulus":"[A] option 1, [L] option 2, [G] neither","key_press":76,"name":"choice","trial_type":"html-keyboard-response","trial_index":197,"time_elapsed":278847,"internal_node_id":"0.0-197.0","subject":"S1C0816","sona":"41639","block":3,"time":"2021-09-15T23:07:07.861Z","response":"2nd","certainty":"high","char":"L","transposition":3,"order":["shifted","swapped"],"probe_pitches":[10,5,7,3,5,-2,7,0],"shifted_pitches":[10,5,7,3,4,-2,7,0],"swapped_pitches":[10,5,7,5,3,-2,7,0],"shift_direction":-1,"question_num":171,"has_decoy":false},{"rt":376.7999999523163,"stimulus":"[A] option 1, [L] option 2, [G] neither","key_press":76,"name":"choice","trial_type":"html-keyboard-response","trial_index":208,"time_elapsed":293828,"internal_node_id":"0.0-208.0","subject":"S1C0816","sona":"41639","block":3,"time":"2021-09-15T23:07:07.861Z","response":"2nd","certainty":"high","char":"L","transposition":-2,"order":["shifted","swapped"],"probe_pitches":[8,3,1,8,3,5,10,8],"shifted_pitches":[8,3,1,7,3,5,10,8],"swapped_pitches":[8,3,1,3,8,5,10,8],"shift_direction":-1,"question_num":181,"has_decoy":false},{"rt":1443.8000000715256,"stimulus":"[A] option 1, [L] option 2, [G] neither","key_press":65,"name":"choice","trial_type":"html-keyboard-response","trial_index":219,"time_elapsed":310025,"internal_node_id":"0.0-219.0","subject":"S1C0816","sona":"41639","block":3,"time":"2021-09-15T23:07:07.861Z","response":"1st","certainty":"high","char":"A","transposition":-3,"order":["shifted","swapped"],"probe_pitches":[2,7,0,7,5,2,7,10],"shifted_pitches":[2,7,0,7,4,2,7,10],"swapped_pitches":[2,7,0,5,7,2,7,10],"shift_direction":-1,"question_num":191,"has_decoy":false}]