[{"rt":1152.1000000238419,"stimulus":"[A] option 1, [L] option 2, [G] neither","key_press":65,"name":"choice","trial_type":"html-keyboard-response","trial_index":15,"time_elapsed":69046,"internal_node_id":"0.0-15.0","response":"1st","certainty":"high","char":"A","transposition":3,"order":["swapped","shifted"],"probe_pitches":[6,1,-1,5,1,9,3,10],"shifted_pitches":[6,1,-1,5,2,9,3,10],"swapped_pitches":[6,1,-1,1,5,9,3,10],"shift_direction":1,"question_num":1,"has_decoy":false,"subject":"S1C0816","sona":"41639","block":1,"time":"2021-09-15T22:56:47.766Z"},{"rt":520.2999999523163,"stimulus":"[A] option 1, [L] option 2, [G] neither","key_press":76,"name":"choice","trial_type":"html-keyboard-response","trial_index":26,"time_elapsed":84464,"internal_node_id":"0.0-26.0","response":"2nd","certainty":"high","char":"L","transposition":-2,"order":["swapped","shifted"],"probe_pitches":[6,4,2,6,4,9,11,2],"shifted_pitches":[6,4,2,5,4,9,11,2],"swapped_pitches":[6,4,2,4,6,9,11,2],"shift_direction":-1,"question_num":11,"has_decoy":false,"subject":"S1C0816","sona":"41639","block":1,"time":"2021-09-15T22:56:47.766Z"},{"rt":415.2000000476837,"stimulus":"[A] option 1, [L] option 2, [G] neither","key_press":65,"name":"choice","trial_type":"html-keyboard-response","trial_index":37,"time_elapsed":99699,"internal_node_id":"0.0-37.0","response":"1st","certainty":"high","char":"A","transposition":-1,"order":["swapped","shifted"],"probe_pitches":[-1,-2,5,3,7,1,-2,0],"shifted_pitches":[-1,-2,5,4,7,1,-2,0],"swapped_pitches":[-1,-2,5,7,3,1,-2,0],"shift_direction":1,"question_num":21,"has_decoy":false,"subject":"S1C0816","sona":"41639","block":1,"time":"2021-09-15T22:56:47.766Z"},{"rt":570.5,"stimulus":"[A] option 1, [L] option 2, [G] neither","key_press":76,"name":"choice","trial_type":"html-keyboard-response","trial_index":48,"time_elapsed":114684,"internal_node_id":"0.0-48.0","response":"2nd","certainty":"high","char":"L","transposition":-1,"order":["shifted","swapped"],"probe_pitches":[4,9,2,9,11,4,7,14],"shifted_pitches":[4,9,2,8,11,4,7,14],"swapped_pitches":[4,9,2,11,9,4,7,14],"shift_direction":-1,"question_num":31,"has_decoy":false,"subject":"S1C0816","sona":"41639","block":1,"time":"2021-09-15T22:56:47.766Z"},{"rt":2116.600000023842,"stimulus":"[A] option 1, [L] option 2, [G] neither","key_press":65,"name":"choice","trial_type":"html-keyboard-response","trial_index":59,"time_elapsed":131490,"internal_node_id":"0.0-59.0","response":"1st","certainty":"high","char":"A","transposition":-2,"order":["shifted","swapped"],"probe_pitches":[2,6,11,9,14,4,2,4],"shifted_pitches":[2,6,11,8,14,4,2,4],"swapped_pitches":[2,6,11,14,9,4,2,4],"shift_direction":-1,"question_num":41,"has_decoy":false,"subject":"S1C0816","sona":"41639","block":1,"time":"2021-09-15T22:56:47.766Z"},{"rt":713.2999999523163,"stimulus":"[A] option 1, [L] option 2, [G] neither","key_press":65,"name":"choice","trial_type":"html-keyboard-response","trial_index":70,"time_elapsed":147131,"internal_node_id":"0.0-70.0","response":"1st","certainty":"high","char":"A","transposition":0,"order":["swapped","shifted"],"probe_pitches":[2,6,5,8,1,5,0,-1],"shifted_pitches":[2,6,5,7,1,5,0,-1],"swapped_pitches":[2,6,5,1,8,5,0,-1],"shift_direction":-1,"question_num":51,"has_decoy":false,"subject":"S1C0816","sona":"41639","block":1,"time":"2021-09-15T22:56:47.766Z"},{"rt":966.1999999284744,"stimulus":"[A] option 1, [L] option 2, [G] neither","key_press":65,"name":"choice","trial_type":"html-keyboard-response","trial_index":81,"time_elapsed":163170,"internal_node_id":"0.0-81.0","response":"1st","certainty":"high","char":"A","transposition":-1,"order":["swapped","shifted"],"probe_pitches":[9,11,14,7,11,4,7,2],"shifted_pitches":[9,11,14,7,10,4,7,2],"swapped_pitches":[9,11,14,11,7,4,7,2],"shift_direction":-1,"question_num":61,"has_decoy":false,"subject":"S1C0816","sona":"41639","block":1,"time":"2021-09-15T22:56:47.766Z"},{"rt":444.1999999284744,"stimulus":"[A] option 1, [L] option 2, [G] neither","key_press":76,"name":"choice","trial_type":"html-keyboard-response","trial_index":92,"time_elapsed":178795,"internal_node_id":"0.0-92.0","response":"2nd","certainty":"high","char":"L","transposition":-3,"order":["shifted","swapped"],"probe_pitches":[2,5,2,7,9,14,9,12],"shifted_pitches":[2,5,2,7,10,14,9,12],"swapped_pitches":[2,5,2,9,7,14,9,12],"shift_direction":1,"question_num":71,"has_decoy":false,"subject":"S1C0816","sona":"41639","block":1,"time":"2021-09-15T22:56:47.766Z"},{"rt":408.60000002384186,"stimulus":"[A] option 1, [L] option 2, [G] neither","key_press":76,"name":"choice","trial_type":"html-keyboard-response","trial_index":103,"time_elapsed":193909,"internal_node_id":"0.0-103.0","response":"2nd","certainty":"high","char":"L","transposition":-3,"order":["shifted","swapped"],"probe_pitches":[10,4,10,9,7,2,0,1],"shifted_pitches":[10,4,10,8,7,2,0,1],"swapped_pitches":[10,4,10,7,9,2,0,1],"shift_direction":-1,"question_num":81,"has_decoy":false,"subject":"S1C0816","sona":"41639","block":1,"time":"2021-09-15T22:56:47.766Z"},{"rt":747,"stimulus":"[A] option 1, [L] option 2, [G] neither","key_press":76,"name":"choice","trial_type":"html-keyboard-response","trial_index":114,"time_elapsed":208988,"internal_node_id":"0.0-114.0","response":"2nd","certainty":"high","char":"L","transposition":1,"order":["shifted","swapped"],"probe_pitches":[10,12,5,10,7,5,12,14],"shifted_pitches":[10,12,5,11,7,5,12,14],"swapped_pitches":[10,12,5,7,10,5,12,14],"shift_direction":1,"question_num":91,"has_decoy":false,"subject":"S1C0816","sona":"41639","block":1,"time":"2021-09-15T22:56:47.766Z"},{"rt":370.60000002384186,"stimulus":"[A] option 1, [L] option 2, [G] neither","key_press":76,"name":"choice","trial_type":"html-keyboard-response","trial_index":125,"time_elapsed":223931,"internal_node_id":"0.0-125.0","response":"2nd","certainty":"high","char":"L","transposition":-2,"order":["shifted","swapped"],"probe_pitches":[9,7,0,7,4,1,-1,8],"shifted_pitches":[9,7,0,7,3,1,-1,8],"swapped_pitches":[9,7,0,4,7,1,-1,8],"shift_direction":-1,"question_num":101,"has_decoy":false,"subject":"S1C0816","sona":"41639","block":1,"time":"2021-09-15T22:56:47.766Z"},{"rt":276.2000000476837,"stimulus":"[A] option 1, [L] option 2, [G] neither","key_press":76,"name":"choice","trial_type":"html-keyboard-response","trial_index":136,"time_elapsed":238769,"internal_node_id":"0.0-136.0","response":"2nd","certainty":"high","char":"L","transposition":2,"order":["shifted","swapped"],"probe_pitches":[-1,3,7,-1,1,2,1,10],"shifted_pitches":[-1,3,7,-1,0,2,1,10],"swapped_pitches":[-1,3,7,1,-1,2,1,10],"shift_direction":-1,"question_num":111,"has_decoy":false,"subject":"S1C0816","sona":"41639","block":1,"time":"2021-09-15T22:56:47.766Z"},{"rt":330.7999999523163,"stimulus":"[A] option 1, [L] option 2, [G] neither","key_press":76,"name":"choice","trial_type":"html-keyboard-response","trial_index":147,"time_elapsed":253414,"internal_node_id":"0.0-147.0","response":"2nd","certainty":"high","char":"L","transposition":2,"order":["shifted","swapped"],"probe_pitches":[12,14,9,4,7,14,7,4],"shifted_pitches":[12,14,9,4,8,14,7,4],"swapped_pitches":[12,14,9,7,4,14,7,4],"shift_direction":1,"question_num":121,"has_decoy":false,"subject":"S1C0816","sona":"41639","block":1,"time":"2021-09-15T22:56:47.766Z"},{"rt":2701.5,"stimulus":"[A] option 1, [L] option 2, [G] neither","key_press":65,"name":"choice","trial_type":"html-keyboard-response","trial_index":158,"time_elapsed":280875,"internal_node_id":"0.0-158.0","response":"1st","certainty":"high","char":"A","transposition":-1,"order":["shifted","swapped"],"probe_pitches":[8,9,3,9,4,6,9,-1],"shifted_pitches":[8,9,3,9,5,6,9,-1],"swapped_pitches":[8,9,3,4,9,6,9,-1],"shift_direction":1,"question_num":131,"has_decoy":false,"subject":"S1C0816","sona":"41639","block":1,"time":"2021-09-15T22:56:47.766Z"},{"rt":571.1999999284744,"stimulus":"[A] option 1, [L] option 2, [G] neither","key_press":76,"name":"choice","trial_type":"html-keyboard-response","trial_index":169,"time_elapsed":296295,"internal_node_id":"0.0-169.0","response":"2nd","certainty":"high","char":"L","transposition":-3,"order":["swapped","shifted"],"probe_pitches":[9,8,4,-2,0,2,5,3],"shifted_pitches":[9,8,4,-2,1,2,5,3],"swapped_pitches":[9,8,4,0,-2,2,5,3],"shift_direction":1,"question_num":141,"has_decoy":false,"subject":"S1C0816","sona":"41639","block":1,"time":"2021-09-15T22:56:47.766Z"},{"rt":224.60000002384186,"stimulus":"[A] option 1, [L] option 2, [G] neither","key_press":76,"name":"choice","trial_type":"html-keyboard-response","trial_index":180,"time_elapsed":311179,"internal_node_id":"0.0-180.0","response":"2nd","certainty":"high","char":"L","transposition":1,"order":["swapped","shifted"],"probe_pitches":[8,4,3,-2,7,0,10,0],"shifted_pitches":[8,4,3,-3,7,0,10,0],"swapped_pitches":[8,4,3,7,-2,0,10,0],"shift_direction":-1,"question_num":151,"has_decoy":false,"subject":"S1C0816","sona":"41639","block":1,"time":"2021-09-15T22:56:47.766Z"},{"rt":488.59999990463257,"stimulus":"[A] option 1, [L] option 2, [G] neither","key_press":76,"name":"choice","trial_type":"html-keyboard-response","trial_index":191,"time_elapsed":326032,"internal_node_id":"0.0-191.0","response":"2nd","certainty":"high","char":"L","transposition":-2,"order":["shifted","swapped"],"probe_pitches":[4,0,1,5,7,0,1,-2],"shifted_pitches":[4,0,1,6,7,0,1,-2],"swapped_pitches":[4,0,1,7,5,0,1,-2],"shift_direction":1,"question_num":161,"has_decoy":false,"subject":"S1C0816","sona":"41639","block":1,"time":"2021-09-15T22:56:47.766Z"},{"rt":469.6999999284744,"stimulus":"[A] option 1, [L] option 2, [G] neither","key_press":76,"name":"choice","trial_type":"html-keyboard-response","trial_index":202,"time_elapsed":341283,"internal_node_id":"0.0-202.0","response":"2nd","certainty":"high","char":"L","transposition":3,"order":["swapped","shifted"],"probe_pitches":[14,12,14,7,4,9,2,14],"shifted_pitches":[14,12,14,7,3,9,2,14],"swapped_pitches":[14,12,14,4,7,9,2,14],"shift_direction":-1,"question_num":171,"has_decoy":false,"subject":"S1C0816","sona":"41639","block":1,"time":"2021-09-15T22:56:47.766Z"},{"rt":779.2000000476837,"stimulus":"[A] option 1, [L] option 2, [G] neither","key_press":65,"name":"choice","trial_type":"html-keyboard-response","trial_index":213,"time_elapsed":356373,"internal_node_id":"0.0-213.0","response":"1st","certainty":"high","char":"A","transposition":-3,"order":["swapped","shifted"],"probe_pitches":[2,7,5,12,14,9,5,12],"shifted_pitches":[2,7,5,12,15,9,5,12],"swapped_pitches":[2,7,5,14,12,9,5,12],"shift_direction":1,"question_num":181,"has_decoy":false,"subject":"S1C0816","sona":"41639","block":1,"time":"2021-09-15T22:56:47.766Z"},{"rt":1029,"stimulus":"[A] option 1, [L] option 2, [G] neither","key_press":65,"name":"choice","trial_type":"html-keyboard-response","trial_index":224,"time_elapsed":371792,"internal_node_id":"0.0-224.0","response":"1st","certainty":"high","char":"A","transposition":0,"order":["swapped","shifted"],"probe_pitches":[12,7,2,10,12,14,12,5],"shifted_pitches":[12,7,2,11,12,14,12,5],"swapped_pitches":[12,7,2,12,10,14,12,5],"shift_direction":1,"question_num":191,"has_decoy":false,"subject":"S1C0816","sona":"41639","block":1,"time":"2021-09-15T22:56:47.766Z"}]