[{"rt":980.3150000516325,"stimulus":"[A] option 1, [L] option 2, [G] neither","key_press":76,"name":"choice","trial_type":"html-keyboard-response","trial_index":10,"time_elapsed":25346,"internal_node_id":"0.0-10.0","subject":"S1C1609","sona":"36250","block":2,"time":"2021-09-15T15:20:20.983Z","response":"2nd","certainty":"high","char":"L","transposition":0,"order":["swapped","shifted"],"probe_pitches":[2,4,0,7,9,0,7,12,0,9,12,2,7,9,2,4],"shifted_pitches":[2,4,0,7,9,0,7,13,0,9,12,2,7,9,2,4],"swapped_pitches":[2,4,0,7,9,0,7,0,12,9,12,2,7,9,2,4],"shift_direction":1,"question_num":1,"has_decoy":false},{"rt":1021.4550000382587,"stimulus":"[A] option 1, [L] option 2, [G] neither","key_press":65,"name":"choice","trial_type":"html-keyboard-response","trial_index":21,"time_elapsed":49261,"internal_node_id":"0.0-21.0","subject":"S1C1609","sona":"36250","block":2,"time":"2021-09-15T15:20:20.983Z","response":"1st","certainty":"high","char":"A","transposition":-3,"order":["shifted","swapped"],"probe_pitches":[10,5,12,5,3,10,12,8,5,0,5,12,3,8,10,12],"shifted_pitches":[10,5,12,5,3,10,12,9,5,0,5,12,3,8,10,12],"swapped_pitches":[10,5,12,5,3,10,12,5,8,0,5,12,3,8,10,12],"shift_direction":1,"question_num":11,"has_decoy":false},{"rt":1144.3900000303984,"stimulus":"[A] option 1, [L] option 2, [G] neither","key_press":71,"name":"choice","trial_type":"html-keyboard-response","trial_index":32,"time_elapsed":73499,"internal_node_id":"0.0-32.0","subject":"S1C1609","sona":"36250","block":2,"time":"2021-09-15T15:20:20.983Z","response":"neither","certainty":"high","char":"G","transposition":-2,"order":["shifted","swapped"],"probe_pitches":[9,5,2,5,0,9,7,0,5,12,0,12,5,9,7,0],"shifted_pitches":[9,5,2,5,0,9,7,0,4,12,0,12,5,9,7,0],"swapped_pitches":[9,5,2,5,0,9,7,5,0,12,0,12,5,9,7,0],"shift_direction":-1,"question_num":21,"has_decoy":false},{"rt":466.9749999884516,"stimulus":"[A] option 1, [L] option 2, [G] neither","key_press":76,"name":"choice","trial_type":"html-keyboard-response","trial_index":43,"time_elapsed":97021,"internal_node_id":"0.0-43.0","subject":"S1C1609","sona":"36250","block":2,"time":"2021-09-15T15:20:20.983Z","response":"2nd","certainty":"high","char":"L","transposition":1,"order":["shifted","swapped"],"probe_pitches":[6,8,11,13,8,12,5,9,3,2,12,10,2,5,13,7],"shifted_pitches":[6,8,11,13,8,12,5,9,4,2,12,10,2,5,13,7],"swapped_pitches":[6,8,11,13,8,12,5,3,9,2,12,10,2,5,13,7],"shift_direction":1,"question_num":31,"has_decoy":false},{"rt":737.2149999719113,"stimulus":"[A] option 1, [L] option 2, [G] neither","key_press":65,"name":"choice","trial_type":"html-keyboard-response","trial_index":54,"time_elapsed":120727,"internal_node_id":"0.0-54.0","subject":"S1C1609","sona":"36250","block":2,"time":"2021-09-15T15:20:20.983Z","response":"1st","certainty":"high","char":"A","transposition":-2,"order":["swapped","shifted"],"probe_pitches":[3,4,9,12,8,4,12,5,2,4,14,5,12,10,7,2],"shifted_pitches":[3,4,9,12,8,4,12,6,2,4,14,5,12,10,7,2],"swapped_pitches":[3,4,9,12,8,4,12,2,5,4,14,5,12,10,7,2],"shift_direction":1,"question_num":41,"has_decoy":false},{"rt":1361.7999999551103,"stimulus":"[A] option 1, [L] option 2, [G] neither","key_press":71,"name":"choice","trial_type":"html-keyboard-response","trial_index":65,"time_elapsed":145879,"internal_node_id":"0.0-65.0","subject":"S1C1609","sona":"36250","block":2,"time":"2021-09-15T15:20:20.983Z","response":"neither","certainty":"high","char":"G","transposition":3,"order":["shifted","swapped"],"probe_pitches":[10,5,7,12,5,2,5,10,7,0,2,5,12,10,0,2],"shifted_pitches":[10,5,7,12,5,2,5,10,6,0,2,5,12,10,0,2],"swapped_pitches":[10,5,7,12,5,2,5,7,10,0,2,5,12,10,0,2],"shift_direction":-1,"question_num":51,"has_decoy":false},{"rt":1057.2499999543652,"stimulus":"[A] option 1, [L] option 2, [G] neither","key_press":76,"name":"choice","trial_type":"html-keyboard-response","trial_index":76,"time_elapsed":171735,"internal_node_id":"0.0-76.0","subject":"S1C1609","sona":"36250","block":2,"time":"2021-09-15T15:20:20.983Z","response":"2nd","certainty":"high","char":"L","transposition":-2,"order":["shifted","swapped"],"probe_pitches":[8,2,5,7,11,12,6,11,13,12,11,14,6,14,13,2],"shifted_pitches":[8,2,5,7,11,12,6,10,13,12,11,14,6,14,13,2],"swapped_pitches":[8,2,5,7,11,12,6,13,11,12,11,14,6,14,13,2],"shift_direction":-1,"question_num":61,"has_decoy":false},{"rt":1787.1749999467283,"stimulus":"[A] option 1, [L] option 2, [G] neither","key_press":71,"name":"choice","trial_type":"html-keyboard-response","trial_index":87,"time_elapsed":204513,"internal_node_id":"0.0-87.0","subject":"S1C1609","sona":"36250","block":2,"time":"2021-09-15T15:20:20.983Z","response":"neither","certainty":"high","char":"G","transposition":0,"order":["shifted","swapped"],"probe_pitches":[4,5,2,3,8,10,14,11,2,7,13,3,2,4,5,4],"shifted_pitches":[4,5,2,3,8,10,14,12,2,7,13,3,2,4,5,4],"swapped_pitches":[4,5,2,3,8,10,14,2,11,7,13,3,2,4,5,4],"shift_direction":1,"question_num":71,"has_decoy":false},{"rt":1027.5400000391528,"stimulus":"[A] option 1, [L] option 2, [G] neither","key_press":76,"name":"choice","trial_type":"html-keyboard-response","trial_index":98,"time_elapsed":244026,"internal_node_id":"0.0-98.0","subject":"S1C1609","sona":"36250","block":2,"time":"2021-09-15T15:20:20.983Z","response":"2nd","certainty":"high","char":"L","transposition":-3,"order":["swapped","shifted"],"probe_pitches":[4,8,10,3,8,14,12,10,6,9,12,8,9,10,4,13],"shifted_pitches":[4,8,10,3,8,14,12,10,7,9,12,8,9,10,4,13],"swapped_pitches":[4,8,10,3,8,14,12,6,10,9,12,8,9,10,4,13],"shift_direction":1,"question_num":81,"has_decoy":false},{"rt":2392.5949999829754,"stimulus":"[A] option 1, [L] option 2, [G] neither","key_press":71,"name":"choice","trial_type":"html-keyboard-response","trial_index":109,"time_elapsed":269535,"internal_node_id":"0.0-109.0","subject":"S1C1609","sona":"36250","block":2,"time":"2021-09-15T15:20:20.983Z","response":"neither","certainty":"high","char":"G","transposition":1,"order":["swapped","shifted"],"probe_pitches":[9,7,5,12,5,2,0,5,12,0,7,9,2,9,12,2],"shifted_pitches":[9,7,5,12,5,2,0,6,12,0,7,9,2,9,12,2],"swapped_pitches":[9,7,5,12,5,2,0,12,5,0,7,9,2,9,12,2],"shift_direction":1,"question_num":91,"has_decoy":false},{"rt":3513.730000006035,"stimulus":"[A] option 1, [L] option 2, [G] neither","key_press":71,"name":"choice","trial_type":"html-keyboard-response","trial_index":120,"time_elapsed":295995,"internal_node_id":"0.0-120.0","subject":"S1C1609","sona":"36250","block":2,"time":"2021-09-15T15:20:20.983Z","response":"neither","certainty":"high","char":"G","transposition":-1,"order":["swapped","shifted"],"probe_pitches":[3,7,3,7,3,5,10,12,0,5,12,3,0,10,5,10],"shifted_pitches":[3,7,3,7,3,5,10,11,0,5,12,3,0,10,5,10],"swapped_pitches":[3,7,3,7,3,5,10,0,12,5,12,3,0,10,5,10],"shift_direction":-1,"question_num":101,"has_decoy":false},{"rt":1304.245000006631,"stimulus":"[A] option 1, [L] option 2, [G] neither","key_press":76,"name":"choice","trial_type":"html-keyboard-response","trial_index":131,"time_elapsed":320410,"internal_node_id":"0.0-131.0","subject":"S1C1609","sona":"36250","block":2,"time":"2021-09-15T15:20:20.983Z","response":"2nd","certainty":"high","char":"L","transposition":-1,"order":["shifted","swapped"],"probe_pitches":[5,3,7,6,12,8,6,14,10,13,11,8,7,13,2,6],"shifted_pitches":[5,3,7,6,12,8,6,14,9,13,11,8,7,13,2,6],"swapped_pitches":[5,3,7,6,12,8,6,10,14,13,11,8,7,13,2,6],"shift_direction":-1,"question_num":111,"has_decoy":false},{"rt":1392.6950000459328,"stimulus":"[A] option 1, [L] option 2, [G] neither","key_press":76,"name":"choice","trial_type":"html-keyboard-response","trial_index":142,"time_elapsed":345234,"internal_node_id":"0.0-142.0","subject":"S1C1609","sona":"36250","block":2,"time":"2021-09-15T15:20:20.983Z","response":"2nd","certainty":"high","char":"L","transposition":2,"order":["swapped","shifted"],"probe_pitches":[9,6,3,5,11,13,10,6,9,12,9,3,9,10,3,7],"shifted_pitches":[9,6,3,5,11,13,10,6,8,12,9,3,9,10,3,7],"swapped_pitches":[9,6,3,5,11,13,10,9,6,12,9,3,9,10,3,7],"shift_direction":-1,"question_num":121,"has_decoy":false},{"rt":1604.605000000447,"stimulus":"[A] option 1, [L] option 2, [G] neither","key_press":71,"name":"choice","trial_type":"html-keyboard-response","trial_index":153,"time_elapsed":369713,"internal_node_id":"0.0-153.0","subject":"S1C1609","sona":"36250","block":2,"time":"2021-09-15T15:20:20.983Z","response":"neither","certainty":"high","char":"G","transposition":3,"order":["swapped","shifted"],"probe_pitches":[8,2,8,11,6,8,2,11,4,6,3,7,13,12,13,10],"shifted_pitches":[8,2,8,11,6,8,2,11,5,6,3,7,13,12,13,10],"swapped_pitches":[8,2,8,11,6,8,2,4,11,6,3,7,13,12,13,10],"shift_direction":1,"question_num":131,"has_decoy":false},{"rt":1192.8600000683218,"stimulus":"[A] option 1, [L] option 2, [G] neither","key_press":65,"name":"choice","trial_type":"html-keyboard-response","trial_index":164,"time_elapsed":393872,"internal_node_id":"0.0-164.0","subject":"S1C1609","sona":"36250","block":2,"time":"2021-09-15T15:20:20.983Z","response":"1st","certainty":"high","char":"A","transposition":-1,"order":["shifted","swapped"],"probe_pitches":[12,7,12,7,4,9,4,7,9,2,0,2,9,7,9,0],"shifted_pitches":[12,7,12,7,4,9,4,6,9,2,0,2,9,7,9,0],"swapped_pitches":[12,7,12,7,4,9,4,9,7,2,0,2,9,7,9,0],"shift_direction":-1,"question_num":141,"has_decoy":false},{"rt":1318.3149999240413,"stimulus":"[A] option 1, [L] option 2, [G] neither","key_press":71,"name":"choice","trial_type":"html-keyboard-response","trial_index":175,"time_elapsed":418232,"internal_node_id":"0.0-175.0","subject":"S1C1609","sona":"36250","block":2,"time":"2021-09-15T15:20:20.983Z","response":"neither","certainty":"high","char":"G","transposition":-2,"order":["shifted","swapped"],"probe_pitches":[2,0,7,2,0,2,5,7,0,5,10,0,7,12,7,5],"shifted_pitches":[2,0,7,2,0,2,5,7,1,5,10,0,7,12,7,5],"swapped_pitches":[2,0,7,2,0,2,5,0,7,5,10,0,7,12,7,5],"shift_direction":1,"question_num":151,"has_decoy":false},{"rt":2053.349999943748,"stimulus":"[A] option 1, [L] option 2, [G] neither","key_press":71,"name":"choice","trial_type":"html-keyboard-response","trial_index":186,"time_elapsed":444103,"internal_node_id":"0.0-186.0","subject":"S1C1609","sona":"36250","block":2,"time":"2021-09-15T15:20:20.983Z","response":"neither","certainty":"high","char":"G","transposition":-1,"order":["shifted","swapped"],"probe_pitches":[11,9,14,12,5,12,11,2,9,12,14,3,10,9,7,9],"shifted_pitches":[11,9,14,12,5,12,11,1,9,12,14,3,10,9,7,9],"swapped_pitches":[11,9,14,12,5,12,11,9,2,12,14,3,10,9,7,9],"shift_direction":-1,"question_num":161,"has_decoy":false},{"rt":424.7400000458583,"stimulus":"[A] option 1, [L] option 2, [G] neither","key_press":76,"name":"choice","trial_type":"html-keyboard-response","trial_index":197,"time_elapsed":467925,"internal_node_id":"0.0-197.0","subject":"S1C1609","sona":"36250","block":2,"time":"2021-09-15T15:20:20.983Z","response":"2nd","certainty":"high","char":"L","transposition":-3,"order":["swapped","shifted"],"probe_pitches":[3,7,5,10,5,7,0,3,7,5,10,12,10,3,0,10],"shifted_pitches":[3,7,5,10,5,7,0,3,6,5,10,12,10,3,0,10],"swapped_pitches":[3,7,5,10,5,7,0,7,3,5,10,12,10,3,0,10],"shift_direction":-1,"question_num":171,"has_decoy":false},{"rt":1377.4800000246614,"stimulus":"[A] option 1, [L] option 2, [G] neither","key_press":71,"name":"choice","trial_type":"html-keyboard-response","trial_index":208,"time_elapsed":492484,"internal_node_id":"0.0-208.0","subject":"S1C1609","sona":"36250","block":2,"time":"2021-09-15T15:20:20.983Z","response":"neither","certainty":"high","char":"G","transposition":2,"order":["swapped","shifted"],"probe_pitches":[10,5,10,3,5,8,5,8,0,5,12,3,8,10,3,10],"shifted_pitches":[10,5,10,3,5,8,5,8,1,5,12,3,8,10,3,10],"swapped_pitches":[10,5,10,3,5,8,5,0,8,5,12,3,8,10,3,10],"shift_direction":1,"question_num":181,"has_decoy":false},{"rt":726.7899999860674,"stimulus":"[A] option 1, [L] option 2, [G] neither","key_press":65,"name":"choice","trial_type":"html-keyboard-response","trial_index":219,"time_elapsed":516874,"internal_node_id":"0.0-219.0","subject":"S1C1609","sona":"36250","block":2,"time":"2021-09-15T15:20:20.983Z","response":"1st","certainty":"high","char":"A","transposition":-3,"order":["swapped","shifted"],"probe_pitches":[3,8,5,13,9,12,13,12,5,14,4,8,7,9,3,6],"shifted_pitches":[3,8,5,13,9,12,13,11,5,14,4,8,7,9,3,6],"swapped_pitches":[3,8,5,13,9,12,13,5,12,14,4,8,7,9,3,6],"shift_direction":-1,"question_num":191,"has_decoy":false}]