[{"rt":948.949999990873,"stimulus":"[A] option 1, [L] option 2, [G] neither","key_press":76,"name":"choice","trial_type":"html-keyboard-response","trial_index":10,"time_elapsed":23348,"internal_node_id":"0.0-10.0","subject":"S1C1609","sona":"36250","block":6,"time":"2021-09-15T15:55:08.320Z","response":"2nd","certainty":"high","char":"L","transposition":-1,"order":["swapped","shifted"],"probe_pitches":[13,8,4,8,4,8,4,11,6,8,11,6,1,11,4,13],"shifted_pitches":[13,8,4,8,4,8,4,12,6,8,11,6,1,11,4,13],"swapped_pitches":[13,8,4,8,4,8,4,6,11,8,11,6,1,11,4,13],"shift_direction":1,"question_num":1,"has_decoy":false},{"rt":1334.3350000213832,"stimulus":"[A] option 1, [L] option 2, [G] neither","key_press":71,"name":"choice","trial_type":"html-keyboard-response","trial_index":21,"time_elapsed":48459,"internal_node_id":"0.0-21.0","subject":"S1C1609","sona":"36250","block":6,"time":"2021-09-15T15:55:08.320Z","response":"neither","certainty":"high","char":"G","transposition":0,"order":["shifted","swapped"],"probe_pitches":[9,12,6,13,10,7,5,14,12,8,6,8,6,13,12,5],"shifted_pitches":[9,12,6,13,10,7,5,14,11,8,6,8,6,13,12,5],"swapped_pitches":[9,12,6,13,10,7,5,12,14,8,6,8,6,13,12,5],"shift_direction":-1,"question_num":11,"has_decoy":false},{"rt":1874.4099999312311,"stimulus":"[A] option 1, [L] option 2, [G] neither","key_press":71,"name":"choice","trial_type":"html-keyboard-response","trial_index":32,"time_elapsed":74839,"internal_node_id":"0.0-32.0","subject":"S1C1609","sona":"36250","block":6,"time":"2021-09-15T15:55:08.320Z","response":"neither","certainty":"high","char":"G","transposition":-2,"order":["swapped","shifted"],"probe_pitches":[9,10,13,5,3,13,5,10,3,6,10,12,8,3,10,3],"shifted_pitches":[9,10,13,5,3,13,5,10,4,6,10,12,8,3,10,3],"swapped_pitches":[9,10,13,5,3,13,5,3,10,6,10,12,8,3,10,3],"shift_direction":1,"question_num":21,"has_decoy":false},{"rt":1815.8449999755248,"stimulus":"[A] option 1, [L] option 2, [G] neither","key_press":76,"name":"choice","trial_type":"html-keyboard-response","trial_index":43,"time_elapsed":99021,"internal_node_id":"0.0-43.0","subject":"S1C1609","sona":"36250","block":6,"time":"2021-09-15T15:55:08.320Z","response":"2nd","certainty":"high","char":"L","transposition":-3,"order":["shifted","swapped"],"probe_pitches":[6,11,4,11,6,1,11,9,6,1,9,6,4,9,6,1],"shifted_pitches":[6,11,4,11,6,1,11,10,6,1,9,6,4,9,6,1],"swapped_pitches":[6,11,4,11,6,1,11,6,9,1,9,6,4,9,6,1],"shift_direction":1,"question_num":31,"has_decoy":false},{"rt":1445.0850000139326,"stimulus":"[A] option 1, [L] option 2, [G] neither","key_press":76,"name":"choice","trial_type":"html-keyboard-response","trial_index":54,"time_elapsed":123722,"internal_node_id":"0.0-54.0","subject":"S1C1609","sona":"36250","block":6,"time":"2021-09-15T15:55:08.320Z","response":"2nd","certainty":"high","char":"L","transposition":-2,"order":["swapped","shifted"],"probe_pitches":[3,6,8,13,11,1,3,1,6,13,6,11,3,13,6,3],"shifted_pitches":[3,6,8,13,11,1,3,1,5,13,6,11,3,13,6,3],"swapped_pitches":[3,6,8,13,11,1,3,6,1,13,6,11,3,13,6,3],"shift_direction":-1,"question_num":41,"has_decoy":false},{"rt":1756.6299999598414,"stimulus":"[A] option 1, [L] option 2, [G] neither","key_press":76,"name":"choice","trial_type":"html-keyboard-response","trial_index":65,"time_elapsed":153683,"internal_node_id":"0.0-65.0","subject":"S1C1609","sona":"36250","block":6,"time":"2021-09-15T15:55:08.320Z","response":"2nd","certainty":"high","char":"L","transposition":-1,"order":["shifted","swapped"],"probe_pitches":[6,1,8,6,1,11,1,13,11,4,6,4,8,4,6,4],"shifted_pitches":[6,1,8,6,1,11,1,14,11,4,6,4,8,4,6,4],"swapped_pitches":[6,1,8,6,1,11,1,11,13,4,6,4,8,4,6,4],"shift_direction":1,"question_num":51,"has_decoy":false},{"rt":1795.5450000008568,"stimulus":"[A] option 1, [L] option 2, [G] neither","key_press":76,"name":"choice","trial_type":"html-keyboard-response","trial_index":76,"time_elapsed":180887,"internal_node_id":"0.0-76.0","subject":"S1C1609","sona":"36250","block":6,"time":"2021-09-15T15:55:08.320Z","response":"2nd","certainty":"high","char":"L","transposition":1,"order":["shifted","swapped"],"probe_pitches":[11,10,14,7,6,7,9,13,5,8,10,7,14,8,11,10],"shifted_pitches":[11,10,14,7,6,7,9,12,5,8,10,7,14,8,11,10],"swapped_pitches":[11,10,14,7,6,7,9,5,13,8,10,7,14,8,11,10],"shift_direction":-1,"question_num":61,"has_decoy":false},{"rt":320.2450000680983,"stimulus":"[A] option 1, [L] option 2, [G] neither","key_press":65,"name":"choice","trial_type":"html-keyboard-response","trial_index":87,"time_elapsed":205551,"internal_node_id":"0.0-87.0","subject":"S1C1609","sona":"36250","block":6,"time":"2021-09-15T15:55:08.320Z","response":"1st","certainty":"high","char":"A","transposition":-2,"order":["shifted","swapped"],"probe_pitches":[13,10,3,8,13,8,10,6,1,3,13,6,3,8,10,13],"shifted_pitches":[13,10,3,8,13,8,10,6,0,3,13,6,3,8,10,13],"swapped_pitches":[13,10,3,8,13,8,10,1,6,3,13,6,3,8,10,13],"shift_direction":-1,"question_num":71,"has_decoy":false},{"rt":2065.4349999967963,"stimulus":"[A] option 1, [L] option 2, [G] neither","key_press":71,"name":"choice","trial_type":"html-keyboard-response","trial_index":98,"time_elapsed":230054,"internal_node_id":"0.0-98.0","subject":"S1C1609","sona":"36250","block":6,"time":"2021-09-15T15:55:08.320Z","response":"neither","certainty":"high","char":"G","transposition":-3,"order":["shifted","swapped"],"probe_pitches":[6,3,4,6,14,11,12,9,6,12,13,7,6,10,14,8],"shifted_pitches":[6,3,4,6,14,11,12,9,5,12,13,7,6,10,14,8],"swapped_pitches":[6,3,4,6,14,11,12,6,9,12,13,7,6,10,14,8],"shift_direction":-1,"question_num":81,"has_decoy":false},{"rt":1952.1500000264496,"stimulus":"[A] option 1, [L] option 2, [G] neither","key_press":71,"name":"choice","trial_type":"html-keyboard-response","trial_index":109,"time_elapsed":255941,"internal_node_id":"0.0-109.0","subject":"S1C1609","sona":"36250","block":6,"time":"2021-09-15T15:55:08.320Z","response":"neither","certainty":"high","char":"G","transposition":-3,"order":["shifted","swapped"],"probe_pitches":[11,5,10,6,8,3,6,8,14,5,8,13,2,13,8,2],"shifted_pitches":[11,5,10,6,8,3,6,9,14,5,8,13,2,13,8,2],"swapped_pitches":[11,5,10,6,8,3,6,14,8,5,8,13,2,13,8,2],"shift_direction":1,"question_num":91,"has_decoy":false},{"rt":1912.504999898374,"stimulus":"[A] option 1, [L] option 2, [G] neither","key_press":65,"name":"choice","trial_type":"html-keyboard-response","trial_index":120,"time_elapsed":282291,"internal_node_id":"0.0-120.0","subject":"S1C1609","sona":"36250","block":6,"time":"2021-09-15T15:55:08.320Z","response":"1st","certainty":"high","char":"A","transposition":0,"order":["shifted","swapped"],"probe_pitches":[3,5,1,8,1,10,8,10,13,1,3,1,5,1,3,13],"shifted_pitches":[3,5,1,8,1,10,8,10,12,1,3,1,5,1,3,13],"swapped_pitches":[3,5,1,8,1,10,8,13,10,1,3,1,5,1,3,13],"shift_direction":-1,"question_num":101,"has_decoy":false},{"rt":2232.069999910891,"stimulus":"[A] option 1, [L] option 2, [G] neither","key_press":76,"name":"choice","trial_type":"html-keyboard-response","trial_index":131,"time_elapsed":314499,"internal_node_id":"0.0-131.0","subject":"S1C1609","sona":"36250","block":6,"time":"2021-09-15T15:55:08.320Z","response":"2nd","certainty":"high","char":"L","transposition":-1,"order":["swapped","shifted"],"probe_pitches":[9,5,9,2,8,5,13,6,4,5,11,8,9,10,6,14],"shifted_pitches":[9,5,9,2,8,5,13,7,4,5,11,8,9,10,6,14],"swapped_pitches":[9,5,9,2,8,5,13,4,6,5,11,8,9,10,6,14],"shift_direction":1,"question_num":111,"has_decoy":false},{"rt":1297.1299999626353,"stimulus":"[A] option 1, [L] option 2, [G] neither","key_press":65,"name":"choice","trial_type":"html-keyboard-response","trial_index":142,"time_elapsed":339378,"internal_node_id":"0.0-142.0","subject":"S1C1609","sona":"36250","block":6,"time":"2021-09-15T15:55:08.320Z","response":"1st","certainty":"high","char":"A","transposition":2,"order":["swapped","shifted"],"probe_pitches":[13,8,3,8,5,10,1,10,13,5,8,13,8,13,3,1],"shifted_pitches":[13,8,3,8,5,10,1,11,13,5,8,13,8,13,3,1],"swapped_pitches":[13,8,3,8,5,10,1,13,10,5,8,13,8,13,3,1],"shift_direction":1,"question_num":121,"has_decoy":false},{"rt":1048.4749999595806,"stimulus":"[A] option 1, [L] option 2, [G] neither","key_press":76,"name":"choice","trial_type":"html-keyboard-response","trial_index":153,"time_elapsed":363258,"internal_node_id":"0.0-153.0","subject":"S1C1609","sona":"36250","block":6,"time":"2021-09-15T15:55:08.320Z","response":"2nd","certainty":"high","char":"L","transposition":-3,"order":["shifted","swapped"],"probe_pitches":[6,1,3,8,6,13,3,10,8,6,10,6,3,8,3,6],"shifted_pitches":[6,1,3,8,6,13,3,10,9,6,10,6,3,8,3,6],"swapped_pitches":[6,1,3,8,6,13,3,8,10,6,10,6,3,8,3,6],"shift_direction":1,"question_num":131,"has_decoy":false},{"rt":587.2199999867007,"stimulus":"[A] option 1, [L] option 2, [G] neither","key_press":71,"name":"choice","trial_type":"html-keyboard-response","trial_index":164,"time_elapsed":387986,"internal_node_id":"0.0-164.0","subject":"S1C1609","sona":"36250","block":6,"time":"2021-09-15T15:55:08.320Z","response":"neither","certainty":"high","char":"G","transposition":2,"order":["shifted","swapped"],"probe_pitches":[14,13,11,6,5,4,10,9,3,14,11,2,6,10,13,4],"shifted_pitches":[14,13,11,6,5,4,10,8,3,14,11,2,6,10,13,4],"swapped_pitches":[14,13,11,6,5,4,10,3,9,14,11,2,6,10,13,4],"shift_direction":-1,"question_num":141,"has_decoy":false},{"rt":1154.7799999825656,"stimulus":"[A] option 1, [L] option 2, [G] neither","key_press":76,"name":"choice","trial_type":"html-keyboard-response","trial_index":175,"time_elapsed":412458,"internal_node_id":"0.0-175.0","subject":"S1C1609","sona":"36250","block":6,"time":"2021-09-15T15:55:08.320Z","response":"2nd","certainty":"high","char":"L","transposition":-1,"order":["swapped","shifted"],"probe_pitches":[7,12,8,2,4,2,13,3,5,10,12,14,7,2,9,7],"shifted_pitches":[7,12,8,2,4,2,13,3,6,10,12,14,7,2,9,7],"swapped_pitches":[7,12,8,2,4,2,13,5,3,10,12,14,7,2,9,7],"shift_direction":1,"question_num":151,"has_decoy":false},{"rt":392.4400000832975,"stimulus":"[A] option 1, [L] option 2, [G] neither","key_press":65,"name":"choice","trial_type":"html-keyboard-response","trial_index":186,"time_elapsed":435504,"internal_node_id":"0.0-186.0","subject":"S1C1609","sona":"36250","block":6,"time":"2021-09-15T15:55:08.320Z","response":"1st","certainty":"high","char":"A","transposition":3,"order":["swapped","shifted"],"probe_pitches":[12,11,6,11,5,10,9,2,8,5,6,4,6,9,14,9],"shifted_pitches":[12,11,6,11,5,10,9,1,8,5,6,4,6,9,14,9],"swapped_pitches":[12,11,6,11,5,10,9,8,2,5,6,4,6,9,14,9],"shift_direction":-1,"question_num":161,"has_decoy":false},{"rt":978.5299999639392,"stimulus":"[A] option 1, [L] option 2, [G] neither","key_press":76,"name":"choice","trial_type":"html-keyboard-response","trial_index":197,"time_elapsed":459674,"internal_node_id":"0.0-197.0","subject":"S1C1609","sona":"36250","block":6,"time":"2021-09-15T15:55:08.320Z","response":"2nd","certainty":"high","char":"L","transposition":3,"order":["swapped","shifted"],"probe_pitches":[4,6,1,4,1,9,13,4,11,13,1,9,1,11,6,13],"shifted_pitches":[4,6,1,4,1,9,13,3,11,13,1,9,1,11,6,13],"swapped_pitches":[4,6,1,4,1,9,13,11,4,13,1,9,1,11,6,13],"shift_direction":-1,"question_num":171,"has_decoy":false},{"rt":1547.9500000365078,"stimulus":"[A] option 1, [L] option 2, [G] neither","key_press":76,"name":"choice","trial_type":"html-keyboard-response","trial_index":208,"time_elapsed":484922,"internal_node_id":"0.0-208.0","subject":"S1C1609","sona":"36250","block":6,"time":"2021-09-15T15:55:08.320Z","response":"2nd","certainty":"high","char":"L","transposition":-2,"order":["swapped","shifted"],"probe_pitches":[4,6,7,4,2,6,8,2,9,8,2,6,2,14,5,13],"shifted_pitches":[4,6,7,4,2,6,8,2,10,8,2,6,2,14,5,13],"swapped_pitches":[4,6,7,4,2,6,8,9,2,8,2,6,2,14,5,13],"shift_direction":1,"question_num":181,"has_decoy":false},{"rt":308.4749999688938,"stimulus":"[A] option 1, [L] option 2, [G] neither","key_press":65,"name":"choice","trial_type":"html-keyboard-response","trial_index":219,"time_elapsed":507682,"internal_node_id":"0.0-219.0","subject":"S1C1609","sona":"36250","block":6,"time":"2021-09-15T15:55:08.320Z","response":"1st","certainty":"high","char":"A","transposition":1,"order":["swapped","shifted"],"probe_pitches":[13,8,13,8,11,1,6,13,11,6,1,6,8,6,3,13],"shifted_pitches":[13,8,13,8,11,1,6,13,10,6,1,6,8,6,3,13],"swapped_pitches":[13,8,13,8,11,1,6,11,13,6,1,6,8,6,3,13],"shift_direction":-1,"question_num":191,"has_decoy":false}]