[{"rt":1176.4299999922514,"stimulus":"[A] option 1, [L] option 2, [G] neither","key_press":71,"name":"choice","trial_type":"html-keyboard-response","trial_index":10,"time_elapsed":25125,"internal_node_id":"0.0-10.0","subject":"S1C1609","sona":"36250","block":4,"time":"2021-09-15T15:37:23.325Z","response":"neither","certainty":"high","char":"G","transposition":-1,"order":["shifted","swapped"],"probe_pitches":[4,10,6,14,6,4,13,12,8,13,8,2,13,4,2,10],"shifted_pitches":[4,10,6,14,6,4,13,11,8,13,8,2,13,4,2,10],"swapped_pitches":[4,10,6,14,6,4,13,8,12,13,8,2,13,4,2,10],"shift_direction":-1,"question_num":1,"has_decoy":false},{"rt":2874.3300000205636,"stimulus":"[A] option 1, [L] option 2, [G] neither","key_press":76,"name":"choice","trial_type":"html-keyboard-response","trial_index":21,"time_elapsed":50482,"internal_node_id":"0.0-21.0","subject":"S1C1609","sona":"36250","block":4,"time":"2021-09-15T15:37:23.325Z","response":"2nd","certainty":"high","char":"L","transposition":-1,"order":["shifted","swapped"],"probe_pitches":[6,1,6,1,9,11,9,4,1,13,9,13,4,13,4,1],"shifted_pitches":[6,1,6,1,9,11,9,4,2,13,9,13,4,13,4,1],"swapped_pitches":[6,1,6,1,9,11,9,1,4,13,9,13,4,13,4,1],"shift_direction":1,"question_num":11,"has_decoy":false},{"rt":841.8199999723583,"stimulus":"[A] option 1, [L] option 2, [G] neither","key_press":65,"name":"choice","trial_type":"html-keyboard-response","trial_index":32,"time_elapsed":76247,"internal_node_id":"0.0-32.0","subject":"S1C1609","sona":"36250","block":4,"time":"2021-09-15T15:37:23.325Z","response":"1st","certainty":"high","char":"A","transposition":0,"order":["shifted","swapped"],"probe_pitches":[6,1,6,11,13,6,9,13,6,4,11,4,11,6,13,11],"shifted_pitches":[6,1,6,11,13,6,9,13,7,4,11,4,11,6,13,11],"swapped_pitches":[6,1,6,11,13,6,9,6,13,4,11,4,11,6,13,11],"shift_direction":1,"question_num":21,"has_decoy":false},{"rt":455.19999996759,"stimulus":"[A] option 1, [L] option 2, [G] neither","key_press":71,"name":"choice","trial_type":"html-keyboard-response","trial_index":43,"time_elapsed":99359,"internal_node_id":"0.0-43.0","subject":"S1C1609","sona":"36250","block":4,"time":"2021-09-15T15:37:23.325Z","response":"neither","certainty":"high","char":"G","transposition":-3,"order":["swapped","shifted"],"probe_pitches":[11,8,4,3,2,6,13,6,11,7,5,2,6,3,4,13],"shifted_pitches":[11,8,4,3,2,6,13,6,12,7,5,2,6,3,4,13],"swapped_pitches":[11,8,4,3,2,6,13,11,6,7,5,2,6,3,4,13],"shift_direction":1,"question_num":31,"has_decoy":false},{"rt":1174.0649999119341,"stimulus":"[A] option 1, [L] option 2, [G] neither","key_press":71,"name":"choice","trial_type":"html-keyboard-response","trial_index":54,"time_elapsed":123139,"internal_node_id":"0.0-54.0","subject":"S1C1609","sona":"36250","block":4,"time":"2021-09-15T15:37:23.325Z","response":"neither","certainty":"high","char":"G","transposition":0,"order":["swapped","shifted"],"probe_pitches":[11,9,14,11,7,11,6,9,12,4,9,13,10,3,6,2],"shifted_pitches":[11,9,14,11,7,11,6,8,12,4,9,13,10,3,6,2],"swapped_pitches":[11,9,14,11,7,11,6,12,9,4,9,13,10,3,6,2],"shift_direction":-1,"question_num":41,"has_decoy":false},{"rt":1021.7000000411645,"stimulus":"[A] option 1, [L] option 2, [G] neither","key_press":71,"name":"choice","trial_type":"html-keyboard-response","trial_index":65,"time_elapsed":150982,"internal_node_id":"0.0-65.0","subject":"S1C1609","sona":"36250","block":4,"time":"2021-09-15T15:37:23.325Z","response":"neither","certainty":"high","char":"G","transposition":-2,"order":["swapped","shifted"],"probe_pitches":[8,13,8,3,10,1,10,3,13,1,13,10,8,6,10,13],"shifted_pitches":[8,13,8,3,10,1,10,3,12,1,13,10,8,6,10,13],"swapped_pitches":[8,13,8,3,10,1,10,13,3,1,13,10,8,6,10,13],"shift_direction":-1,"question_num":51,"has_decoy":false},{"rt":250.15500001609325,"stimulus":"[A] option 1, [L] option 2, [G] neither","key_press":65,"name":"choice","trial_type":"html-keyboard-response","trial_index":76,"time_elapsed":177043,"internal_node_id":"0.0-76.0","subject":"S1C1609","sona":"36250","block":4,"time":"2021-09-15T15:37:23.325Z","response":"1st","certainty":"high","char":"A","transposition":1,"order":["shifted","swapped"],"probe_pitches":[1,6,1,8,1,8,13,11,3,1,13,3,13,3,6,8],"shifted_pitches":[1,6,1,8,1,8,13,11,2,1,13,3,13,3,6,8],"swapped_pitches":[1,6,1,8,1,8,13,3,11,1,13,3,13,3,6,8],"shift_direction":-1,"question_num":61,"has_decoy":false},{"rt":1761.1649999162182,"stimulus":"[A] option 1, [L] option 2, [G] neither","key_press":76,"name":"choice","trial_type":"html-keyboard-response","trial_index":87,"time_elapsed":201466,"internal_node_id":"0.0-87.0","subject":"S1C1609","sona":"36250","block":4,"time":"2021-09-15T15:37:23.325Z","response":"2nd","certainty":"high","char":"L","transposition":3,"order":["swapped","shifted"],"probe_pitches":[3,8,5,3,5,10,8,13,10,3,10,13,10,1,10,8],"shifted_pitches":[3,8,5,3,5,10,8,14,10,3,10,13,10,1,10,8],"swapped_pitches":[3,8,5,3,5,10,8,10,13,3,10,13,10,1,10,8],"shift_direction":1,"question_num":71,"has_decoy":false},{"rt":607.4650000082329,"stimulus":"[A] option 1, [L] option 2, [G] neither","key_press":71,"name":"choice","trial_type":"html-keyboard-response","trial_index":98,"time_elapsed":228574,"internal_node_id":"0.0-98.0","subject":"S1C1609","sona":"36250","block":4,"time":"2021-09-15T15:37:23.325Z","response":"neither","certainty":"high","char":"G","transposition":-3,"order":["shifted","swapped"],"probe_pitches":[4,7,2,4,5,3,4,8,7,4,2,12,11,7,6,10],"shifted_pitches":[4,7,2,4,5,3,4,9,7,4,2,12,11,7,6,10],"swapped_pitches":[4,7,2,4,5,3,4,7,8,4,2,12,11,7,6,10],"shift_direction":1,"question_num":81,"has_decoy":false},{"rt":1243.6699999962002,"stimulus":"[A] option 1, [L] option 2, [G] neither","key_press":65,"name":"choice","trial_type":"html-keyboard-response","trial_index":109,"time_elapsed":263013,"internal_node_id":"0.0-109.0","subject":"S1C1609","sona":"36250","block":4,"time":"2021-09-15T15:37:23.325Z","response":"1st","certainty":"high","char":"A","transposition":2,"order":["swapped","shifted"],"probe_pitches":[2,8,14,13,8,13,3,5,7,9,14,13,7,11,8,10],"shifted_pitches":[2,8,14,13,8,13,3,4,7,9,14,13,7,11,8,10],"swapped_pitches":[2,8,14,13,8,13,3,7,5,9,14,13,7,11,8,10],"shift_direction":-1,"question_num":91,"has_decoy":false},{"rt":4096.489999908954,"stimulus":"[A] option 1, [L] option 2, [G] neither","key_press":65,"name":"choice","trial_type":"html-keyboard-response","trial_index":120,"time_elapsed":289551,"internal_node_id":"0.0-120.0","subject":"S1C1609","sona":"36250","block":4,"time":"2021-09-15T15:37:23.325Z","response":"1st","certainty":"high","char":"A","transposition":-2,"order":["swapped","shifted"],"probe_pitches":[12,8,11,6,13,6,13,9,11,4,2,5,6,12,6,3],"shifted_pitches":[12,8,11,6,13,6,13,9,10,4,2,5,6,12,6,3],"swapped_pitches":[12,8,11,6,13,6,13,11,9,4,2,5,6,12,6,3],"shift_direction":-1,"question_num":101,"has_decoy":false},{"rt":1065.5450000194833,"stimulus":"[A] option 1, [L] option 2, [G] neither","key_press":71,"name":"choice","trial_type":"html-keyboard-response","trial_index":131,"time_elapsed":313480,"internal_node_id":"0.0-131.0","subject":"S1C1609","sona":"36250","block":4,"time":"2021-09-15T15:37:23.325Z","response":"neither","certainty":"high","char":"G","transposition":3,"order":["swapped","shifted"],"probe_pitches":[4,5,6,9,4,10,4,7,12,2,3,4,5,9,4,6],"shifted_pitches":[4,5,6,9,4,10,4,7,13,2,3,4,5,9,4,6],"swapped_pitches":[4,5,6,9,4,10,4,12,7,2,3,4,5,9,4,6],"shift_direction":1,"question_num":111,"has_decoy":false},{"rt":363.04500000551343,"stimulus":"[A] option 1, [L] option 2, [G] neither","key_press":76,"name":"choice","trial_type":"html-keyboard-response","trial_index":142,"time_elapsed":336965,"internal_node_id":"0.0-142.0","subject":"S1C1609","sona":"36250","block":4,"time":"2021-09-15T15:37:23.325Z","response":"2nd","certainty":"high","char":"L","transposition":-3,"order":["shifted","swapped"],"probe_pitches":[8,5,3,10,8,13,10,13,1,5,1,10,13,1,8,1],"shifted_pitches":[8,5,3,10,8,13,10,12,1,5,1,10,13,1,8,1],"swapped_pitches":[8,5,3,10,8,13,10,1,13,5,1,10,13,1,8,1],"shift_direction":-1,"question_num":121,"has_decoy":false},{"rt":568.6599999899045,"stimulus":"[A] option 1, [L] option 2, [G] neither","key_press":71,"name":"choice","trial_type":"html-keyboard-response","trial_index":153,"time_elapsed":359944,"internal_node_id":"0.0-153.0","subject":"S1C1609","sona":"36250","block":4,"time":"2021-09-15T15:37:23.325Z","response":"neither","certainty":"high","char":"G","transposition":2,"order":["shifted","swapped"],"probe_pitches":[1,4,8,6,11,6,4,6,8,11,6,13,8,13,4,8],"shifted_pitches":[1,4,8,6,11,6,4,7,8,11,6,13,8,13,4,8],"swapped_pitches":[1,4,8,6,11,6,4,8,6,11,6,13,8,13,4,8],"shift_direction":1,"question_num":131,"has_decoy":false},{"rt":1761.8950000032783,"stimulus":"[A] option 1, [L] option 2, [G] neither","key_press":71,"name":"choice","trial_type":"html-keyboard-response","trial_index":164,"time_elapsed":386726,"internal_node_id":"0.0-164.0","subject":"S1C1609","sona":"36250","block":4,"time":"2021-09-15T15:37:23.325Z","response":"neither","certainty":"high","char":"G","transposition":-1,"order":["shifted","swapped"],"probe_pitches":[3,4,10,9,14,12,13,3,6,9,2,6,3,14,5,14],"shifted_pitches":[3,4,10,9,14,12,13,3,7,9,2,6,3,14,5,14],"swapped_pitches":[3,4,10,9,14,12,13,6,3,9,2,6,3,14,5,14],"shift_direction":1,"question_num":141,"has_decoy":false},{"rt":1654.3900000397116,"stimulus":"[A] option 1, [L] option 2, [G] neither","key_press":71,"name":"choice","trial_type":"html-keyboard-response","trial_index":175,"time_elapsed":411627,"internal_node_id":"0.0-175.0","subject":"S1C1609","sona":"36250","block":4,"time":"2021-09-15T15:37:23.325Z","response":"neither","certainty":"high","char":"G","transposition":-2,"order":["swapped","shifted"],"probe_pitches":[1,4,11,13,4,6,1,8,4,11,6,13,8,13,11,1],"shifted_pitches":[1,4,11,13,4,6,1,7,4,11,6,13,8,13,11,1],"swapped_pitches":[1,4,11,13,4,6,1,4,8,11,6,13,8,13,11,1],"shift_direction":-1,"question_num":151,"has_decoy":false},{"rt":540.2499999618158,"stimulus":"[A] option 1, [L] option 2, [G] neither","key_press":76,"name":"choice","trial_type":"html-keyboard-response","trial_index":186,"time_elapsed":436305,"internal_node_id":"0.0-186.0","subject":"S1C1609","sona":"36250","block":4,"time":"2021-09-15T15:37:23.325Z","response":"2nd","certainty":"high","char":"L","transposition":1,"order":["shifted","swapped"],"probe_pitches":[13,12,6,11,2,12,2,6,4,2,9,13,3,4,12,9],"shifted_pitches":[13,12,6,11,2,12,2,5,4,2,9,13,3,4,12,9],"swapped_pitches":[13,12,6,11,2,12,2,4,6,2,9,13,3,4,12,9],"shift_direction":-1,"question_num":161,"has_decoy":false},{"rt":856.7200000397861,"stimulus":"[A] option 1, [L] option 2, [G] neither","key_press":65,"name":"choice","trial_type":"html-keyboard-response","trial_index":197,"time_elapsed":460046,"internal_node_id":"0.0-197.0","subject":"S1C1609","sona":"36250","block":4,"time":"2021-09-15T15:37:23.325Z","response":"1st","certainty":"high","char":"A","transposition":-2,"order":["shifted","swapped"],"probe_pitches":[4,2,8,3,8,13,9,3,5,4,12,7,3,10,8,13],"shifted_pitches":[4,2,8,3,8,13,9,3,6,4,12,7,3,10,8,13],"swapped_pitches":[4,2,8,3,8,13,9,5,3,4,12,7,3,10,8,13],"shift_direction":1,"question_num":171,"has_decoy":false},{"rt":1092.8949998924509,"stimulus":"[A] option 1, [L] option 2, [G] neither","key_press":76,"name":"choice","trial_type":"html-keyboard-response","trial_index":208,"time_elapsed":484565,"internal_node_id":"0.0-208.0","subject":"S1C1609","sona":"36250","block":4,"time":"2021-09-15T15:37:23.325Z","response":"2nd","certainty":"high","char":"L","transposition":-3,"order":["swapped","shifted"],"probe_pitches":[8,10,6,10,6,10,3,1,6,3,6,10,6,3,10,3],"shifted_pitches":[8,10,6,10,6,10,3,0,6,3,6,10,6,3,10,3],"swapped_pitches":[8,10,6,10,6,10,3,6,1,3,6,10,6,3,10,3],"shift_direction":-1,"question_num":181,"has_decoy":false},{"rt":634.5150000415742,"stimulus":"[A] option 1, [L] option 2, [G] neither","key_press":76,"name":"choice","trial_type":"html-keyboard-response","trial_index":219,"time_elapsed":508298,"internal_node_id":"0.0-219.0","subject":"S1C1609","sona":"36250","block":4,"time":"2021-09-15T15:37:23.325Z","response":"2nd","certainty":"high","char":"L","transposition":-1,"order":["swapped","shifted"],"probe_pitches":[3,6,11,13,6,8,6,13,1,11,8,1,3,13,11,1],"shifted_pitches":[3,6,11,13,6,8,6,13,2,11,8,1,3,13,11,1],"swapped_pitches":[3,6,11,13,6,8,6,1,13,11,8,1,3,13,11,1],"shift_direction":1,"question_num":191,"has_decoy":false}]