[{"rt":6308.780000079423,"stimulus":"[A] option 1, [L] option 2, [G] neither","key_press":76,"name":"choice","trial_type":"html-keyboard-response","trial_index":15,"time_elapsed":95986,"internal_node_id":"0.0-15.0","response":"2nd","certainty":"high","char":"L","transposition":2,"order":["swapped","shifted"],"probe_pitches":[11,10,6,0,5,-1,7,0,5,9,4,3,8,-1,0,-1],"shifted_pitches":[11,10,6,0,5,-1,7,1,5,9,4,3,8,-1,0,-1],"swapped_pitches":[11,10,6,0,5,-1,7,5,0,9,4,3,8,-1,0,-1],"shift_direction":1,"question_num":1,"has_decoy":false,"subject":"S1C1609","sona":"36250","block":1,"time":"2021-09-15T15:11:37.922Z"},{"rt":4518.710000091232,"stimulus":"[A] option 1, [L] option 2, [G] neither","key_press":71,"name":"choice","trial_type":"html-keyboard-response","trial_index":26,"time_elapsed":125647,"internal_node_id":"0.0-26.0","response":"neither","certainty":"high","char":"G","transposition":3,"order":["swapped","shifted"],"probe_pitches":[9,4,2,-1,4,11,6,4,-1,11,-1,9,2,4,2,4],"shifted_pitches":[9,4,2,-1,4,11,6,4,0,11,-1,9,2,4,2,4],"swapped_pitches":[9,4,2,-1,4,11,6,-1,4,11,-1,9,2,4,2,4],"shift_direction":1,"question_num":11,"has_decoy":false,"subject":"S1C1609","sona":"36250","block":1,"time":"2021-09-15T15:11:37.922Z"},{"rt":1702.060000039637,"stimulus":"[A] option 1, [L] option 2, [G] neither","key_press":65,"name":"choice","trial_type":"html-keyboard-response","trial_index":37,"time_elapsed":150968,"internal_node_id":"0.0-37.0","response":"1st","certainty":"high","char":"A","transposition":-1,"order":["shifted","swapped"],"probe_pitches":[9,4,1,-1,4,9,1,-1,4,9,11,6,1,-1,11,4],"shifted_pitches":[9,4,1,-1,4,9,1,0,4,9,11,6,1,-1,11,4],"swapped_pitches":[9,4,1,-1,4,9,1,4,-1,9,11,6,1,-1,11,4],"shift_direction":1,"question_num":21,"has_decoy":false,"subject":"S1C1609","sona":"36250","block":1,"time":"2021-09-15T15:11:37.922Z"},{"rt":4477.330000023358,"stimulus":"[A] option 1, [L] option 2, [G] neither","key_press":65,"name":"choice","trial_type":"html-keyboard-response","trial_index":48,"time_elapsed":179220,"internal_node_id":"0.0-48.0","response":"1st","certainty":"high","char":"A","transposition":-2,"order":["shifted","swapped"],"probe_pitches":[6,0,3,9,1,6,1,10,3,0,9,3,8,6,1,8],"shifted_pitches":[6,0,3,9,1,6,1,10,4,0,9,3,8,6,1,8],"swapped_pitches":[6,0,3,9,1,6,1,3,10,0,9,3,8,6,1,8],"shift_direction":1,"question_num":31,"has_decoy":false,"subject":"S1C1609","sona":"36250","block":1,"time":"2021-09-15T15:11:37.922Z"},{"rt":1518.045000033453,"stimulus":"[A] option 1, [L] option 2, [G] neither","key_press":76,"name":"choice","trial_type":"html-keyboard-response","trial_index":59,"time_elapsed":204234,"internal_node_id":"0.0-59.0","response":"2nd","certainty":"high","char":"L","transposition":-2,"order":["swapped","shifted"],"probe_pitches":[-1,1,6,-1,1,8,1,8,6,3,11,3,6,-1,6,11],"shifted_pitches":[-1,1,6,-1,1,8,1,9,6,3,11,3,6,-1,6,11],"swapped_pitches":[-1,1,6,-1,1,8,1,6,8,3,11,3,6,-1,6,11],"shift_direction":1,"question_num":41,"has_decoy":false,"subject":"S1C1609","sona":"36250","block":1,"time":"2021-09-15T15:11:37.922Z"},{"rt":1204.1449999669567,"stimulus":"[A] option 1, [L] option 2, [G] neither","key_press":71,"name":"choice","trial_type":"html-keyboard-response","trial_index":70,"time_elapsed":230694,"internal_node_id":"0.0-70.0","response":"neither","certainty":"high","char":"G","transposition":-1,"order":["swapped","shifted"],"probe_pitches":[3,9,7,4,3,6,-1,11,5,2,4,5,2,-1,9,2],"shifted_pitches":[3,9,7,4,3,6,-1,10,5,2,4,5,2,-1,9,2],"swapped_pitches":[3,9,7,4,3,6,-1,5,11,2,4,5,2,-1,9,2],"shift_direction":-1,"question_num":51,"has_decoy":false,"subject":"S1C1609","sona":"36250","block":1,"time":"2021-09-15T15:11:37.922Z"},{"rt":1670.2649999642745,"stimulus":"[A] option 1, [L] option 2, [G] neither","key_press":71,"name":"choice","trial_type":"html-keyboard-response","trial_index":81,"time_elapsed":256333,"internal_node_id":"0.0-81.0","response":"neither","certainty":"high","char":"G","transposition":-3,"order":["shifted","swapped"],"probe_pitches":[11,8,2,4,11,6,3,6,7,3,2,10,0,2,1,0],"shifted_pitches":[11,8,2,4,11,6,3,5,7,3,2,10,0,2,1,0],"swapped_pitches":[11,8,2,4,11,6,3,7,6,3,2,10,0,2,1,0],"shift_direction":-1,"question_num":61,"has_decoy":false,"subject":"S1C1609","sona":"36250","block":1,"time":"2021-09-15T15:11:37.922Z"},{"rt":1865.1199999731034,"stimulus":"[A] option 1, [L] option 2, [G] neither","key_press":71,"name":"choice","trial_type":"html-keyboard-response","trial_index":92,"time_elapsed":281802,"internal_node_id":"0.0-92.0","response":"neither","certainty":"high","char":"G","transposition":1,"order":["shifted","swapped"],"probe_pitches":[4,9,4,2,6,9,11,9,4,11,-1,9,4,2,11,9],"shifted_pitches":[4,9,4,2,6,9,11,10,4,11,-1,9,4,2,11,9],"swapped_pitches":[4,9,4,2,6,9,11,4,9,11,-1,9,4,2,11,9],"shift_direction":1,"question_num":71,"has_decoy":false,"subject":"S1C1609","sona":"36250","block":1,"time":"2021-09-15T15:11:37.922Z"},{"rt":2026.5150000341237,"stimulus":"[A] option 1, [L] option 2, [G] neither","key_press":76,"name":"choice","trial_type":"html-keyboard-response","trial_index":103,"time_elapsed":307206,"internal_node_id":"0.0-103.0","response":"2nd","certainty":"high","char":"L","transposition":0,"order":["shifted","swapped"],"probe_pitches":[6,11,9,3,5,11,2,3,8,9,8,11,9,10,5,8],"shifted_pitches":[6,11,9,3,5,11,2,3,7,9,8,11,9,10,5,8],"swapped_pitches":[6,11,9,3,5,11,2,8,3,9,8,11,9,10,5,8],"shift_direction":-1,"question_num":81,"has_decoy":false,"subject":"S1C1609","sona":"36250","block":1,"time":"2021-09-15T15:11:37.922Z"},{"rt":1941.8050000676885,"stimulus":"[A] option 1, [L] option 2, [G] neither","key_press":71,"name":"choice","trial_type":"html-keyboard-response","trial_index":114,"time_elapsed":332412,"internal_node_id":"0.0-114.0","response":"neither","certainty":"high","char":"G","transposition":-3,"order":["swapped","shifted"],"probe_pitches":[1,3,-1,6,1,5,3,10,6,7,3,8,7,11,0,2],"shifted_pitches":[1,3,-1,6,1,5,3,9,6,7,3,8,7,11,0,2],"swapped_pitches":[1,3,-1,6,1,5,3,6,10,7,3,8,7,11,0,2],"shift_direction":-1,"question_num":91,"has_decoy":false,"subject":"S1C1609","sona":"36250","block":1,"time":"2021-09-15T15:11:37.922Z"},{"rt":2619.0750000532717,"stimulus":"[A] option 1, [L] option 2, [G] neither","key_press":65,"name":"choice","trial_type":"html-keyboard-response","trial_index":125,"time_elapsed":358609,"internal_node_id":"0.0-125.0","response":"1st","certainty":"high","char":"A","transposition":3,"order":["swapped","shifted"],"probe_pitches":[3,1,7,5,10,6,11,1,7,10,6,1,3,1,7,4],"shifted_pitches":[3,1,7,5,10,6,11,2,7,10,6,1,3,1,7,4],"swapped_pitches":[3,1,7,5,10,6,11,7,1,10,6,1,3,1,7,4],"shift_direction":1,"question_num":101,"has_decoy":false,"subject":"S1C1609","sona":"36250","block":1,"time":"2021-09-15T15:11:37.922Z"},{"rt":2583.8000000221655,"stimulus":"[A] option 1, [L] option 2, [G] neither","key_press":76,"name":"choice","trial_type":"html-keyboard-response","trial_index":136,"time_elapsed":386366,"internal_node_id":"0.0-136.0","response":"2nd","certainty":"high","char":"L","transposition":-3,"order":["swapped","shifted"],"probe_pitches":[4,7,9,4,-1,9,2,11,7,-1,9,11,2,-1,9,7],"shifted_pitches":[4,7,9,4,-1,9,2,11,6,-1,9,11,2,-1,9,7],"swapped_pitches":[4,7,9,4,-1,9,2,7,11,-1,9,11,2,-1,9,7],"shift_direction":-1,"question_num":111,"has_decoy":false,"subject":"S1C1609","sona":"36250","block":1,"time":"2021-09-15T15:11:37.922Z"},{"rt":2300.9049999527633,"stimulus":"[A] option 1, [L] option 2, [G] neither","key_press":71,"name":"choice","trial_type":"html-keyboard-response","trial_index":147,"time_elapsed":412024,"internal_node_id":"0.0-147.0","response":"neither","certainty":"high","char":"G","transposition":-2,"order":["shifted","swapped"],"probe_pitches":[4,6,3,0,-1,3,11,1,7,6,4,6,9,0,3,7],"shifted_pitches":[4,6,3,0,-1,3,11,1,8,6,4,6,9,0,3,7],"swapped_pitches":[4,6,3,0,-1,3,11,7,1,6,4,6,9,0,3,7],"shift_direction":1,"question_num":121,"has_decoy":false,"subject":"S1C1609","sona":"36250","block":1,"time":"2021-09-15T15:11:37.922Z"},{"rt":1354.6550000319257,"stimulus":"[A] option 1, [L] option 2, [G] neither","key_press":76,"name":"choice","trial_type":"html-keyboard-response","trial_index":158,"time_elapsed":438502,"internal_node_id":"0.0-158.0","response":"2nd","certainty":"high","char":"L","transposition":-2,"order":["swapped","shifted"],"probe_pitches":[4,8,6,8,11,6,-1,11,6,8,6,1,11,1,8,4],"shifted_pitches":[4,8,6,8,11,6,-1,11,5,8,6,1,11,1,8,4],"swapped_pitches":[4,8,6,8,11,6,-1,6,11,8,6,1,11,1,8,4],"shift_direction":-1,"question_num":131,"has_decoy":false,"subject":"S1C1609","sona":"36250","block":1,"time":"2021-09-15T15:11:37.922Z"},{"rt":979.2949999682605,"stimulus":"[A] option 1, [L] option 2, [G] neither","key_press":76,"name":"choice","trial_type":"html-keyboard-response","trial_index":169,"time_elapsed":462110,"internal_node_id":"0.0-169.0","response":"2nd","certainty":"high","char":"L","transposition":1,"order":["shifted","swapped"],"probe_pitches":[10,9,5,7,9,10,7,0,5,8,3,2,3,0,1,-1],"shifted_pitches":[10,9,5,7,9,10,7,0,6,8,3,2,3,0,1,-1],"swapped_pitches":[10,9,5,7,9,10,7,5,0,8,3,2,3,0,1,-1],"shift_direction":1,"question_num":141,"has_decoy":false,"subject":"S1C1609","sona":"36250","block":1,"time":"2021-09-15T15:11:37.922Z"},{"rt":1406.3300000270829,"stimulus":"[A] option 1, [L] option 2, [G] neither","key_press":71,"name":"choice","trial_type":"html-keyboard-response","trial_index":180,"time_elapsed":487524,"internal_node_id":"0.0-180.0","response":"neither","certainty":"high","char":"G","transposition":-3,"order":["shifted","swapped"],"probe_pitches":[4,2,4,-1,7,9,7,9,-1,7,2,-1,7,-1,11,-1],"shifted_pitches":[4,2,4,-1,7,9,7,9,-2,7,2,-1,7,-1,11,-1],"swapped_pitches":[4,2,4,-1,7,9,7,-1,9,7,2,-1,7,-1,11,-1],"shift_direction":-1,"question_num":151,"has_decoy":false,"subject":"S1C1609","sona":"36250","block":1,"time":"2021-09-15T15:11:37.922Z"},{"rt":1147.8700001025572,"stimulus":"[A] option 1, [L] option 2, [G] neither","key_press":76,"name":"choice","trial_type":"html-keyboard-response","trial_index":191,"time_elapsed":512406,"internal_node_id":"0.0-191.0","response":"2nd","certainty":"high","char":"L","transposition":2,"order":["swapped","shifted"],"probe_pitches":[-1,1,-1,6,-1,3,-1,8,1,3,8,11,3,8,11,8],"shifted_pitches":[-1,1,-1,6,-1,3,-1,7,1,3,8,11,3,8,11,8],"swapped_pitches":[-1,1,-1,6,-1,3,-1,1,8,3,8,11,3,8,11,8],"shift_direction":-1,"question_num":161,"has_decoy":false,"subject":"S1C1609","sona":"36250","block":1,"time":"2021-09-15T15:11:37.922Z"},{"rt":1149.7400000225753,"stimulus":"[A] option 1, [L] option 2, [G] neither","key_press":65,"name":"choice","trial_type":"html-keyboard-response","trial_index":202,"time_elapsed":537085,"internal_node_id":"0.0-202.0","response":"1st","certainty":"high","char":"A","transposition":-1,"order":["swapped","shifted"],"probe_pitches":[5,6,-1,0,9,8,11,9,4,11,9,7,6,0,9,1],"shifted_pitches":[5,6,-1,0,9,8,11,9,3,11,9,7,6,0,9,1],"swapped_pitches":[5,6,-1,0,9,8,11,4,9,11,9,7,6,0,9,1],"shift_direction":-1,"question_num":171,"has_decoy":false,"subject":"S1C1609","sona":"36250","block":1,"time":"2021-09-15T15:11:37.922Z"},{"rt":1784.3700000084937,"stimulus":"[A] option 1, [L] option 2, [G] neither","key_press":71,"name":"choice","trial_type":"html-keyboard-response","trial_index":213,"time_elapsed":562162,"internal_node_id":"0.0-213.0","response":"neither","certainty":"high","char":"G","transposition":-1,"order":["shifted","swapped"],"probe_pitches":[11,8,1,8,6,-1,4,-1,8,4,8,1,4,-1,8,4],"shifted_pitches":[11,8,1,8,6,-1,4,-1,9,4,8,1,4,-1,8,4],"swapped_pitches":[11,8,1,8,6,-1,4,8,-1,4,8,1,4,-1,8,4],"shift_direction":1,"question_num":181,"has_decoy":false,"subject":"S1C1609","sona":"36250","block":1,"time":"2021-09-15T15:11:37.922Z"},{"rt":1040.3100000694394,"stimulus":"[A] option 1, [L] option 2, [G] neither","key_press":71,"name":"choice","trial_type":"html-keyboard-response","trial_index":224,"time_elapsed":586436,"internal_node_id":"0.0-224.0","response":"neither","certainty":"high","char":"G","transposition":0,"order":["shifted","swapped"],"probe_pitches":[9,4,9,6,11,4,11,1,-1,11,6,-1,4,-1,4,9],"shifted_pitches":[9,4,9,6,11,4,11,0,-1,11,6,-1,4,-1,4,9],"swapped_pitches":[9,4,9,6,11,4,11,-1,1,11,6,-1,4,-1,4,9],"shift_direction":-1,"question_num":191,"has_decoy":false,"subject":"S1C1609","sona":"36250","block":1,"time":"2021-09-15T15:11:37.922Z"}]