[{"rt":1457.3349999263883,"stimulus":"[A] option 1, [L] option 2, [G] neither","key_press":76,"name":"choice","trial_type":"html-keyboard-response","trial_index":10,"time_elapsed":25923,"internal_node_id":"0.0-10.0","subject":"S1C1609","sona":"36250","block":5,"time":"2021-09-15T15:46:37.007Z","response":"2nd","certainty":"high","char":"L","transposition":-1,"order":["swapped","shifted"],"probe_pitches":[7,4,8,3,9,-1,7,0,5,7,-1,6,5,9,3,5],"shifted_pitches":[7,4,8,3,9,-1,7,1,5,7,-1,6,5,9,3,5],"swapped_pitches":[7,4,8,3,9,-1,7,5,0,7,-1,6,5,9,3,5],"shift_direction":1,"question_num":1,"has_decoy":false},{"rt":491.53999995905906,"stimulus":"[A] option 1, [L] option 2, [G] neither","key_press":71,"name":"choice","trial_type":"html-keyboard-response","trial_index":21,"time_elapsed":50094,"internal_node_id":"0.0-21.0","subject":"S1C1609","sona":"36250","block":5,"time":"2021-09-15T15:46:37.007Z","response":"neither","certainty":"high","char":"G","transposition":0,"order":["shifted","swapped"],"probe_pitches":[7,9,11,4,11,4,-1,4,9,2,11,9,7,-1,7,4],"shifted_pitches":[7,9,11,4,11,4,-1,4,8,2,11,9,7,-1,7,4],"swapped_pitches":[7,9,11,4,11,4,-1,9,4,2,11,9,7,-1,7,4],"shift_direction":-1,"question_num":11,"has_decoy":false},{"rt":1368.0000000167638,"stimulus":"[A] option 1, [L] option 2, [G] neither","key_press":71,"name":"choice","trial_type":"html-keyboard-response","trial_index":32,"time_elapsed":74042,"internal_node_id":"0.0-32.0","subject":"S1C1609","sona":"36250","block":5,"time":"2021-09-15T15:46:37.007Z","response":"neither","certainty":"high","char":"G","transposition":0,"order":["swapped","shifted"],"probe_pitches":[3,0,4,6,9,10,9,5,3,-1,4,5,-1,7,-1,3],"shifted_pitches":[3,0,4,6,9,10,9,5,2,-1,4,5,-1,7,-1,3],"swapped_pitches":[3,0,4,6,9,10,9,3,5,-1,4,5,-1,7,-1,3],"shift_direction":-1,"question_num":21,"has_decoy":false},{"rt":1563.9800000935793,"stimulus":"[A] option 1, [L] option 2, [G] neither","key_press":76,"name":"choice","trial_type":"html-keyboard-response","trial_index":43,"time_elapsed":103886,"internal_node_id":"0.0-43.0","subject":"S1C1609","sona":"36250","block":5,"time":"2021-09-15T15:46:37.007Z","response":"2nd","certainty":"high","char":"L","transposition":-2,"order":["shifted","swapped"],"probe_pitches":[-2,1,4,2,0,7,10,0,6,2,10,-2,3,-2,6,0],"shifted_pitches":[-2,1,4,2,0,7,10,0,5,2,10,-2,3,-2,6,0],"swapped_pitches":[-2,1,4,2,0,7,10,6,0,2,10,-2,3,-2,6,0],"shift_direction":-1,"question_num":31,"has_decoy":false},{"rt":955.725000007078,"stimulus":"[A] option 1, [L] option 2, [G] neither","key_press":71,"name":"choice","trial_type":"html-keyboard-response","trial_index":54,"time_elapsed":129017,"internal_node_id":"0.0-54.0","subject":"S1C1609","sona":"36250","block":5,"time":"2021-09-15T15:46:37.007Z","response":"neither","certainty":"high","char":"G","transposition":-1,"order":["swapped","shifted"],"probe_pitches":[3,5,4,7,-1,8,4,5,8,2,7,6,2,8,-2,7],"shifted_pitches":[3,5,4,7,-1,8,4,5,9,2,7,6,2,8,-2,7],"swapped_pitches":[3,5,4,7,-1,8,4,8,5,2,7,6,2,8,-2,7],"shift_direction":1,"question_num":41,"has_decoy":false},{"rt":624.430000083521,"stimulus":"[A] option 1, [L] option 2, [G] neither","key_press":71,"name":"choice","trial_type":"html-keyboard-response","trial_index":65,"time_elapsed":197471,"internal_node_id":"0.0-65.0","subject":"S1C1609","sona":"36250","block":5,"time":"2021-09-15T15:46:37.007Z","response":"neither","certainty":"high","char":"G","transposition":2,"order":["shifted","swapped"],"probe_pitches":[7,4,5,3,9,10,6,9,2,10,7,9,3,6,7,9],"shifted_pitches":[7,4,5,3,9,10,6,8,2,10,7,9,3,6,7,9],"swapped_pitches":[7,4,5,3,9,10,6,2,9,10,7,9,3,6,7,9],"shift_direction":-1,"question_num":51,"has_decoy":false},{"rt":2611.4300000481308,"stimulus":"[A] option 1, [L] option 2, [G] neither","key_press":65,"name":"choice","trial_type":"html-keyboard-response","trial_index":76,"time_elapsed":223394,"internal_node_id":"0.0-76.0","subject":"S1C1609","sona":"36250","block":5,"time":"2021-09-15T15:46:37.007Z","response":"1st","certainty":"high","char":"A","transposition":1,"order":["swapped","shifted"],"probe_pitches":[4,9,6,9,4,11,6,11,9,1,11,1,9,6,4,1],"shifted_pitches":[4,9,6,9,4,11,6,11,10,1,11,1,9,6,4,1],"swapped_pitches":[4,9,6,9,4,11,6,9,11,1,11,1,9,6,4,1],"shift_direction":1,"question_num":61,"has_decoy":false},{"rt":764.4100000616163,"stimulus":"[A] option 1, [L] option 2, [G] neither","key_press":76,"name":"choice","trial_type":"html-keyboard-response","trial_index":87,"time_elapsed":247344,"internal_node_id":"0.0-87.0","subject":"S1C1609","sona":"36250","block":5,"time":"2021-09-15T15:46:37.007Z","response":"2nd","certainty":"high","char":"L","transposition":-2,"order":["shifted","swapped"],"probe_pitches":[1,6,11,4,8,1,4,6,11,8,-1,6,1,6,4,6],"shifted_pitches":[1,6,11,4,8,1,4,6,12,8,-1,6,1,6,4,6],"swapped_pitches":[1,6,11,4,8,1,4,11,6,8,-1,6,1,6,4,6],"shift_direction":1,"question_num":71,"has_decoy":false},{"rt":658.6200000019744,"stimulus":"[A] option 1, [L] option 2, [G] neither","key_press":65,"name":"choice","trial_type":"html-keyboard-response","trial_index":98,"time_elapsed":270919,"internal_node_id":"0.0-98.0","subject":"S1C1609","sona":"36250","block":5,"time":"2021-09-15T15:46:37.007Z","response":"1st","certainty":"high","char":"A","transposition":-3,"order":["shifted","swapped"],"probe_pitches":[9,11,9,2,-1,4,6,11,4,6,4,2,-1,4,-1,11],"shifted_pitches":[9,11,9,2,-1,4,6,11,3,6,4,2,-1,4,-1,11],"swapped_pitches":[9,11,9,2,-1,4,6,4,11,6,4,2,-1,4,-1,11],"shift_direction":-1,"question_num":81,"has_decoy":false},{"rt":5583.504999987781,"stimulus":"[A] option 1, [L] option 2, [G] neither","key_press":71,"name":"choice","trial_type":"html-keyboard-response","trial_index":109,"time_elapsed":298612,"internal_node_id":"0.0-109.0","subject":"S1C1609","sona":"36250","block":5,"time":"2021-09-15T15:46:37.007Z","response":"neither","certainty":"high","char":"G","transposition":2,"order":["shifted","swapped"],"probe_pitches":[11,8,1,6,11,4,1,11,-1,1,8,-1,4,1,8,6],"shifted_pitches":[11,8,1,6,11,4,1,10,-1,1,8,-1,4,1,8,6],"swapped_pitches":[11,8,1,6,11,4,1,-1,11,1,8,-1,4,1,8,6],"shift_direction":-1,"question_num":91,"has_decoy":false},{"rt":998.0650000507012,"stimulus":"[A] option 1, [L] option 2, [G] neither","key_press":76,"name":"choice","trial_type":"html-keyboard-response","trial_index":120,"time_elapsed":323040,"internal_node_id":"0.0-120.0","subject":"S1C1609","sona":"36250","block":5,"time":"2021-09-15T15:46:37.007Z","response":"2nd","certainty":"high","char":"L","transposition":-3,"order":["shifted","swapped"],"probe_pitches":[7,5,4,0,7,4,9,2,4,9,10,9,7,0,4,10],"shifted_pitches":[7,5,4,0,7,4,9,2,3,9,10,9,7,0,4,10],"swapped_pitches":[7,5,4,0,7,4,9,4,2,9,10,9,7,0,4,10],"shift_direction":-1,"question_num":101,"has_decoy":false},{"rt":2061.160000041127,"stimulus":"[A] option 1, [L] option 2, [G] neither","key_press":65,"name":"choice","trial_type":"html-keyboard-response","trial_index":131,"time_elapsed":347879,"internal_node_id":"0.0-131.0","subject":"S1C1609","sona":"36250","block":5,"time":"2021-09-15T15:46:37.007Z","response":"1st","certainty":"high","char":"A","transposition":-3,"order":["shifted","swapped"],"probe_pitches":[10,8,10,9,1,10,3,5,1,8,-1,4,2,3,1,7],"shifted_pitches":[10,8,10,9,1,10,3,6,1,8,-1,4,2,3,1,7],"swapped_pitches":[10,8,10,9,1,10,3,1,5,8,-1,4,2,3,1,7],"shift_direction":1,"question_num":111,"has_decoy":false},{"rt":311.19500007480383,"stimulus":"[A] option 1, [L] option 2, [G] neither","key_press":76,"name":"choice","trial_type":"html-keyboard-response","trial_index":142,"time_elapsed":370860,"internal_node_id":"0.0-142.0","subject":"S1C1609","sona":"36250","block":5,"time":"2021-09-15T15:46:37.007Z","response":"2nd","certainty":"high","char":"L","transposition":3,"order":["shifted","swapped"],"probe_pitches":[10,5,9,6,4,7,6,-1,8,-2,9,5,-2,2,4,5],"shifted_pitches":[10,5,9,6,4,7,6,0,8,-2,9,5,-2,2,4,5],"swapped_pitches":[10,5,9,6,4,7,6,8,-1,-2,9,5,-2,2,4,5],"shift_direction":1,"question_num":121,"has_decoy":false},{"rt":1365.1250000111759,"stimulus":"[A] option 1, [L] option 2, [G] neither","key_press":65,"name":"choice","trial_type":"html-keyboard-response","trial_index":153,"time_elapsed":395088,"internal_node_id":"0.0-153.0","subject":"S1C1609","sona":"36250","block":5,"time":"2021-09-15T15:46:37.007Z","response":"1st","certainty":"high","char":"A","transposition":1,"order":["swapped","shifted"],"probe_pitches":[9,8,2,-2,4,10,0,6,-1,8,-2,8,-2,-1,9,3],"shifted_pitches":[9,8,2,-2,4,10,0,7,-1,8,-2,8,-2,-1,9,3],"swapped_pitches":[9,8,2,-2,4,10,0,-1,6,8,-2,8,-2,-1,9,3],"shift_direction":1,"question_num":131,"has_decoy":false},{"rt":2058.2750000758097,"stimulus":"[A] option 1, [L] option 2, [G] neither","key_press":76,"name":"choice","trial_type":"html-keyboard-response","trial_index":164,"time_elapsed":423370,"internal_node_id":"0.0-164.0","subject":"S1C1609","sona":"36250","block":5,"time":"2021-09-15T15:46:37.007Z","response":"2nd","certainty":"high","char":"L","transposition":-2,"order":["swapped","shifted"],"probe_pitches":[6,11,9,6,-1,9,6,4,2,-1,9,4,-1,6,11,9],"shifted_pitches":[6,11,9,6,-1,9,6,5,2,-1,9,4,-1,6,11,9],"swapped_pitches":[6,11,9,6,-1,9,6,2,4,-1,9,4,-1,6,11,9],"shift_direction":1,"question_num":141,"has_decoy":false},{"rt":2203.010000055656,"stimulus":"[A] option 1, [L] option 2, [G] neither","key_press":71,"name":"choice","trial_type":"html-keyboard-response","trial_index":175,"time_elapsed":450753,"internal_node_id":"0.0-175.0","subject":"S1C1609","sona":"36250","block":5,"time":"2021-09-15T15:46:37.007Z","response":"neither","certainty":"high","char":"G","transposition":-1,"order":["swapped","shifted"],"probe_pitches":[-1,1,-1,6,4,6,9,6,4,1,9,11,1,6,-1,11],"shifted_pitches":[-1,1,-1,6,4,6,9,5,4,1,9,11,1,6,-1,11],"swapped_pitches":[-1,1,-1,6,4,6,9,4,6,1,9,11,1,6,-1,11],"shift_direction":-1,"question_num":151,"has_decoy":false},{"rt":3453.2800000160933,"stimulus":"[A] option 1, [L] option 2, [G] neither","key_press":71,"name":"choice","trial_type":"html-keyboard-response","trial_index":186,"time_elapsed":478499,"internal_node_id":"0.0-186.0","subject":"S1C1609","sona":"36250","block":5,"time":"2021-09-15T15:46:37.007Z","response":"neither","certainty":"high","char":"G","transposition":-2,"order":["swapped","shifted"],"probe_pitches":[2,7,5,7,1,2,6,-1,5,1,7,-1,2,6,8,6],"shifted_pitches":[2,7,5,7,1,2,6,-1,4,1,7,-1,2,6,8,6],"swapped_pitches":[2,7,5,7,1,2,6,5,-1,1,7,-1,2,6,8,6],"shift_direction":-1,"question_num":161,"has_decoy":false},{"rt":551.6649999190122,"stimulus":"[A] option 1, [L] option 2, [G] neither","key_press":65,"name":"choice","trial_type":"html-keyboard-response","trial_index":197,"time_elapsed":501838,"internal_node_id":"0.0-197.0","subject":"S1C1609","sona":"36250","block":5,"time":"2021-09-15T15:46:37.007Z","response":"1st","certainty":"high","char":"A","transposition":3,"order":["shifted","swapped"],"probe_pitches":[8,3,-1,1,8,11,6,11,8,6,11,1,11,3,8,6],"shifted_pitches":[8,3,-1,1,8,11,6,11,9,6,11,1,11,3,8,6],"swapped_pitches":[8,3,-1,1,8,11,6,8,11,6,11,1,11,3,8,6],"shift_direction":1,"question_num":171,"has_decoy":false},{"rt":189.35499992221594,"stimulus":"[A] option 1, [L] option 2, [G] neither","key_press":76,"name":"choice","trial_type":"html-keyboard-response","trial_index":208,"time_elapsed":524473,"internal_node_id":"0.0-208.0","subject":"S1C1609","sona":"36250","block":5,"time":"2021-09-15T15:46:37.007Z","response":"2nd","certainty":"high","char":"L","transposition":-3,"order":["swapped","shifted"],"probe_pitches":[7,2,7,9,4,-1,7,4,2,9,11,2,-1,2,11,9],"shifted_pitches":[7,2,7,9,4,-1,7,5,2,9,11,2,-1,2,11,9],"swapped_pitches":[7,2,7,9,4,-1,7,2,4,9,11,2,-1,2,11,9],"shift_direction":1,"question_num":181,"has_decoy":false},{"rt":1554.4050000607967,"stimulus":"[A] option 1, [L] option 2, [G] neither","key_press":71,"name":"choice","trial_type":"html-keyboard-response","trial_index":219,"time_elapsed":550339,"internal_node_id":"0.0-219.0","subject":"S1C1609","sona":"36250","block":5,"time":"2021-09-15T15:46:37.007Z","response":"neither","certainty":"high","char":"G","transposition":-1,"order":["swapped","shifted"],"probe_pitches":[6,8,11,3,1,3,8,1,6,-1,8,-1,6,8,6,11],"shifted_pitches":[6,8,11,3,1,3,8,0,6,-1,8,-1,6,8,6,11],"swapped_pitches":[6,8,11,3,1,3,8,6,1,-1,8,-1,6,8,6,11],"shift_direction":-1,"question_num":191,"has_decoy":false}]