[{"rt":532.2999999625608,"stimulus":"[A] option 1, [L] option 2, [G] neither","key_press":71,"name":"choice","trial_type":"html-keyboard-response","trial_index":10,"time_elapsed":32410,"internal_node_id":"0.0-10.0","subject":"S1C1609","sona":"36250","block":3,"time":"2021-09-15T15:28:51.890Z","response":"neither","certainty":"high","char":"G","transposition":-3,"order":["shifted","swapped"],"probe_pitches":[7,8,1,-1,3,6,5,9,-1,2,5,1,6,8,11,0],"shifted_pitches":[7,8,1,-1,3,6,5,9,-2,2,5,1,6,8,11,0],"swapped_pitches":[7,8,1,-1,3,6,5,-1,9,2,5,1,6,8,11,0],"shift_direction":-1,"question_num":1,"has_decoy":false},{"rt":278.9999999804422,"stimulus":"[A] option 1, [L] option 2, [G] neither","key_press":76,"name":"choice","trial_type":"html-keyboard-response","trial_index":21,"time_elapsed":56279,"internal_node_id":"0.0-21.0","subject":"S1C1609","sona":"36250","block":3,"time":"2021-09-15T15:28:51.890Z","response":"2nd","certainty":"high","char":"L","transposition":0,"order":["shifted","swapped"],"probe_pitches":[10,6,8,6,10,3,-2,3,8,1,-2,1,6,1,3,1],"shifted_pitches":[10,6,8,6,10,3,-2,3,9,1,-2,1,6,1,3,1],"swapped_pitches":[10,6,8,6,10,3,-2,8,3,1,-2,1,6,1,3,1],"shift_direction":1,"question_num":11,"has_decoy":false},{"rt":881.2100000213832,"stimulus":"[A] option 1, [L] option 2, [G] neither","key_press":71,"name":"choice","trial_type":"html-keyboard-response","trial_index":32,"time_elapsed":80123,"internal_node_id":"0.0-32.0","subject":"S1C1609","sona":"36250","block":3,"time":"2021-09-15T15:28:51.890Z","response":"neither","certainty":"high","char":"G","transposition":-1,"order":["shifted","swapped"],"probe_pitches":[7,1,0,2,3,-1,2,9,7,5,10,6,2,9,-1,3],"shifted_pitches":[7,1,0,2,3,-1,2,8,7,5,10,6,2,9,-1,3],"swapped_pitches":[7,1,0,2,3,-1,2,7,9,5,10,6,2,9,-1,3],"shift_direction":-1,"question_num":21,"has_decoy":false},{"rt":399.92500003427267,"stimulus":"[A] option 1, [L] option 2, [G] neither","key_press":71,"name":"choice","trial_type":"html-keyboard-response","trial_index":43,"time_elapsed":102795,"internal_node_id":"0.0-43.0","subject":"S1C1609","sona":"36250","block":3,"time":"2021-09-15T15:28:51.890Z","response":"neither","certainty":"high","char":"G","transposition":-1,"order":["swapped","shifted"],"probe_pitches":[-2,0,3,8,10,0,-2,0,3,5,-2,5,10,5,0,5],"shifted_pitches":[-2,0,3,8,10,0,-2,0,2,5,-2,5,10,5,0,5],"swapped_pitches":[-2,0,3,8,10,0,-2,3,0,5,-2,5,10,5,0,5],"shift_direction":-1,"question_num":31,"has_decoy":false},{"rt":643.1899999734014,"stimulus":"[A] option 1, [L] option 2, [G] neither","key_press":71,"name":"choice","trial_type":"html-keyboard-response","trial_index":54,"time_elapsed":125715,"internal_node_id":"0.0-54.0","subject":"S1C1609","sona":"36250","block":3,"time":"2021-09-15T15:28:51.890Z","response":"neither","certainty":"high","char":"G","transposition":1,"order":["swapped","shifted"],"probe_pitches":[1,3,1,-2,5,3,-2,5,8,3,1,3,10,1,3,-2],"shifted_pitches":[1,3,1,-2,5,3,-2,6,8,3,1,3,10,1,3,-2],"swapped_pitches":[1,3,1,-2,5,3,-2,8,5,3,1,3,10,1,3,-2],"shift_direction":1,"question_num":41,"has_decoy":false},{"rt":4105.93499999959,"stimulus":"[A] option 1, [L] option 2, [G] neither","key_press":76,"name":"choice","trial_type":"html-keyboard-response","trial_index":65,"time_elapsed":152448,"internal_node_id":"0.0-65.0","subject":"S1C1609","sona":"36250","block":3,"time":"2021-09-15T15:28:51.890Z","response":"2nd","certainty":"high","char":"L","transposition":-3,"order":["shifted","swapped"],"probe_pitches":[5,7,0,1,6,0,1,5,4,10,11,0,2,6,0,6],"shifted_pitches":[5,7,0,1,6,0,1,5,3,10,11,0,2,6,0,6],"swapped_pitches":[5,7,0,1,6,0,1,4,5,10,11,0,2,6,0,6],"shift_direction":-1,"question_num":51,"has_decoy":false},{"rt":1174.780000001192,"stimulus":"[A] option 1, [L] option 2, [G] neither","key_press":76,"name":"choice","trial_type":"html-keyboard-response","trial_index":76,"time_elapsed":176162,"internal_node_id":"0.0-76.0","subject":"S1C1609","sona":"36250","block":3,"time":"2021-09-15T15:28:51.890Z","response":"2nd","certainty":"high","char":"L","transposition":3,"order":["swapped","shifted"],"probe_pitches":[8,6,1,-2,3,1,8,-2,3,8,-2,10,6,-2,6,3],"shifted_pitches":[8,6,1,-2,3,1,8,-3,3,8,-2,10,6,-2,6,3],"swapped_pitches":[8,6,1,-2,3,1,8,3,-2,8,-2,10,6,-2,6,3],"shift_direction":-1,"question_num":61,"has_decoy":false},{"rt":1729.4499999843538,"stimulus":"[A] option 1, [L] option 2, [G] neither","key_press":65,"name":"choice","trial_type":"html-keyboard-response","trial_index":87,"time_elapsed":200658,"internal_node_id":"0.0-87.0","subject":"S1C1609","sona":"36250","block":3,"time":"2021-09-15T15:28:51.890Z","response":"1st","certainty":"high","char":"A","transposition":-1,"order":["shifted","swapped"],"probe_pitches":[2,7,2,-2,5,0,-2,0,10,7,0,10,-2,7,0,-2],"shifted_pitches":[2,7,2,-2,5,0,-2,0,9,7,0,10,-2,7,0,-2],"swapped_pitches":[2,7,2,-2,5,0,-2,10,0,7,0,10,-2,7,0,-2],"shift_direction":-1,"question_num":71,"has_decoy":false},{"rt":718.0350000271574,"stimulus":"[A] option 1, [L] option 2, [G] neither","key_press":71,"name":"choice","trial_type":"html-keyboard-response","trial_index":98,"time_elapsed":223866,"internal_node_id":"0.0-98.0","subject":"S1C1609","sona":"36250","block":3,"time":"2021-09-15T15:28:51.890Z","response":"neither","certainty":"high","char":"G","transposition":0,"order":["swapped","shifted"],"probe_pitches":[11,6,11,3,1,-1,5,6,10,-1,1,4,2,4,11,10],"shifted_pitches":[11,6,11,3,1,-1,5,7,10,-1,1,4,2,4,11,10],"swapped_pitches":[11,6,11,3,1,-1,5,10,6,-1,1,4,2,4,11,10],"shift_direction":1,"question_num":81,"has_decoy":false},{"rt":1008.8100000284612,"stimulus":"[A] option 1, [L] option 2, [G] neither","key_press":65,"name":"choice","trial_type":"html-keyboard-response","trial_index":109,"time_elapsed":249714,"internal_node_id":"0.0-109.0","subject":"S1C1609","sona":"36250","block":3,"time":"2021-09-15T15:28:51.890Z","response":"1st","certainty":"high","char":"A","transposition":2,"order":["shifted","swapped"],"probe_pitches":[3,4,2,9,5,11,1,7,9,10,11,9,0,-1,2,11],"shifted_pitches":[3,4,2,9,5,11,1,6,9,10,11,9,0,-1,2,11],"swapped_pitches":[3,4,2,9,5,11,1,9,7,10,11,9,0,-1,2,11],"shift_direction":-1,"question_num":91,"has_decoy":false},{"rt":1371.4949999703094,"stimulus":"[A] option 1, [L] option 2, [G] neither","key_press":71,"name":"choice","trial_type":"html-keyboard-response","trial_index":120,"time_elapsed":274039,"internal_node_id":"0.0-120.0","subject":"S1C1609","sona":"36250","block":3,"time":"2021-09-15T15:28:51.890Z","response":"neither","certainty":"high","char":"G","transposition":3,"order":["swapped","shifted"],"probe_pitches":[1,6,0,1,0,-1,0,2,10,-1,7,8,11,3,8,6],"shifted_pitches":[1,6,0,1,0,-1,0,2,9,-1,7,8,11,3,8,6],"swapped_pitches":[1,6,0,1,0,-1,0,10,2,-1,7,8,11,3,8,6],"shift_direction":-1,"question_num":101,"has_decoy":false},{"rt":1250.6150000263005,"stimulus":"[A] option 1, [L] option 2, [G] neither","key_press":65,"name":"choice","trial_type":"html-keyboard-response","trial_index":131,"time_elapsed":298974,"internal_node_id":"0.0-131.0","subject":"S1C1609","sona":"36250","block":3,"time":"2021-09-15T15:28:51.890Z","response":"1st","certainty":"high","char":"A","transposition":-2,"order":["swapped","shifted"],"probe_pitches":[7,10,3,4,-1,3,4,11,1,0,9,3,11,4,9,11],"shifted_pitches":[7,10,3,4,-1,3,4,11,2,0,9,3,11,4,9,11],"swapped_pitches":[7,10,3,4,-1,3,4,1,11,0,9,3,11,4,9,11],"shift_direction":1,"question_num":111,"has_decoy":false},{"rt":2708.1900000339374,"stimulus":"[A] option 1, [L] option 2, [G] neither","key_press":71,"name":"choice","trial_type":"html-keyboard-response","trial_index":142,"time_elapsed":326262,"internal_node_id":"0.0-142.0","subject":"S1C1609","sona":"36250","block":3,"time":"2021-09-15T15:28:51.890Z","response":"neither","certainty":"high","char":"G","transposition":2,"order":["shifted","swapped"],"probe_pitches":[2,5,-2,0,2,-2,2,10,5,7,-2,10,2,5,-2,5],"shifted_pitches":[2,5,-2,0,2,-2,2,11,5,7,-2,10,2,5,-2,5],"swapped_pitches":[2,5,-2,0,2,-2,2,5,10,7,-2,10,2,5,-2,5],"shift_direction":1,"question_num":121,"has_decoy":false},{"rt":1096.030000015162,"stimulus":"[A] option 1, [L] option 2, [G] neither","key_press":65,"name":"choice","trial_type":"html-keyboard-response","trial_index":153,"time_elapsed":351567,"internal_node_id":"0.0-153.0","subject":"S1C1609","sona":"36250","block":3,"time":"2021-09-15T15:28:51.890Z","response":"1st","certainty":"high","char":"A","transposition":-2,"order":["shifted","swapped"],"probe_pitches":[-2,0,5,10,3,10,0,-2,10,0,5,7,5,10,0,-2],"shifted_pitches":[-2,0,5,10,3,10,0,-1,10,0,5,7,5,10,0,-2],"swapped_pitches":[-2,0,5,10,3,10,0,10,-2,0,5,7,5,10,0,-2],"shift_direction":1,"question_num":131,"has_decoy":false},{"rt":1304.065000033006,"stimulus":"[A] option 1, [L] option 2, [G] neither","key_press":71,"name":"choice","trial_type":"html-keyboard-response","trial_index":164,"time_elapsed":376452,"internal_node_id":"0.0-164.0","subject":"S1C1609","sona":"36250","block":3,"time":"2021-09-15T15:28:51.890Z","response":"neither","certainty":"high","char":"G","transposition":-2,"order":["swapped","shifted"],"probe_pitches":[10,6,2,0,2,4,9,11,4,0,7,8,3,11,2,0],"shifted_pitches":[10,6,2,0,2,4,9,11,5,0,7,8,3,11,2,0],"swapped_pitches":[10,6,2,0,2,4,9,4,11,0,7,8,3,11,2,0],"shift_direction":1,"question_num":141,"has_decoy":false},{"rt":1164.8300000233576,"stimulus":"[A] option 1, [L] option 2, [G] neither","key_press":71,"name":"choice","trial_type":"html-keyboard-response","trial_index":175,"time_elapsed":400894,"internal_node_id":"0.0-175.0","subject":"S1C1609","sona":"36250","block":3,"time":"2021-09-15T15:28:51.890Z","response":"neither","certainty":"high","char":"G","transposition":-1,"order":["swapped","shifted"],"probe_pitches":[4,10,4,8,6,11,6,0,11,6,9,11,7,3,11,10],"shifted_pitches":[4,10,4,8,6,11,6,1,11,6,9,11,7,3,11,10],"swapped_pitches":[4,10,4,8,6,11,6,11,0,6,9,11,7,3,11,10],"shift_direction":1,"question_num":151,"has_decoy":false},{"rt":605.5899999337271,"stimulus":"[A] option 1, [L] option 2, [G] neither","key_press":65,"name":"choice","trial_type":"html-keyboard-response","trial_index":186,"time_elapsed":427594,"internal_node_id":"0.0-186.0","subject":"S1C1609","sona":"36250","block":3,"time":"2021-09-15T15:28:51.890Z","response":"1st","certainty":"high","char":"A","transposition":-3,"order":["shifted","swapped"],"probe_pitches":[5,3,5,7,5,3,0,-2,3,10,-2,5,0,10,0,3],"shifted_pitches":[5,3,5,7,5,3,0,-3,3,10,-2,5,0,10,0,3],"swapped_pitches":[5,3,5,7,5,3,0,3,-2,10,-2,5,0,10,0,3],"shift_direction":-1,"question_num":161,"has_decoy":false},{"rt":1170.905000064522,"stimulus":"[A] option 1, [L] option 2, [G] neither","key_press":71,"name":"choice","trial_type":"html-keyboard-response","trial_index":197,"time_elapsed":454069,"internal_node_id":"0.0-197.0","subject":"S1C1609","sona":"36250","block":3,"time":"2021-09-15T15:28:51.890Z","response":"neither","certainty":"high","char":"G","transposition":-2,"order":["swapped","shifted"],"probe_pitches":[10,5,3,1,-2,3,8,-2,5,8,5,3,-2,10,1,3],"shifted_pitches":[10,5,3,1,-2,3,8,-2,4,8,5,3,-2,10,1,3],"swapped_pitches":[10,5,3,1,-2,3,8,5,-2,8,5,3,-2,10,1,3],"shift_direction":-1,"question_num":171,"has_decoy":false},{"rt":989.365000044927,"stimulus":"[A] option 1, [L] option 2, [G] neither","key_press":71,"name":"choice","trial_type":"html-keyboard-response","trial_index":208,"time_elapsed":479466,"internal_node_id":"0.0-208.0","subject":"S1C1609","sona":"36250","block":3,"time":"2021-09-15T15:28:51.890Z","response":"neither","certainty":"high","char":"G","transposition":-3,"order":["swapped","shifted"],"probe_pitches":[0,5,10,3,10,0,10,-2,3,8,5,10,8,-2,10,8],"shifted_pitches":[0,5,10,3,10,0,10,-2,4,8,5,10,8,-2,10,8],"swapped_pitches":[0,5,10,3,10,0,10,3,-2,8,5,10,8,-2,10,8],"shift_direction":1,"question_num":181,"has_decoy":false},{"rt":733.3700000308454,"stimulus":"[A] option 1, [L] option 2, [G] neither","key_press":71,"name":"choice","trial_type":"html-keyboard-response","trial_index":219,"time_elapsed":504267,"internal_node_id":"0.0-219.0","subject":"S1C1609","sona":"36250","block":3,"time":"2021-09-15T15:28:51.890Z","response":"neither","certainty":"high","char":"G","transposition":1,"order":["shifted","swapped"],"probe_pitches":[-1,1,5,9,2,8,-1,3,2,10,1,5,3,8,10,5],"shifted_pitches":[-1,1,5,9,2,8,-1,4,2,10,1,5,3,8,10,5],"swapped_pitches":[-1,1,5,9,2,8,-1,2,3,10,1,5,3,8,10,5],"shift_direction":1,"question_num":191,"has_decoy":false}]