[{"rt":4221.599999904633,"stimulus":"[A] option 1, [L] option 2, [G] neither","key_press":65,"name":"choice","trial_type":"html-keyboard-response","trial_index":10,"time_elapsed":18291,"internal_node_id":"0.0-10.0","subject":"S1C0804","sona":"41436","block":6,"time":"2021-09-04T22:28:37.022Z","response":"1st","certainty":"high","char":"A","transposition":-1,"order":["swapped","shifted"],"probe_pitches":[10,7,12,7,15,12,5,7],"shifted_pitches":[10,7,12,7,16,12,5,7],"swapped_pitches":[10,7,12,15,7,12,5,7],"shift_direction":1,"question_num":1,"has_decoy":false},{"rt":1187.2000000476837,"stimulus":"[A] option 1, [L] option 2, [G] neither","key_press":71,"name":"choice","trial_type":"html-keyboard-response","trial_index":21,"time_elapsed":34387,"internal_node_id":"0.0-21.0","subject":"S1C0804","sona":"41436","block":6,"time":"2021-09-04T22:28:37.022Z","response":"neither","certainty":"high","char":"G","transposition":1,"order":["shifted","swapped"],"probe_pitches":[15,10,8,13,15,5,13,8],"shifted_pitches":[15,10,8,14,15,5,13,8],"swapped_pitches":[15,10,8,15,13,5,13,8],"shift_direction":1,"question_num":11,"has_decoy":false},{"rt":1355.2999999523163,"stimulus":"[A] option 1, [L] option 2, [G] neither","key_press":76,"name":"choice","trial_type":"html-keyboard-response","trial_index":32,"time_elapsed":52996,"internal_node_id":"0.0-32.0","subject":"S1C0804","sona":"41436","block":6,"time":"2021-09-04T22:28:37.022Z","response":"2nd","certainty":"high","char":"L","transposition":-3,"order":["swapped","shifted"],"probe_pitches":[2,4,8,5,-2,7,6,4],"shifted_pitches":[2,4,8,5,-1,7,6,4],"swapped_pitches":[2,4,8,-2,5,7,6,4],"shift_direction":1,"question_num":21,"has_decoy":false},{"rt":1272.6000001430511,"stimulus":"[A] option 1, [L] option 2, [G] neither","key_press":76,"name":"choice","trial_type":"html-keyboard-response","trial_index":43,"time_elapsed":69403,"internal_node_id":"0.0-43.0","subject":"S1C0804","sona":"41436","block":6,"time":"2021-09-04T22:28:37.022Z","response":"2nd","certainty":"high","char":"L","transposition":3,"order":["shifted","swapped"],"probe_pitches":[4,9,2,1,7,0,-3,1],"shifted_pitches":[4,9,2,1,6,0,-3,1],"swapped_pitches":[4,9,2,7,1,0,-3,1],"shift_direction":-1,"question_num":31,"has_decoy":false},{"rt":2200.600000143051,"stimulus":"[A] option 1, [L] option 2, [G] neither","key_press":71,"name":"choice","trial_type":"html-keyboard-response","trial_index":54,"time_elapsed":89131,"internal_node_id":"0.0-54.0","subject":"S1C0804","sona":"41436","block":6,"time":"2021-09-04T22:28:37.022Z","response":"neither","certainty":"high","char":"G","transposition":0,"order":["swapped","shifted"],"probe_pitches":[3,8,6,8,13,6,11,15],"shifted_pitches":[3,8,6,8,14,6,11,15],"swapped_pitches":[3,8,6,13,8,6,11,15],"shift_direction":1,"question_num":41,"has_decoy":false},{"rt":1012.2000000476837,"stimulus":"[A] option 1, [L] option 2, [G] neither","key_press":76,"name":"choice","trial_type":"html-keyboard-response","trial_index":65,"time_elapsed":105502,"internal_node_id":"0.0-65.0","subject":"S1C0804","sona":"41436","block":6,"time":"2021-09-04T22:28:37.022Z","response":"2nd","certainty":"high","char":"L","transposition":-1,"order":["swapped","shifted"],"probe_pitches":[5,3,-1,0,4,5,8,4],"shifted_pitches":[5,3,-1,1,4,5,8,4],"swapped_pitches":[5,3,-1,4,0,5,8,4],"shift_direction":1,"question_num":51,"has_decoy":false},{"rt":1402.4000000953674,"stimulus":"[A] option 1, [L] option 2, [G] neither","key_press":65,"name":"choice","trial_type":"html-keyboard-response","trial_index":76,"time_elapsed":124232,"internal_node_id":"0.0-76.0","subject":"S1C0804","sona":"41436","block":6,"time":"2021-09-04T22:28:37.022Z","response":"1st","certainty":"high","char":"A","transposition":-2,"order":["shifted","swapped"],"probe_pitches":[4,7,3,6,-3,-2,-1,-3],"shifted_pitches":[4,7,3,6,-4,-2,-1,-3],"swapped_pitches":[4,7,3,-3,6,-2,-1,-3],"shift_direction":-1,"question_num":61,"has_decoy":false},{"rt":2369.7999999523163,"stimulus":"[A] option 1, [L] option 2, [G] neither","key_press":71,"name":"choice","trial_type":"html-keyboard-response","trial_index":87,"time_elapsed":146520,"internal_node_id":"0.0-87.0","subject":"S1C0804","sona":"41436","block":6,"time":"2021-09-04T22:28:37.022Z","response":"neither","certainty":"high","char":"G","transposition":-2,"order":["swapped","shifted"],"probe_pitches":[5,2,9,3,-2,2,7,-1],"shifted_pitches":[5,2,9,4,-2,2,7,-1],"swapped_pitches":[5,2,9,-2,3,2,7,-1],"shift_direction":1,"question_num":71,"has_decoy":false},{"rt":1281.9000000953674,"stimulus":"[A] option 1, [L] option 2, [G] neither","key_press":76,"name":"choice","trial_type":"html-keyboard-response","trial_index":98,"time_elapsed":163322,"internal_node_id":"0.0-98.0","subject":"S1C0804","sona":"41436","block":6,"time":"2021-09-04T22:28:37.022Z","response":"2nd","certainty":"high","char":"L","transposition":2,"order":["swapped","shifted"],"probe_pitches":[10,15,10,5,12,15,8,3],"shifted_pitches":[10,15,10,5,11,15,8,3],"swapped_pitches":[10,15,10,12,5,15,8,3],"shift_direction":-1,"question_num":81,"has_decoy":false},{"rt":960.6000001430511,"stimulus":"[A] option 1, [L] option 2, [G] neither","key_press":76,"name":"choice","trial_type":"html-keyboard-response","trial_index":109,"time_elapsed":180071,"internal_node_id":"0.0-109.0","subject":"S1C0804","sona":"41436","block":6,"time":"2021-09-04T22:28:37.022Z","response":"2nd","certainty":"high","char":"L","transposition":-2,"order":["swapped","shifted"],"probe_pitches":[8,13,11,3,6,13,11,8],"shifted_pitches":[8,13,11,2,6,13,11,8],"swapped_pitches":[8,13,11,6,3,13,11,8],"shift_direction":-1,"question_num":91,"has_decoy":false},{"rt":1813.7999999523163,"stimulus":"[A] option 1, [L] option 2, [G] neither","key_press":71,"name":"choice","trial_type":"html-keyboard-response","trial_index":120,"time_elapsed":196584,"internal_node_id":"0.0-120.0","subject":"S1C0804","sona":"41436","block":6,"time":"2021-09-04T22:28:37.022Z","response":"neither","certainty":"high","char":"G","transposition":-3,"order":["shifted","swapped"],"probe_pitches":[1,6,9,8,-1,6,4,9],"shifted_pitches":[1,6,9,7,-1,6,4,9],"swapped_pitches":[1,6,9,-1,8,6,4,9],"shift_direction":-1,"question_num":101,"has_decoy":false},{"rt":2234.7999999523163,"stimulus":"[A] option 1, [L] option 2, [G] neither","key_press":76,"name":"choice","trial_type":"html-keyboard-response","trial_index":131,"time_elapsed":214645,"internal_node_id":"0.0-131.0","subject":"S1C0804","sona":"41436","block":6,"time":"2021-09-04T22:28:37.022Z","response":"2nd","certainty":"high","char":"L","transposition":2,"order":["swapped","shifted"],"probe_pitches":[6,1,-1,1,4,-2,9,3],"shifted_pitches":[6,1,-1,1,5,-2,9,3],"swapped_pitches":[6,1,-1,4,1,-2,9,3],"shift_direction":1,"question_num":111,"has_decoy":false},{"rt":456.2000000476837,"stimulus":"[A] option 1, [L] option 2, [G] neither","key_press":76,"name":"choice","trial_type":"html-keyboard-response","trial_index":142,"time_elapsed":230266,"internal_node_id":"0.0-142.0","subject":"S1C0804","sona":"41436","block":6,"time":"2021-09-04T22:28:37.022Z","response":"2nd","certainty":"high","char":"L","transposition":-1,"order":["shifted","swapped"],"probe_pitches":[6,10,8,13,6,3,8,6],"shifted_pitches":[6,10,8,13,5,3,8,6],"swapped_pitches":[6,10,8,6,13,3,8,6],"shift_direction":-1,"question_num":121,"has_decoy":false},{"rt":1105.2000000476837,"stimulus":"[A] option 1, [L] option 2, [G] neither","key_press":65,"name":"choice","trial_type":"html-keyboard-response","trial_index":153,"time_elapsed":246246,"internal_node_id":"0.0-153.0","subject":"S1C0804","sona":"41436","block":6,"time":"2021-09-04T22:28:37.022Z","response":"1st","certainty":"high","char":"A","transposition":-3,"order":["swapped","shifted"],"probe_pitches":[10,8,15,12,5,8,12,10],"shifted_pitches":[10,8,15,12,4,8,12,10],"swapped_pitches":[10,8,15,5,12,8,12,10],"shift_direction":-1,"question_num":131,"has_decoy":false},{"rt":1390.7000000476837,"stimulus":"[A] option 1, [L] option 2, [G] neither","key_press":76,"name":"choice","trial_type":"html-keyboard-response","trial_index":164,"time_elapsed":262561,"internal_node_id":"0.0-164.0","subject":"S1C0804","sona":"41436","block":6,"time":"2021-09-04T22:28:37.022Z","response":"2nd","certainty":"high","char":"L","transposition":-3,"order":["shifted","swapped"],"probe_pitches":[8,13,10,13,8,15,10,6],"shifted_pitches":[8,13,10,14,8,15,10,6],"swapped_pitches":[8,13,10,8,13,15,10,6],"shift_direction":1,"question_num":141,"has_decoy":false},{"rt":742.5999999046326,"stimulus":"[A] option 1, [L] option 2, [G] neither","key_press":76,"name":"choice","trial_type":"html-keyboard-response","trial_index":175,"time_elapsed":278833,"internal_node_id":"0.0-175.0","subject":"S1C0804","sona":"41436","block":6,"time":"2021-09-04T22:28:37.022Z","response":"2nd","certainty":"high","char":"L","transposition":3,"order":["shifted","swapped"],"probe_pitches":[10,12,5,12,15,10,15,7],"shifted_pitches":[10,12,5,13,15,10,15,7],"swapped_pitches":[10,12,5,15,12,10,15,7],"shift_direction":1,"question_num":151,"has_decoy":false},{"rt":1065.2000000476837,"stimulus":"[A] option 1, [L] option 2, [G] neither","key_press":71,"name":"choice","trial_type":"html-keyboard-response","trial_index":186,"time_elapsed":296986,"internal_node_id":"0.0-186.0","subject":"S1C0804","sona":"41436","block":6,"time":"2021-09-04T22:28:37.022Z","response":"neither","certainty":"high","char":"G","transposition":-1,"order":["shifted","swapped"],"probe_pitches":[9,4,-3,1,3,0,5,7],"shifted_pitches":[9,4,-3,2,3,0,5,7],"swapped_pitches":[9,4,-3,3,1,0,5,7],"shift_direction":1,"question_num":161,"has_decoy":false},{"rt":820.2000000476837,"stimulus":"[A] option 1, [L] option 2, [G] neither","key_press":71,"name":"choice","trial_type":"html-keyboard-response","trial_index":197,"time_elapsed":313160,"internal_node_id":"0.0-197.0","subject":"S1C0804","sona":"41436","block":6,"time":"2021-09-04T22:28:37.022Z","response":"neither","certainty":"high","char":"G","transposition":-2,"order":["shifted","swapped"],"probe_pitches":[8,10,5,10,3,8,10,13],"shifted_pitches":[8,10,5,9,3,8,10,13],"swapped_pitches":[8,10,5,3,10,8,10,13],"shift_direction":-1,"question_num":171,"has_decoy":false},{"rt":1279.3000001907349,"stimulus":"[A] option 1, [L] option 2, [G] neither","key_press":71,"name":"choice","trial_type":"html-keyboard-response","trial_index":208,"time_elapsed":328869,"internal_node_id":"0.0-208.0","subject":"S1C0804","sona":"41436","block":6,"time":"2021-09-04T22:28:37.022Z","response":"neither","certainty":"high","char":"G","transposition":1,"order":["shifted","swapped"],"probe_pitches":[1,3,-3,1,-1,7,4,-2],"shifted_pitches":[1,3,-3,0,-1,7,4,-2],"swapped_pitches":[1,3,-3,-1,1,7,4,-2],"shift_direction":-1,"question_num":181,"has_decoy":false},{"rt":1124.8999998569489,"stimulus":"[A] option 1, [L] option 2, [G] neither","key_press":71,"name":"choice","trial_type":"html-keyboard-response","trial_index":219,"time_elapsed":345345,"internal_node_id":"0.0-219.0","subject":"S1C0804","sona":"41436","block":6,"time":"2021-09-04T22:28:37.022Z","response":"neither","certainty":"high","char":"G","transposition":0,"order":["swapped","shifted"],"probe_pitches":[4,1,6,9,4,-1,1,-3],"shifted_pitches":[4,1,6,9,3,-1,1,-3],"swapped_pitches":[4,1,6,4,9,-1,1,-3],"shift_direction":-1,"question_num":191,"has_decoy":false}]