[{"rt":1050,"stimulus":"[A] option 1, [L] option 2, [G] neither","key_press":71,"name":"choice","trial_type":"html-keyboard-response","trial_index":10,"time_elapsed":16049,"internal_node_id":"0.0-10.0","subject":"S1C0804","sona":"41436","block":3,"time":"2021-09-04T22:10:46.597Z","response":"neither","certainty":"high","char":"G","transposition":-1,"order":["shifted","swapped"],"probe_pitches":[10,6,10,4,5,0,7,8],"shifted_pitches":[10,6,10,3,5,0,7,8],"swapped_pitches":[10,6,10,5,4,0,7,8],"shift_direction":-1,"question_num":1,"has_decoy":false},{"rt":1049.9000000953674,"stimulus":"[A] option 1, [L] option 2, [G] neither","key_press":76,"name":"choice","trial_type":"html-keyboard-response","trial_index":21,"time_elapsed":32049,"internal_node_id":"0.0-21.0","subject":"S1C0804","sona":"41436","block":3,"time":"2021-09-04T22:10:46.597Z","response":"2nd","certainty":"high","char":"L","transposition":-2,"order":["shifted","swapped"],"probe_pitches":[4,7,2,9,4,2,-1,4],"shifted_pitches":[4,7,2,9,3,2,-1,4],"swapped_pitches":[4,7,2,4,9,2,-1,4],"shift_direction":-1,"question_num":11,"has_decoy":false},{"rt":1218.9000000953674,"stimulus":"[A] option 1, [L] option 2, [G] neither","key_press":76,"name":"choice","trial_type":"html-keyboard-response","trial_index":32,"time_elapsed":48748,"internal_node_id":"0.0-32.0","subject":"S1C0804","sona":"41436","block":3,"time":"2021-09-04T22:10:46.597Z","response":"2nd","certainty":"high","char":"L","transposition":-2,"order":["swapped","shifted"],"probe_pitches":[9,6,4,-3,-1,6,-3,1],"shifted_pitches":[9,6,4,-2,-1,6,-3,1],"swapped_pitches":[9,6,4,-1,-3,6,-3,1],"shift_direction":1,"question_num":21,"has_decoy":false},{"rt":2908,"stimulus":"[A] option 1, [L] option 2, [G] neither","key_press":65,"name":"choice","trial_type":"html-keyboard-response","trial_index":43,"time_elapsed":66657,"internal_node_id":"0.0-43.0","subject":"S1C0804","sona":"41436","block":3,"time":"2021-09-04T22:10:46.597Z","response":"1st","certainty":"high","char":"A","transposition":0,"order":["shifted","swapped"],"probe_pitches":[-1,4,-1,-3,1,6,-3,4],"shifted_pitches":[-1,4,-1,-4,1,6,-3,4],"swapped_pitches":[-1,4,-1,1,-3,6,-3,4],"shift_direction":-1,"question_num":31,"has_decoy":false},{"rt":1154.5,"stimulus":"[A] option 1, [L] option 2, [G] neither","key_press":76,"name":"choice","trial_type":"html-keyboard-response","trial_index":54,"time_elapsed":82923,"internal_node_id":"0.0-54.0","subject":"S1C0804","sona":"41436","block":3,"time":"2021-09-04T22:10:46.597Z","response":"2nd","certainty":"high","char":"L","transposition":3,"order":["shifted","swapped"],"probe_pitches":[7,4,1,7,-1,6,8,10],"shifted_pitches":[7,4,1,7,0,6,8,10],"swapped_pitches":[7,4,1,-1,7,6,8,10],"shift_direction":1,"question_num":41,"has_decoy":false},{"rt":1022.5,"stimulus":"[A] option 1, [L] option 2, [G] neither","key_press":76,"name":"choice","trial_type":"html-keyboard-response","trial_index":65,"time_elapsed":99281,"internal_node_id":"0.0-65.0","subject":"S1C0804","sona":"41436","block":3,"time":"2021-09-04T22:10:46.597Z","response":"2nd","certainty":"high","char":"L","transposition":-2,"order":["swapped","shifted"],"probe_pitches":[4,10,9,7,2,6,2,0],"shifted_pitches":[4,10,9,8,2,6,2,0],"swapped_pitches":[4,10,9,2,7,6,2,0],"shift_direction":1,"question_num":51,"has_decoy":false},{"rt":1139.5,"stimulus":"[A] option 1, [L] option 2, [G] neither","key_press":76,"name":"choice","trial_type":"html-keyboard-response","trial_index":76,"time_elapsed":115978,"internal_node_id":"0.0-76.0","subject":"S1C0804","sona":"41436","block":3,"time":"2021-09-04T22:10:46.597Z","response":"2nd","certainty":"high","char":"L","transposition":-3,"order":["shifted","swapped"],"probe_pitches":[0,-1,2,0,8,7,0,-1],"shifted_pitches":[0,-1,2,1,8,7,0,-1],"swapped_pitches":[0,-1,2,8,0,7,0,-1],"shift_direction":1,"question_num":61,"has_decoy":false},{"rt":1481.5,"stimulus":"[A] option 1, [L] option 2, [G] neither","key_press":71,"name":"choice","trial_type":"html-keyboard-response","trial_index":87,"time_elapsed":132750,"internal_node_id":"0.0-87.0","subject":"S1C0804","sona":"41436","block":3,"time":"2021-09-04T22:10:46.597Z","response":"neither","certainty":"high","char":"G","transposition":2,"order":["shifted","swapped"],"probe_pitches":[2,7,2,4,0,-3,0,9],"shifted_pitches":[2,7,2,4,1,-3,0,9],"swapped_pitches":[2,7,2,0,4,-3,0,9],"shift_direction":1,"question_num":71,"has_decoy":false},{"rt":4639.399999856949,"stimulus":"[A] option 1, [L] option 2, [G] neither","key_press":65,"name":"choice","trial_type":"html-keyboard-response","trial_index":98,"time_elapsed":152238,"internal_node_id":"0.0-98.0","subject":"S1C0804","sona":"41436","block":3,"time":"2021-09-04T22:10:46.597Z","response":"1st","certainty":"high","char":"A","transposition":-3,"order":["swapped","shifted"],"probe_pitches":[7,9,7,9,4,-1,2,-3],"shifted_pitches":[7,9,7,10,4,-1,2,-3],"swapped_pitches":[7,9,7,4,9,-1,2,-3],"shift_direction":1,"question_num":81,"has_decoy":false},{"rt":1150.0999999046326,"stimulus":"[A] option 1, [L] option 2, [G] neither","key_press":76,"name":"choice","trial_type":"html-keyboard-response","trial_index":109,"time_elapsed":168189,"internal_node_id":"0.0-109.0","subject":"S1C0804","sona":"41436","block":3,"time":"2021-09-04T22:10:46.597Z","response":"2nd","certainty":"high","char":"L","transposition":-3,"order":["shifted","swapped"],"probe_pitches":[-3,-1,6,-1,4,-3,4,2],"shifted_pitches":[-3,-1,6,-1,3,-3,4,2],"swapped_pitches":[-3,-1,6,4,-1,-3,4,2],"shift_direction":-1,"question_num":91,"has_decoy":false},{"rt":1831.3999998569489,"stimulus":"[A] option 1, [L] option 2, [G] neither","key_press":65,"name":"choice","trial_type":"html-keyboard-response","trial_index":120,"time_elapsed":184380,"internal_node_id":"0.0-120.0","subject":"S1C0804","sona":"41436","block":3,"time":"2021-09-04T22:10:46.597Z","response":"1st","certainty":"high","char":"A","transposition":0,"order":["swapped","shifted"],"probe_pitches":[-1,2,-2,0,6,2,8,-1],"shifted_pitches":[-1,2,-2,0,7,2,8,-1],"swapped_pitches":[-1,2,-2,6,0,2,8,-1],"shift_direction":1,"question_num":101,"has_decoy":false},{"rt":976.5999999046326,"stimulus":"[A] option 1, [L] option 2, [G] neither","key_press":65,"name":"choice","trial_type":"html-keyboard-response","trial_index":131,"time_elapsed":199725,"internal_node_id":"0.0-131.0","subject":"S1C0804","sona":"41436","block":3,"time":"2021-09-04T22:10:46.597Z","response":"1st","certainty":"high","char":"A","transposition":-3,"order":["shifted","swapped"],"probe_pitches":[7,1,6,7,10,4,2,4],"shifted_pitches":[7,1,6,7,9,4,2,4],"swapped_pitches":[7,1,6,10,7,4,2,4],"shift_direction":-1,"question_num":111,"has_decoy":false},{"rt":855.5,"stimulus":"[A] option 1, [L] option 2, [G] neither","key_press":76,"name":"choice","trial_type":"html-keyboard-response","trial_index":142,"time_elapsed":215424,"internal_node_id":"0.0-142.0","subject":"S1C0804","sona":"41436","block":3,"time":"2021-09-04T22:10:46.597Z","response":"2nd","certainty":"high","char":"L","transposition":-1,"order":["swapped","shifted"],"probe_pitches":[5,0,3,8,7,-2,5,10],"shifted_pitches":[5,0,3,8,6,-2,5,10],"swapped_pitches":[5,0,3,7,8,-2,5,10],"shift_direction":-1,"question_num":121,"has_decoy":false},{"rt":1329,"stimulus":"[A] option 1, [L] option 2, [G] neither","key_press":76,"name":"choice","trial_type":"html-keyboard-response","trial_index":153,"time_elapsed":231618,"internal_node_id":"0.0-153.0","subject":"S1C0804","sona":"41436","block":3,"time":"2021-09-04T22:10:46.597Z","response":"2nd","certainty":"high","char":"L","transposition":-1,"order":["swapped","shifted"],"probe_pitches":[9,4,-3,-1,6,-3,6,2],"shifted_pitches":[9,4,-3,-2,6,-3,6,2],"swapped_pitches":[9,4,-3,6,-1,-3,6,2],"shift_direction":-1,"question_num":131,"has_decoy":false},{"rt":7777.5,"stimulus":"[A] option 1, [L] option 2, [G] neither","key_press":76,"name":"choice","trial_type":"html-keyboard-response","trial_index":164,"time_elapsed":253886,"internal_node_id":"0.0-164.0","subject":"S1C0804","sona":"41436","block":3,"time":"2021-09-04T22:10:46.597Z","response":"2nd","certainty":"high","char":"L","transposition":3,"order":["swapped","shifted"],"probe_pitches":[2,7,2,0,7,9,7,5],"shifted_pitches":[2,7,2,0,8,9,7,5],"swapped_pitches":[2,7,2,7,0,9,7,5],"shift_direction":1,"question_num":141,"has_decoy":false},{"rt":1408.7999999523163,"stimulus":"[A] option 1, [L] option 2, [G] neither","key_press":65,"name":"choice","trial_type":"html-keyboard-response","trial_index":175,"time_elapsed":270157,"internal_node_id":"0.0-175.0","subject":"S1C0804","sona":"41436","block":3,"time":"2021-09-04T22:10:46.597Z","response":"1st","certainty":"high","char":"A","transposition":-2,"order":["shifted","swapped"],"probe_pitches":[5,-1,0,6,3,-2,-1,7],"shifted_pitches":[5,-1,0,6,4,-2,-1,7],"swapped_pitches":[5,-1,0,3,6,-2,-1,7],"shift_direction":1,"question_num":151,"has_decoy":false},{"rt":1734.7999999523163,"stimulus":"[A] option 1, [L] option 2, [G] neither","key_press":71,"name":"choice","trial_type":"html-keyboard-response","trial_index":186,"time_elapsed":287614,"internal_node_id":"0.0-186.0","subject":"S1C0804","sona":"41436","block":3,"time":"2021-09-04T22:10:46.597Z","response":"neither","certainty":"high","char":"G","transposition":-1,"order":["shifted","swapped"],"probe_pitches":[7,2,7,9,5,2,9,0],"shifted_pitches":[7,2,7,9,6,2,9,0],"swapped_pitches":[7,2,7,5,9,2,9,0],"shift_direction":1,"question_num":161,"has_decoy":false},{"rt":1218.1000001430511,"stimulus":"[A] option 1, [L] option 2, [G] neither","key_press":71,"name":"choice","trial_type":"html-keyboard-response","trial_index":197,"time_elapsed":303537,"internal_node_id":"0.0-197.0","subject":"S1C0804","sona":"41436","block":3,"time":"2021-09-04T22:10:46.597Z","response":"neither","certainty":"high","char":"G","transposition":1,"order":["swapped","shifted"],"probe_pitches":[9,6,0,3,1,8,4,7],"shifted_pitches":[9,6,0,2,1,8,4,7],"swapped_pitches":[9,6,0,1,3,8,4,7],"shift_direction":-1,"question_num":171,"has_decoy":false},{"rt":1166.8000001907349,"stimulus":"[A] option 1, [L] option 2, [G] neither","key_press":65,"name":"choice","trial_type":"html-keyboard-response","trial_index":208,"time_elapsed":319326,"internal_node_id":"0.0-208.0","subject":"S1C0804","sona":"41436","block":3,"time":"2021-09-04T22:10:46.597Z","response":"1st","certainty":"high","char":"A","transposition":2,"order":["swapped","shifted"],"probe_pitches":[3,2,0,6,3,4,-2,-1],"shifted_pitches":[3,2,0,5,3,4,-2,-1],"swapped_pitches":[3,2,0,3,6,4,-2,-1],"shift_direction":-1,"question_num":181,"has_decoy":false},{"rt":1396.2000000476837,"stimulus":"[A] option 1, [L] option 2, [G] neither","key_press":71,"name":"choice","trial_type":"html-keyboard-response","trial_index":219,"time_elapsed":335695,"internal_node_id":"0.0-219.0","subject":"S1C0804","sona":"41436","block":3,"time":"2021-09-04T22:10:46.597Z","response":"neither","certainty":"high","char":"G","transposition":1,"order":["swapped","shifted"],"probe_pitches":[2,-3,4,7,2,9,0,9],"shifted_pitches":[2,-3,4,6,2,9,0,9],"swapped_pitches":[2,-3,4,2,7,9,0,9],"shift_direction":-1,"question_num":191,"has_decoy":false}]