[{"rt":5708.5,"stimulus":"[A] option 1, [L] option 2, [G] neither","key_press":76,"name":"choice","trial_type":"html-keyboard-response","trial_index":15,"time_elapsed":73119,"internal_node_id":"0.0-15.0","response":"2nd","certainty":"high","char":"L","transposition":-3,"order":["swapped","shifted"],"probe_pitches":[12,7,9,5,2,9,7,14],"shifted_pitches":[12,7,9,6,2,9,7,14],"swapped_pitches":[12,7,9,2,5,9,7,14],"shift_direction":1,"question_num":1,"has_decoy":false,"subject":"S1C0804","sona":"41436","block":1,"time":"2021-09-04T21:59:16.320Z"},{"rt":1699.5999999046326,"stimulus":"[A] option 1, [L] option 2, [G] neither","key_press":76,"name":"choice","trial_type":"html-keyboard-response","trial_index":26,"time_elapsed":92230,"internal_node_id":"0.0-26.0","response":"2nd","certainty":"high","char":"L","transposition":-2,"order":["swapped","shifted"],"probe_pitches":[11,14,9,4,6,9,6,9],"shifted_pitches":[11,14,9,3,6,9,6,9],"swapped_pitches":[11,14,9,6,4,9,6,9],"shift_direction":-1,"question_num":11,"has_decoy":false,"subject":"S1C0804","sona":"41436","block":1,"time":"2021-09-04T21:59:16.320Z"},{"rt":11268.799999952316,"stimulus":"[A] option 1, [L] option 2, [G] neither","key_press":76,"name":"choice","trial_type":"html-keyboard-response","trial_index":37,"time_elapsed":119860,"internal_node_id":"0.0-37.0","response":"2nd","certainty":"high","char":"L","transposition":-3,"order":["shifted","swapped"],"probe_pitches":[2,5,12,14,5,2,10,7],"shifted_pitches":[2,5,12,14,6,2,10,7],"swapped_pitches":[2,5,12,5,14,2,10,7],"shift_direction":1,"question_num":21,"has_decoy":false,"subject":"S1C0804","sona":"41436","block":1,"time":"2021-09-04T21:59:16.320Z"},{"rt":1943.8000001907349,"stimulus":"[A] option 1, [L] option 2, [G] neither","key_press":65,"name":"choice","trial_type":"html-keyboard-response","trial_index":48,"time_elapsed":137995,"internal_node_id":"0.0-48.0","response":"1st","certainty":"high","char":"A","transposition":3,"order":["swapped","shifted"],"probe_pitches":[2,5,7,2,9,7,12,7],"shifted_pitches":[2,5,7,1,9,7,12,7],"swapped_pitches":[2,5,7,9,2,7,12,7],"shift_direction":-1,"question_num":31,"has_decoy":false,"subject":"S1C0804","sona":"41436","block":1,"time":"2021-09-04T21:59:16.320Z"},{"rt":1331.9000000953674,"stimulus":"[A] option 1, [L] option 2, [G] neither","key_press":76,"name":"choice","trial_type":"html-keyboard-response","trial_index":59,"time_elapsed":157763,"internal_node_id":"0.0-59.0","response":"2nd","certainty":"high","char":"L","transposition":1,"order":["shifted","swapped"],"probe_pitches":[4,7,2,4,12,14,9,7],"shifted_pitches":[4,7,2,5,12,14,9,7],"swapped_pitches":[4,7,2,12,4,14,9,7],"shift_direction":1,"question_num":41,"has_decoy":false,"subject":"S1C0804","sona":"41436","block":1,"time":"2021-09-04T21:59:16.320Z"},{"rt":2958.4000000953674,"stimulus":"[A] option 1, [L] option 2, [G] neither","key_press":76,"name":"choice","trial_type":"html-keyboard-response","trial_index":70,"time_elapsed":177400,"internal_node_id":"0.0-70.0","response":"2nd","certainty":"high","char":"L","transposition":3,"order":["shifted","swapped"],"probe_pitches":[5,10,5,10,6,15,6,10],"shifted_pitches":[5,10,5,10,7,15,6,10],"swapped_pitches":[5,10,5,6,10,15,6,10],"shift_direction":1,"question_num":51,"has_decoy":false,"subject":"S1C0804","sona":"41436","block":1,"time":"2021-09-04T21:59:16.320Z"},{"rt":1405.6000001430511,"stimulus":"[A] option 1, [L] option 2, [G] neither","key_press":76,"name":"choice","trial_type":"html-keyboard-response","trial_index":81,"time_elapsed":195117,"internal_node_id":"0.0-81.0","response":"2nd","certainty":"high","char":"L","transposition":-1,"order":["shifted","swapped"],"probe_pitches":[4,9,8,12,4,13,4,9],"shifted_pitches":[4,9,8,11,4,13,4,9],"swapped_pitches":[4,9,8,4,12,13,4,9],"shift_direction":-1,"question_num":61,"has_decoy":false,"subject":"S1C0804","sona":"41436","block":1,"time":"2021-09-04T21:59:16.320Z"},{"rt":1022.8000001907349,"stimulus":"[A] option 1, [L] option 2, [G] neither","key_press":76,"name":"choice","trial_type":"html-keyboard-response","trial_index":92,"time_elapsed":211684,"internal_node_id":"0.0-92.0","response":"2nd","certainty":"high","char":"L","transposition":2,"order":["swapped","shifted"],"probe_pitches":[11,9,3,6,11,8,5,14],"shifted_pitches":[11,9,3,6,12,8,5,14],"swapped_pitches":[11,9,3,11,6,8,5,14],"shift_direction":1,"question_num":71,"has_decoy":false,"subject":"S1C0804","sona":"41436","block":1,"time":"2021-09-04T21:59:16.320Z"},{"rt":1489.2000000476837,"stimulus":"[A] option 1, [L] option 2, [G] neither","key_press":76,"name":"choice","trial_type":"html-keyboard-response","trial_index":103,"time_elapsed":230100,"internal_node_id":"0.0-103.0","response":"2nd","certainty":"high","char":"L","transposition":-2,"order":["shifted","swapped"],"probe_pitches":[4,9,14,9,4,14,11,6],"shifted_pitches":[4,9,14,9,5,14,11,6],"swapped_pitches":[4,9,14,4,9,14,11,6],"shift_direction":1,"question_num":81,"has_decoy":false,"subject":"S1C0804","sona":"41436","block":1,"time":"2021-09-04T21:59:16.320Z"},{"rt":1131.5999999046326,"stimulus":"[A] option 1, [L] option 2, [G] neither","key_press":76,"name":"choice","trial_type":"html-keyboard-response","trial_index":114,"time_elapsed":246692,"internal_node_id":"0.0-114.0","response":"2nd","certainty":"high","char":"L","transposition":0,"order":["shifted","swapped"],"probe_pitches":[9,7,4,11,7,9,14,11],"shifted_pitches":[9,7,4,11,6,9,14,11],"swapped_pitches":[9,7,4,7,11,9,14,11],"shift_direction":-1,"question_num":91,"has_decoy":false,"subject":"S1C0804","sona":"41436","block":1,"time":"2021-09-04T21:59:16.320Z"},{"rt":1381.7999999523163,"stimulus":"[A] option 1, [L] option 2, [G] neither","key_press":71,"name":"choice","trial_type":"html-keyboard-response","trial_index":125,"time_elapsed":263643,"internal_node_id":"0.0-125.0","response":"neither","certainty":"high","char":"G","transposition":1,"order":["swapped","shifted"],"probe_pitches":[12,6,12,15,13,12,15,4],"shifted_pitches":[12,6,12,15,14,12,15,4],"swapped_pitches":[12,6,12,13,15,12,15,4],"shift_direction":1,"question_num":101,"has_decoy":false,"subject":"S1C0804","sona":"41436","block":1,"time":"2021-09-04T21:59:16.320Z"},{"rt":2654.5,"stimulus":"[A] option 1, [L] option 2, [G] neither","key_press":71,"name":"choice","trial_type":"html-keyboard-response","trial_index":136,"time_elapsed":281636,"internal_node_id":"0.0-136.0","response":"neither","certainty":"high","char":"G","transposition":-1,"order":["swapped","shifted"],"probe_pitches":[8,3,7,10,12,8,7,12],"shifted_pitches":[8,3,7,9,12,8,7,12],"swapped_pitches":[8,3,7,12,10,8,7,12],"shift_direction":-1,"question_num":111,"has_decoy":false,"subject":"S1C0804","sona":"41436","block":1,"time":"2021-09-04T21:59:16.320Z"},{"rt":1153.4000000953674,"stimulus":"[A] option 1, [L] option 2, [G] neither","key_press":76,"name":"choice","trial_type":"html-keyboard-response","trial_index":147,"time_elapsed":297734,"internal_node_id":"0.0-147.0","response":"2nd","certainty":"high","char":"L","transposition":2,"order":["swapped","shifted"],"probe_pitches":[10,5,7,10,2,5,12,2],"shifted_pitches":[10,5,7,9,2,5,12,2],"swapped_pitches":[10,5,7,2,10,5,12,2],"shift_direction":-1,"question_num":121,"has_decoy":false,"subject":"S1C0804","sona":"41436","block":1,"time":"2021-09-04T21:59:16.320Z"},{"rt":941.7000000476837,"stimulus":"[A] option 1, [L] option 2, [G] neither","key_press":76,"name":"choice","trial_type":"html-keyboard-response","trial_index":158,"time_elapsed":315083,"internal_node_id":"0.0-158.0","response":"2nd","certainty":"high","char":"L","transposition":-1,"order":["shifted","swapped"],"probe_pitches":[12,14,9,4,12,7,2,14],"shifted_pitches":[12,14,9,4,11,7,2,14],"swapped_pitches":[12,14,9,12,4,7,2,14],"shift_direction":-1,"question_num":131,"has_decoy":false,"subject":"S1C0804","sona":"41436","block":1,"time":"2021-09-04T21:59:16.320Z"},{"rt":1040.9000000953674,"stimulus":"[A] option 1, [L] option 2, [G] neither","key_press":76,"name":"choice","trial_type":"html-keyboard-response","trial_index":169,"time_elapsed":331172,"internal_node_id":"0.0-169.0","response":"2nd","certainty":"high","char":"L","transposition":-3,"order":["swapped","shifted"],"probe_pitches":[9,12,13,10,6,9,7,4],"shifted_pitches":[9,12,13,10,5,9,7,4],"swapped_pitches":[9,12,13,6,10,9,7,4],"shift_direction":-1,"question_num":141,"has_decoy":false,"subject":"S1C0804","sona":"41436","block":1,"time":"2021-09-04T21:59:16.320Z"},{"rt":1468.2000000476837,"stimulus":"[A] option 1, [L] option 2, [G] neither","key_press":65,"name":"choice","trial_type":"html-keyboard-response","trial_index":180,"time_elapsed":347689,"internal_node_id":"0.0-180.0","response":"1st","certainty":"high","char":"A","transposition":-2,"order":["swapped","shifted"],"probe_pitches":[8,9,4,5,12,4,9,13],"shifted_pitches":[8,9,4,6,12,4,9,13],"swapped_pitches":[8,9,4,12,5,4,9,13],"shift_direction":1,"question_num":151,"has_decoy":false,"subject":"S1C0804","sona":"41436","block":1,"time":"2021-09-04T21:59:16.320Z"},{"rt":2676,"stimulus":"[A] option 1, [L] option 2, [G] neither","key_press":71,"name":"choice","trial_type":"html-keyboard-response","trial_index":191,"time_elapsed":365297,"internal_node_id":"0.0-191.0","response":"neither","certainty":"high","char":"G","transposition":0,"order":["shifted","swapped"],"probe_pitches":[14,13,10,9,5,12,14,13],"shifted_pitches":[14,13,10,8,5,12,14,13],"swapped_pitches":[14,13,10,5,9,12,14,13],"shift_direction":-1,"question_num":161,"has_decoy":false,"subject":"S1C0804","sona":"41436","block":1,"time":"2021-09-04T21:59:16.320Z"},{"rt":3478.0999999046326,"stimulus":"[A] option 1, [L] option 2, [G] neither","key_press":76,"name":"choice","trial_type":"html-keyboard-response","trial_index":202,"time_elapsed":383839,"internal_node_id":"0.0-202.0","response":"2nd","certainty":"high","char":"L","transposition":-1,"order":["swapped","shifted"],"probe_pitches":[11,14,11,7,14,11,4,9],"shifted_pitches":[11,14,11,7,15,11,4,9],"swapped_pitches":[11,14,11,14,7,11,4,9],"shift_direction":1,"question_num":171,"has_decoy":false,"subject":"S1C0804","sona":"41436","block":1,"time":"2021-09-04T21:59:16.320Z"},{"rt":933.5999999046326,"stimulus":"[A] option 1, [L] option 2, [G] neither","key_press":76,"name":"choice","trial_type":"html-keyboard-response","trial_index":213,"time_elapsed":399434,"internal_node_id":"0.0-213.0","response":"2nd","certainty":"high","char":"L","transposition":-2,"order":["shifted","swapped"],"probe_pitches":[15,11,4,9,14,5,9,7],"shifted_pitches":[15,11,4,9,13,5,9,7],"swapped_pitches":[15,11,4,14,9,5,9,7],"shift_direction":-1,"question_num":181,"has_decoy":false,"subject":"S1C0804","sona":"41436","block":1,"time":"2021-09-04T21:59:16.320Z"},{"rt":1051.7999999523163,"stimulus":"[A] option 1, [L] option 2, [G] neither","key_press":71,"name":"choice","trial_type":"html-keyboard-response","trial_index":224,"time_elapsed":415492,"internal_node_id":"0.0-224.0","response":"neither","certainty":"high","char":"G","transposition":-3,"order":["shifted","swapped"],"probe_pitches":[14,8,11,9,12,5,12,15],"shifted_pitches":[14,8,11,10,12,5,12,15],"swapped_pitches":[14,8,11,12,9,5,12,15],"shift_direction":1,"question_num":191,"has_decoy":false,"subject":"S1C0804","sona":"41436","block":1,"time":"2021-09-04T21:59:16.320Z"}]