[{"rt":1920.7000000476837,"stimulus":"[A] option 1, [L] option 2, [G] neither","key_press":76,"name":"choice","trial_type":"html-keyboard-response","trial_index":10,"time_elapsed":27044,"internal_node_id":"0.0-10.0","subject":"S1C0804","sona":"41436","block":4,"time":"2021-09-04T22:16:51.716Z","response":"2nd","certainty":"high","char":"L","transposition":1,"order":["swapped","shifted"],"probe_pitches":[3,-1,0,8,9,-1,2,-3],"shifted_pitches":[3,-1,0,7,9,-1,2,-3],"swapped_pitches":[3,-1,0,9,8,-1,2,-3],"shift_direction":-1,"question_num":1,"has_decoy":false},{"rt":1652.6000001430511,"stimulus":"[A] option 1, [L] option 2, [G] neither","key_press":76,"name":"choice","trial_type":"html-keyboard-response","trial_index":21,"time_elapsed":43555,"internal_node_id":"0.0-21.0","subject":"S1C0804","sona":"41436","block":4,"time":"2021-09-04T22:16:51.716Z","response":"2nd","certainty":"high","char":"L","transposition":1,"order":["shifted","swapped"],"probe_pitches":[-3,2,7,2,-1,9,4,2],"shifted_pitches":[-3,2,7,2,0,9,4,2],"swapped_pitches":[-3,2,7,-1,2,9,4,2],"shift_direction":1,"question_num":11,"has_decoy":false},{"rt":1088.9000000953674,"stimulus":"[A] option 1, [L] option 2, [G] neither","key_press":76,"name":"choice","trial_type":"html-keyboard-response","trial_index":32,"time_elapsed":60451,"internal_node_id":"0.0-32.0","subject":"S1C0804","sona":"41436","block":4,"time":"2021-09-04T22:16:51.716Z","response":"2nd","certainty":"high","char":"L","transposition":0,"order":["shifted","swapped"],"probe_pitches":[3,7,8,1,-1,4,-3,1],"shifted_pitches":[3,7,8,2,-1,4,-3,1],"swapped_pitches":[3,7,8,-1,1,4,-3,1],"shift_direction":1,"question_num":21,"has_decoy":false},{"rt":1521.6999998092651,"stimulus":"[A] option 1, [L] option 2, [G] neither","key_press":76,"name":"choice","trial_type":"html-keyboard-response","trial_index":43,"time_elapsed":77185,"internal_node_id":"0.0-43.0","subject":"S1C0804","sona":"41436","block":4,"time":"2021-09-04T22:16:51.716Z","response":"2nd","certainty":"high","char":"L","transposition":0,"order":["swapped","shifted"],"probe_pitches":[-3,0,5,9,2,5,0,7],"shifted_pitches":[-3,0,5,8,2,5,0,7],"swapped_pitches":[-3,0,5,2,9,5,0,7],"shift_direction":-1,"question_num":31,"has_decoy":false},{"rt":1809.2999999523163,"stimulus":"[A] option 1, [L] option 2, [G] neither","key_press":76,"name":"choice","trial_type":"html-keyboard-response","trial_index":54,"time_elapsed":93412,"internal_node_id":"0.0-54.0","subject":"S1C0804","sona":"41436","block":4,"time":"2021-09-04T22:16:51.716Z","response":"2nd","certainty":"high","char":"L","transposition":-3,"order":["shifted","swapped"],"probe_pitches":[4,-1,4,0,6,7,-1,0],"shifted_pitches":[4,-1,4,1,6,7,-1,0],"swapped_pitches":[4,-1,4,6,0,7,-1,0],"shift_direction":1,"question_num":41,"has_decoy":false},{"rt":659.9000000953674,"stimulus":"[A] option 1, [L] option 2, [G] neither","key_press":71,"name":"choice","trial_type":"html-keyboard-response","trial_index":65,"time_elapsed":110342,"internal_node_id":"0.0-65.0","subject":"S1C0804","sona":"41436","block":4,"time":"2021-09-04T22:16:51.716Z","response":"neither","certainty":"high","char":"G","transposition":2,"order":["shifted","swapped"],"probe_pitches":[-1,4,6,1,-3,6,4,6],"shifted_pitches":[-1,4,6,2,-3,6,4,6],"swapped_pitches":[-1,4,6,-3,1,6,4,6],"shift_direction":1,"question_num":51,"has_decoy":false},{"rt":2876.399999856949,"stimulus":"[A] option 1, [L] option 2, [G] neither","key_press":76,"name":"choice","trial_type":"html-keyboard-response","trial_index":76,"time_elapsed":127948,"internal_node_id":"0.0-76.0","subject":"S1C0804","sona":"41436","block":4,"time":"2021-09-04T22:16:51.716Z","response":"2nd","certainty":"high","char":"L","transposition":-1,"order":["shifted","swapped"],"probe_pitches":[-1,2,6,4,-3,-1,9,4],"shifted_pitches":[-1,2,6,4,-2,-1,9,4],"swapped_pitches":[-1,2,6,-3,4,-1,9,4],"shift_direction":1,"question_num":61,"has_decoy":false},{"rt":1780.8999998569489,"stimulus":"[A] option 1, [L] option 2, [G] neither","key_press":71,"name":"choice","trial_type":"html-keyboard-response","trial_index":87,"time_elapsed":147474,"internal_node_id":"0.0-87.0","subject":"S1C0804","sona":"41436","block":4,"time":"2021-09-04T22:16:51.716Z","response":"neither","certainty":"high","char":"G","transposition":2,"order":["shifted","swapped"],"probe_pitches":[8,5,7,8,5,2,9,-2],"shifted_pitches":[8,5,7,8,4,2,9,-2],"swapped_pitches":[8,5,7,5,8,2,9,-2],"shift_direction":-1,"question_num":71,"has_decoy":false},{"rt":1886.1999998092651,"stimulus":"[A] option 1, [L] option 2, [G] neither","key_press":71,"name":"choice","trial_type":"html-keyboard-response","trial_index":98,"time_elapsed":167499,"internal_node_id":"0.0-98.0","subject":"S1C0804","sona":"41436","block":4,"time":"2021-09-04T22:16:51.716Z","response":"neither","certainty":"high","char":"G","transposition":-1,"order":["shifted","swapped"],"probe_pitches":[1,5,8,2,4,-2,9,0],"shifted_pitches":[1,5,8,3,4,-2,9,0],"swapped_pitches":[1,5,8,4,2,-2,9,0],"shift_direction":1,"question_num":81,"has_decoy":false},{"rt":1167.1999998092651,"stimulus":"[A] option 1, [L] option 2, [G] neither","key_press":76,"name":"choice","trial_type":"html-keyboard-response","trial_index":109,"time_elapsed":184340,"internal_node_id":"0.0-109.0","subject":"S1C0804","sona":"41436","block":4,"time":"2021-09-04T22:16:51.716Z","response":"2nd","certainty":"high","char":"L","transposition":-2,"order":["shifted","swapped"],"probe_pitches":[-3,1,-3,1,0,7,9,6],"shifted_pitches":[-3,1,-3,1,-1,7,9,6],"swapped_pitches":[-3,1,-3,0,1,7,9,6],"shift_direction":-1,"question_num":91,"has_decoy":false},{"rt":1073.2999999523163,"stimulus":"[A] option 1, [L] option 2, [G] neither","key_press":76,"name":"choice","trial_type":"html-keyboard-response","trial_index":120,"time_elapsed":200246,"internal_node_id":"0.0-120.0","subject":"S1C0804","sona":"41436","block":4,"time":"2021-09-04T22:16:51.716Z","response":"2nd","certainty":"high","char":"L","transposition":-3,"order":["swapped","shifted"],"probe_pitches":[0,-1,-2,-1,7,6,-3,4],"shifted_pitches":[0,-1,-2,-1,8,6,-3,4],"swapped_pitches":[0,-1,-2,7,-1,6,-3,4],"shift_direction":1,"question_num":101,"has_decoy":false},{"rt":1123.2000000476837,"stimulus":"[A] option 1, [L] option 2, [G] neither","key_press":65,"name":"choice","trial_type":"html-keyboard-response","trial_index":131,"time_elapsed":217206,"internal_node_id":"0.0-131.0","subject":"S1C0804","sona":"41436","block":4,"time":"2021-09-04T22:16:51.716Z","response":"1st","certainty":"high","char":"A","transposition":-1,"order":["shifted","swapped"],"probe_pitches":[1,4,-3,-1,1,4,6,4],"shifted_pitches":[1,4,-3,-1,0,4,6,4],"swapped_pitches":[1,4,-3,1,-1,4,6,4],"shift_direction":-1,"question_num":111,"has_decoy":false},{"rt":3430.7999999523163,"stimulus":"[A] option 1, [L] option 2, [G] neither","key_press":71,"name":"choice","trial_type":"html-keyboard-response","trial_index":142,"time_elapsed":236174,"internal_node_id":"0.0-142.0","subject":"S1C0804","sona":"41436","block":4,"time":"2021-09-04T22:16:51.716Z","response":"neither","certainty":"high","char":"G","transposition":-2,"order":["swapped","shifted"],"probe_pitches":[9,8,7,9,1,2,1,-2],"shifted_pitches":[9,8,7,9,0,2,1,-2],"swapped_pitches":[9,8,7,1,9,2,1,-2],"shift_direction":-1,"question_num":121,"has_decoy":false},{"rt":1574.3999998569489,"stimulus":"[A] option 1, [L] option 2, [G] neither","key_press":65,"name":"choice","trial_type":"html-keyboard-response","trial_index":153,"time_elapsed":253617,"internal_node_id":"0.0-153.0","subject":"S1C0804","sona":"41436","block":4,"time":"2021-09-04T22:16:51.716Z","response":"1st","certainty":"high","char":"A","transposition":-3,"order":["swapped","shifted"],"probe_pitches":[0,-3,2,0,9,7,0,5],"shifted_pitches":[0,-3,2,-1,9,7,0,5],"swapped_pitches":[0,-3,2,9,0,7,0,5],"shift_direction":-1,"question_num":131,"has_decoy":false},{"rt":3354.4000000953674,"stimulus":"[A] option 1, [L] option 2, [G] neither","key_press":65,"name":"choice","trial_type":"html-keyboard-response","trial_index":164,"time_elapsed":272557,"internal_node_id":"0.0-164.0","subject":"S1C0804","sona":"41436","block":4,"time":"2021-09-04T22:16:51.716Z","response":"1st","certainty":"high","char":"A","transposition":-3,"order":["shifted","swapped"],"probe_pitches":[-3,0,2,4,7,-3,7,4],"shifted_pitches":[-3,0,2,5,7,-3,7,4],"swapped_pitches":[-3,0,2,7,4,-3,7,4],"shift_direction":1,"question_num":141,"has_decoy":false},{"rt":2049.600000143051,"stimulus":"[A] option 1, [L] option 2, [G] neither","key_press":76,"name":"choice","trial_type":"html-keyboard-response","trial_index":175,"time_elapsed":289362,"internal_node_id":"0.0-175.0","subject":"S1C0804","sona":"41436","block":4,"time":"2021-09-04T22:16:51.716Z","response":"2nd","certainty":"high","char":"L","transposition":3,"order":["swapped","shifted"],"probe_pitches":[9,7,2,-1,-3,4,-3,7],"shifted_pitches":[9,7,2,0,-3,4,-3,7],"swapped_pitches":[9,7,2,-3,-1,4,-3,7],"shift_direction":1,"question_num":151,"has_decoy":false},{"rt":581,"stimulus":"[A] option 1, [L] option 2, [G] neither","key_press":76,"name":"choice","trial_type":"html-keyboard-response","trial_index":186,"time_elapsed":312983,"internal_node_id":"0.0-186.0","subject":"S1C0804","sona":"41436","block":4,"time":"2021-09-04T22:16:51.716Z","response":"2nd","certainty":"high","char":"L","transposition":3,"order":["swapped","shifted"],"probe_pitches":[4,0,7,4,-3,3,0,9],"shifted_pitches":[4,0,7,5,-3,3,0,9],"swapped_pitches":[4,0,7,-3,4,3,0,9],"shift_direction":1,"question_num":161,"has_decoy":false},{"rt":785.0999999046326,"stimulus":"[A] option 1, [L] option 2, [G] neither","key_press":71,"name":"choice","trial_type":"html-keyboard-response","trial_index":197,"time_elapsed":329007,"internal_node_id":"0.0-197.0","subject":"S1C0804","sona":"41436","block":4,"time":"2021-09-04T22:16:51.716Z","response":"neither","certainty":"high","char":"G","transposition":-2,"order":["swapped","shifted"],"probe_pitches":[-3,-1,-3,2,4,-1,6,4],"shifted_pitches":[-3,-1,-3,2,3,-1,6,4],"swapped_pitches":[-3,-1,-3,4,2,-1,6,4],"shift_direction":-1,"question_num":171,"has_decoy":false},{"rt":705.7000000476837,"stimulus":"[A] option 1, [L] option 2, [G] neither","key_press":76,"name":"choice","trial_type":"html-keyboard-response","trial_index":208,"time_elapsed":344568,"internal_node_id":"0.0-208.0","subject":"S1C0804","sona":"41436","block":4,"time":"2021-09-04T22:16:51.716Z","response":"2nd","certainty":"high","char":"L","transposition":-1,"order":["swapped","shifted"],"probe_pitches":[7,3,4,0,7,5,9,-2],"shifted_pitches":[7,3,4,0,6,5,9,-2],"swapped_pitches":[7,3,4,7,0,5,9,-2],"shift_direction":-1,"question_num":181,"has_decoy":false},{"rt":2101.600000143051,"stimulus":"[A] option 1, [L] option 2, [G] neither","key_press":71,"name":"choice","trial_type":"html-keyboard-response","trial_index":219,"time_elapsed":362044,"internal_node_id":"0.0-219.0","subject":"S1C0804","sona":"41436","block":4,"time":"2021-09-04T22:16:51.716Z","response":"neither","certainty":"high","char":"G","transposition":-2,"order":["swapped","shifted"],"probe_pitches":[-3,0,7,2,0,4,9,4],"shifted_pitches":[-3,0,7,2,-1,4,9,4],"swapped_pitches":[-3,0,7,0,2,4,9,4],"shift_direction":-1,"question_num":191,"has_decoy":false}]