[{"rt":1004.8000001907349,"stimulus":"[A] option 1, [L] option 2, [G] neither","key_press":76,"name":"choice","trial_type":"html-keyboard-response","trial_index":10,"time_elapsed":18216,"internal_node_id":"0.0-10.0","subject":"S1C0804","sona":"41436","block":2,"time":"2021-09-04T22:05:07.890Z","response":"2nd","certainty":"high","char":"L","transposition":-1,"order":["swapped","shifted"],"probe_pitches":[4,8,9,4,6,3,1,-1],"shifted_pitches":[4,8,9,4,5,3,1,-1],"swapped_pitches":[4,8,9,6,4,3,1,-1],"shift_direction":-1,"question_num":1,"has_decoy":false},{"rt":8929.700000047684,"stimulus":"[A] option 1, [L] option 2, [G] neither","key_press":65,"name":"choice","trial_type":"html-keyboard-response","trial_index":21,"time_elapsed":42100,"internal_node_id":"0.0-21.0","subject":"S1C0804","sona":"41436","block":2,"time":"2021-09-04T22:05:07.890Z","response":"1st","certainty":"high","char":"A","transposition":-1,"order":["swapped","shifted"],"probe_pitches":[6,8,1,-1,4,6,4,8],"shifted_pitches":[6,8,1,0,4,6,4,8],"swapped_pitches":[6,8,1,4,-1,6,4,8],"shift_direction":1,"question_num":11,"has_decoy":false},{"rt":1146.5,"stimulus":"[A] option 1, [L] option 2, [G] neither","key_press":76,"name":"choice","trial_type":"html-keyboard-response","trial_index":32,"time_elapsed":59317,"internal_node_id":"0.0-32.0","subject":"S1C0804","sona":"41436","block":2,"time":"2021-09-04T22:05:07.890Z","response":"2nd","certainty":"high","char":"L","transposition":0,"order":["shifted","swapped"],"probe_pitches":[6,2,6,0,9,6,4,-2],"shifted_pitches":[6,2,6,0,8,6,4,-2],"swapped_pitches":[6,2,6,9,0,6,4,-2],"shift_direction":-1,"question_num":21,"has_decoy":false},{"rt":934.7999999523163,"stimulus":"[A] option 1, [L] option 2, [G] neither","key_press":76,"name":"choice","trial_type":"html-keyboard-response","trial_index":43,"time_elapsed":74995,"internal_node_id":"0.0-43.0","subject":"S1C0804","sona":"41436","block":2,"time":"2021-09-04T22:05:07.890Z","response":"2nd","certainty":"high","char":"L","transposition":-3,"order":["swapped","shifted"],"probe_pitches":[1,6,8,11,6,3,-1,6],"shifted_pitches":[1,6,8,10,6,3,-1,6],"swapped_pitches":[1,6,8,6,11,3,-1,6],"shift_direction":-1,"question_num":31,"has_decoy":false},{"rt":1468.2000000476837,"stimulus":"[A] option 1, [L] option 2, [G] neither","key_press":71,"name":"choice","trial_type":"html-keyboard-response","trial_index":54,"time_elapsed":92190,"internal_node_id":"0.0-54.0","subject":"S1C0804","sona":"41436","block":2,"time":"2021-09-04T22:05:07.890Z","response":"neither","certainty":"high","char":"G","transposition":1,"order":["shifted","swapped"],"probe_pitches":[9,7,2,4,-1,7,4,9],"shifted_pitches":[9,7,2,4,0,7,4,9],"swapped_pitches":[9,7,2,-1,4,7,4,9],"shift_direction":1,"question_num":41,"has_decoy":false},{"rt":2634.7999999523163,"stimulus":"[A] option 1, [L] option 2, [G] neither","key_press":65,"name":"choice","trial_type":"html-keyboard-response","trial_index":65,"time_elapsed":109636,"internal_node_id":"0.0-65.0","subject":"S1C0804","sona":"41436","block":2,"time":"2021-09-04T22:05:07.890Z","response":"1st","certainty":"high","char":"A","transposition":-3,"order":["swapped","shifted"],"probe_pitches":[-2,-1,0,5,2,-2,4,8],"shifted_pitches":[-2,-1,0,6,2,-2,4,8],"swapped_pitches":[-2,-1,0,2,5,-2,4,8],"shift_direction":1,"question_num":51,"has_decoy":false},{"rt":834.1000001430511,"stimulus":"[A] option 1, [L] option 2, [G] neither","key_press":76,"name":"choice","trial_type":"html-keyboard-response","trial_index":76,"time_elapsed":125334,"internal_node_id":"0.0-76.0","subject":"S1C0804","sona":"41436","block":2,"time":"2021-09-04T22:05:07.890Z","response":"2nd","certainty":"high","char":"L","transposition":2,"order":["swapped","shifted"],"probe_pitches":[6,1,8,3,-1,1,11,6],"shifted_pitches":[6,1,8,3,0,1,11,6],"swapped_pitches":[6,1,8,-1,3,1,11,6],"shift_direction":1,"question_num":61,"has_decoy":false},{"rt":1201.2000000476837,"stimulus":"[A] option 1, [L] option 2, [G] neither","key_press":76,"name":"choice","trial_type":"html-keyboard-response","trial_index":87,"time_elapsed":141172,"internal_node_id":"0.0-87.0","subject":"S1C0804","sona":"41436","block":2,"time":"2021-09-04T22:05:07.890Z","response":"2nd","certainty":"high","char":"L","transposition":-3,"order":["swapped","shifted"],"probe_pitches":[5,6,9,8,3,6,4,-1],"shifted_pitches":[5,6,9,7,3,6,4,-1],"swapped_pitches":[5,6,9,3,8,6,4,-1],"shift_direction":-1,"question_num":71,"has_decoy":false},{"rt":5914,"stimulus":"[A] option 1, [L] option 2, [G] neither","key_press":76,"name":"choice","trial_type":"html-keyboard-response","trial_index":98,"time_elapsed":162985,"internal_node_id":"0.0-98.0","subject":"S1C0804","sona":"41436","block":2,"time":"2021-09-04T22:05:07.890Z","response":"2nd","certainty":"high","char":"L","transposition":2,"order":["shifted","swapped"],"probe_pitches":[6,9,8,5,7,9,2,5],"shifted_pitches":[6,9,8,4,7,9,2,5],"swapped_pitches":[6,9,8,7,5,9,2,5],"shift_direction":-1,"question_num":81,"has_decoy":false},{"rt":2464.100000143051,"stimulus":"[A] option 1, [L] option 2, [G] neither","key_press":71,"name":"choice","trial_type":"html-keyboard-response","trial_index":109,"time_elapsed":180444,"internal_node_id":"0.0-109.0","subject":"S1C0804","sona":"41436","block":2,"time":"2021-09-04T22:05:07.890Z","response":"neither","certainty":"high","char":"G","transposition":-1,"order":["shifted","swapped"],"probe_pitches":[10,4,7,8,2,0,5,-2],"shifted_pitches":[10,4,7,9,2,0,5,-2],"swapped_pitches":[10,4,7,2,8,0,5,-2],"shift_direction":1,"question_num":91,"has_decoy":false},{"rt":898.5999999046326,"stimulus":"[A] option 1, [L] option 2, [G] neither","key_press":76,"name":"choice","trial_type":"html-keyboard-response","trial_index":120,"time_elapsed":196140,"internal_node_id":"0.0-120.0","subject":"S1C0804","sona":"41436","block":2,"time":"2021-09-04T22:05:07.890Z","response":"2nd","certainty":"high","char":"L","transposition":0,"order":["swapped","shifted"],"probe_pitches":[-1,4,7,9,2,-1,7,2],"shifted_pitches":[-1,4,7,9,1,-1,7,2],"swapped_pitches":[-1,4,7,2,9,-1,7,2],"shift_direction":-1,"question_num":101,"has_decoy":false},{"rt":1197.7000000476837,"stimulus":"[A] option 1, [L] option 2, [G] neither","key_press":76,"name":"choice","trial_type":"html-keyboard-response","trial_index":131,"time_elapsed":212048,"internal_node_id":"0.0-131.0","subject":"S1C0804","sona":"41436","block":2,"time":"2021-09-04T22:05:07.890Z","response":"2nd","certainty":"high","char":"L","transposition":-1,"order":["swapped","shifted"],"probe_pitches":[6,11,4,11,9,-1,2,9],"shifted_pitches":[6,11,4,11,10,-1,2,9],"swapped_pitches":[6,11,4,9,11,-1,2,9],"shift_direction":1,"question_num":111,"has_decoy":false},{"rt":850,"stimulus":"[A] option 1, [L] option 2, [G] neither","key_press":76,"name":"choice","trial_type":"html-keyboard-response","trial_index":142,"time_elapsed":227790,"internal_node_id":"0.0-142.0","subject":"S1C0804","sona":"41436","block":2,"time":"2021-09-04T22:05:07.890Z","response":"2nd","certainty":"high","char":"L","transposition":1,"order":["shifted","swapped"],"probe_pitches":[-2,3,8,0,1,5,1,7],"shifted_pitches":[-2,3,8,0,2,5,1,7],"swapped_pitches":[-2,3,8,1,0,5,1,7],"shift_direction":1,"question_num":121,"has_decoy":false},{"rt":4502.199999809265,"stimulus":"[A] option 1, [L] option 2, [G] neither","key_press":71,"name":"choice","trial_type":"html-keyboard-response","trial_index":153,"time_elapsed":247402,"internal_node_id":"0.0-153.0","subject":"S1C0804","sona":"41436","block":2,"time":"2021-09-04T22:05:07.890Z","response":"neither","certainty":"high","char":"G","transposition":-2,"order":["shifted","swapped"],"probe_pitches":[6,10,8,0,4,8,5,-1],"shifted_pitches":[6,10,8,1,4,8,5,-1],"swapped_pitches":[6,10,8,4,0,8,5,-1],"shift_direction":1,"question_num":131,"has_decoy":false},{"rt":695.2999999523163,"stimulus":"[A] option 1, [L] option 2, [G] neither","key_press":76,"name":"choice","trial_type":"html-keyboard-response","trial_index":164,"time_elapsed":263526,"internal_node_id":"0.0-164.0","subject":"S1C0804","sona":"41436","block":2,"time":"2021-09-04T22:05:07.890Z","response":"2nd","certainty":"high","char":"L","transposition":-2,"order":["shifted","swapped"],"probe_pitches":[9,6,-1,6,1,4,1,-1],"shifted_pitches":[9,6,-1,5,1,4,1,-1],"swapped_pitches":[9,6,-1,1,6,4,1,-1],"shift_direction":-1,"question_num":141,"has_decoy":false},{"rt":1045.4000000953674,"stimulus":"[A] option 1, [L] option 2, [G] neither","key_press":71,"name":"choice","trial_type":"html-keyboard-response","trial_index":175,"time_elapsed":279686,"internal_node_id":"0.0-175.0","subject":"S1C0804","sona":"41436","block":2,"time":"2021-09-04T22:05:07.890Z","response":"neither","certainty":"high","char":"G","transposition":-3,"order":["shifted","swapped"],"probe_pitches":[9,6,-1,4,6,11,2,11],"shifted_pitches":[9,6,-1,4,7,11,2,11],"swapped_pitches":[9,6,-1,6,4,11,2,11],"shift_direction":1,"question_num":151,"has_decoy":false},{"rt":2015.9000000953674,"stimulus":"[A] option 1, [L] option 2, [G] neither","key_press":65,"name":"choice","trial_type":"html-keyboard-response","trial_index":186,"time_elapsed":296497,"internal_node_id":"0.0-186.0","subject":"S1C0804","sona":"41436","block":2,"time":"2021-09-04T22:05:07.890Z","response":"1st","certainty":"high","char":"A","transposition":-2,"order":["shifted","swapped"],"probe_pitches":[6,11,9,11,4,6,1,11],"shifted_pitches":[6,11,9,10,4,6,1,11],"swapped_pitches":[6,11,9,4,11,6,1,11],"shift_direction":-1,"question_num":161,"has_decoy":false},{"rt":1006.7000000476837,"stimulus":"[A] option 1, [L] option 2, [G] neither","key_press":76,"name":"choice","trial_type":"html-keyboard-response","trial_index":197,"time_elapsed":312518,"internal_node_id":"0.0-197.0","subject":"S1C0804","sona":"41436","block":2,"time":"2021-09-04T22:05:07.890Z","response":"2nd","certainty":"high","char":"L","transposition":-2,"order":["swapped","shifted"],"probe_pitches":[2,-2,2,7,-1,4,7,3],"shifted_pitches":[2,-2,2,7,0,4,7,3],"swapped_pitches":[2,-2,2,-1,7,4,7,3],"shift_direction":1,"question_num":171,"has_decoy":false},{"rt":3837.899999856949,"stimulus":"[A] option 1, [L] option 2, [G] neither","key_press":71,"name":"choice","trial_type":"html-keyboard-response","trial_index":208,"time_elapsed":331368,"internal_node_id":"0.0-208.0","subject":"S1C0804","sona":"41436","block":2,"time":"2021-09-04T22:05:07.890Z","response":"neither","certainty":"high","char":"G","transposition":3,"order":["shifted","swapped"],"probe_pitches":[1,6,4,11,6,-1,6,8],"shifted_pitches":[1,6,4,10,6,-1,6,8],"swapped_pitches":[1,6,4,6,11,-1,6,8],"shift_direction":-1,"question_num":181,"has_decoy":false},{"rt":1017.2000000476837,"stimulus":"[A] option 1, [L] option 2, [G] neither","key_press":71,"name":"choice","trial_type":"html-keyboard-response","trial_index":219,"time_elapsed":347508,"internal_node_id":"0.0-219.0","subject":"S1C0804","sona":"41436","block":2,"time":"2021-09-04T22:05:07.890Z","response":"neither","certainty":"high","char":"G","transposition":3,"order":["swapped","shifted"],"probe_pitches":[7,9,8,1,4,-1,5,2],"shifted_pitches":[7,9,8,1,3,-1,5,2],"swapped_pitches":[7,9,8,4,1,-1,5,2],"shift_direction":-1,"question_num":191,"has_decoy":false}]