[{"rt":1793.7000000476837,"stimulus":"[A] option 1, [L] option 2, [G] neither","key_press":71,"name":"choice","trial_type":"html-keyboard-response","trial_index":10,"time_elapsed":16059,"internal_node_id":"0.0-10.0","subject":"S1C0804","sona":"41436","block":5,"time":"2021-09-04T22:22:47.960Z","response":"neither","certainty":"high","char":"G","transposition":1,"order":["shifted","swapped"],"probe_pitches":[8,4,2,7,1,4,7,0],"shifted_pitches":[8,4,2,6,1,4,7,0],"swapped_pitches":[8,4,2,1,7,4,7,0],"shift_direction":-1,"question_num":1,"has_decoy":false},{"rt":1428.8999998569489,"stimulus":"[A] option 1, [L] option 2, [G] neither","key_press":76,"name":"choice","trial_type":"html-keyboard-response","trial_index":21,"time_elapsed":32674,"internal_node_id":"0.0-21.0","subject":"S1C0804","sona":"41436","block":5,"time":"2021-09-04T22:22:47.960Z","response":"2nd","certainty":"high","char":"L","transposition":-2,"order":["swapped","shifted"],"probe_pitches":[2,6,4,11,9,4,2,9],"shifted_pitches":[2,6,4,12,9,4,2,9],"swapped_pitches":[2,6,4,9,11,4,2,9],"shift_direction":1,"question_num":11,"has_decoy":false},{"rt":859.6000001430511,"stimulus":"[A] option 1, [L] option 2, [G] neither","key_press":71,"name":"choice","trial_type":"html-keyboard-response","trial_index":32,"time_elapsed":48985,"internal_node_id":"0.0-32.0","subject":"S1C0804","sona":"41436","block":5,"time":"2021-09-04T22:22:47.960Z","response":"neither","certainty":"high","char":"G","transposition":0,"order":["shifted","swapped"],"probe_pitches":[4,1,-3,5,-2,0,-3,3],"shifted_pitches":[4,1,-3,5,-1,0,-3,3],"swapped_pitches":[4,1,-3,-2,5,0,-3,3],"shift_direction":1,"question_num":21,"has_decoy":false},{"rt":1461.7999999523163,"stimulus":"[A] option 1, [L] option 2, [G] neither","key_press":76,"name":"choice","trial_type":"html-keyboard-response","trial_index":43,"time_elapsed":65937,"internal_node_id":"0.0-43.0","subject":"S1C0804","sona":"41436","block":5,"time":"2021-09-04T22:22:47.960Z","response":"2nd","certainty":"high","char":"L","transposition":-3,"order":["swapped","shifted"],"probe_pitches":[5,6,8,4,3,0,1,9],"shifted_pitches":[5,6,8,4,2,0,1,9],"swapped_pitches":[5,6,8,3,4,0,1,9],"shift_direction":-1,"question_num":31,"has_decoy":false},{"rt":939.2000000476837,"stimulus":"[A] option 1, [L] option 2, [G] neither","key_press":65,"name":"choice","trial_type":"html-keyboard-response","trial_index":54,"time_elapsed":82555,"internal_node_id":"0.0-54.0","subject":"S1C0804","sona":"41436","block":5,"time":"2021-09-04T22:22:47.960Z","response":"1st","certainty":"high","char":"A","transposition":0,"order":["shifted","swapped"],"probe_pitches":[5,7,2,7,9,12,5,9],"shifted_pitches":[5,7,2,6,9,12,5,9],"swapped_pitches":[5,7,2,9,7,12,5,9],"shift_direction":-1,"question_num":41,"has_decoy":false},{"rt":1217.5999999046326,"stimulus":"[A] option 1, [L] option 2, [G] neither","key_press":76,"name":"choice","trial_type":"html-keyboard-response","trial_index":65,"time_elapsed":99175,"internal_node_id":"0.0-65.0","subject":"S1C0804","sona":"41436","block":5,"time":"2021-09-04T22:22:47.960Z","response":"2nd","certainty":"high","char":"L","transposition":-1,"order":["shifted","swapped"],"probe_pitches":[2,4,7,9,14,7,12,4],"shifted_pitches":[2,4,7,9,13,7,12,4],"swapped_pitches":[2,4,7,14,9,7,12,4],"shift_direction":-1,"question_num":51,"has_decoy":false},{"rt":1571.8000001907349,"stimulus":"[A] option 1, [L] option 2, [G] neither","key_press":71,"name":"choice","trial_type":"html-keyboard-response","trial_index":76,"time_elapsed":115417,"internal_node_id":"0.0-76.0","subject":"S1C0804","sona":"41436","block":5,"time":"2021-09-04T22:22:47.960Z","response":"neither","certainty":"high","char":"G","transposition":-2,"order":["swapped","shifted"],"probe_pitches":[2,4,7,14,9,12,2,14],"shifted_pitches":[2,4,7,13,9,12,2,14],"swapped_pitches":[2,4,7,9,14,12,2,14],"shift_direction":-1,"question_num":61,"has_decoy":false},{"rt":819.6999998092651,"stimulus":"[A] option 1, [L] option 2, [G] neither","key_press":71,"name":"choice","trial_type":"html-keyboard-response","trial_index":87,"time_elapsed":131515,"internal_node_id":"0.0-87.0","subject":"S1C0804","sona":"41436","block":5,"time":"2021-09-04T22:22:47.960Z","response":"neither","certainty":"high","char":"G","transposition":-1,"order":["swapped","shifted"],"probe_pitches":[-3,0,6,4,8,0,2,-2],"shifted_pitches":[-3,0,6,4,7,0,2,-2],"swapped_pitches":[-3,0,6,8,4,0,2,-2],"shift_direction":-1,"question_num":71,"has_decoy":false},{"rt":646.0999999046326,"stimulus":"[A] option 1, [L] option 2, [G] neither","key_press":76,"name":"choice","trial_type":"html-keyboard-response","trial_index":98,"time_elapsed":148252,"internal_node_id":"0.0-98.0","subject":"S1C0804","sona":"41436","block":5,"time":"2021-09-04T22:22:47.960Z","response":"2nd","certainty":"high","char":"L","transposition":3,"order":["swapped","shifted"],"probe_pitches":[7,5,7,14,10,12,7,14],"shifted_pitches":[7,5,7,14,11,12,7,14],"swapped_pitches":[7,5,7,10,14,12,7,14],"shift_direction":1,"question_num":81,"has_decoy":false},{"rt":720.4000000953674,"stimulus":"[A] option 1, [L] option 2, [G] neither","key_press":71,"name":"choice","trial_type":"html-keyboard-response","trial_index":109,"time_elapsed":165586,"internal_node_id":"0.0-109.0","subject":"S1C0804","sona":"41436","block":5,"time":"2021-09-04T22:22:47.960Z","response":"neither","certainty":"high","char":"G","transposition":2,"order":["shifted","swapped"],"probe_pitches":[10,12,14,7,5,12,7,10],"shifted_pitches":[10,12,14,8,5,12,7,10],"swapped_pitches":[10,12,14,5,7,12,7,10],"shift_direction":1,"question_num":91,"has_decoy":false},{"rt":1926.3999998569489,"stimulus":"[A] option 1, [L] option 2, [G] neither","key_press":71,"name":"choice","trial_type":"html-keyboard-response","trial_index":120,"time_elapsed":182411,"internal_node_id":"0.0-120.0","subject":"S1C0804","sona":"41436","block":5,"time":"2021-09-04T22:22:47.960Z","response":"neither","certainty":"high","char":"G","transposition":-2,"order":["swapped","shifted"],"probe_pitches":[4,6,2,-2,4,9,2,8],"shifted_pitches":[4,6,2,-2,5,9,2,8],"swapped_pitches":[4,6,2,4,-2,9,2,8],"shift_direction":1,"question_num":101,"has_decoy":false},{"rt":6573,"stimulus":"[A] option 1, [L] option 2, [G] neither","key_press":71,"name":"choice","trial_type":"html-keyboard-response","trial_index":131,"time_elapsed":205558,"internal_node_id":"0.0-131.0","subject":"S1C0804","sona":"41436","block":5,"time":"2021-09-04T22:22:47.960Z","response":"neither","certainty":"high","char":"G","transposition":-2,"order":["shifted","swapped"],"probe_pitches":[2,-3,-1,3,2,8,-3,7],"shifted_pitches":[2,-3,-1,4,2,8,-3,7],"swapped_pitches":[2,-3,-1,2,3,8,-3,7],"shift_direction":1,"question_num":111,"has_decoy":false},{"rt":778.0999999046326,"stimulus":"[A] option 1, [L] option 2, [G] neither","key_press":76,"name":"choice","trial_type":"html-keyboard-response","trial_index":142,"time_elapsed":222423,"internal_node_id":"0.0-142.0","subject":"S1C0804","sona":"41436","block":5,"time":"2021-09-04T22:22:47.960Z","response":"2nd","certainty":"high","char":"L","transposition":1,"order":["swapped","shifted"],"probe_pitches":[2,4,9,11,2,7,4,9],"shifted_pitches":[2,4,9,12,2,7,4,9],"swapped_pitches":[2,4,9,2,11,7,4,9],"shift_direction":1,"question_num":121,"has_decoy":false},{"rt":4825,"stimulus":"[A] option 1, [L] option 2, [G] neither","key_press":76,"name":"choice","trial_type":"html-keyboard-response","trial_index":153,"time_elapsed":242420,"internal_node_id":"0.0-153.0","subject":"S1C0804","sona":"41436","block":5,"time":"2021-09-04T22:22:47.960Z","response":"2nd","certainty":"high","char":"L","transposition":-3,"order":["swapped","shifted"],"probe_pitches":[-2,3,0,2,-3,4,8,-3],"shifted_pitches":[-2,3,0,1,-3,4,8,-3],"swapped_pitches":[-2,3,0,-3,2,4,8,-3],"shift_direction":-1,"question_num":131,"has_decoy":false},{"rt":957.7000000476837,"stimulus":"[A] option 1, [L] option 2, [G] neither","key_press":76,"name":"choice","trial_type":"html-keyboard-response","trial_index":164,"time_elapsed":260163,"internal_node_id":"0.0-164.0","subject":"S1C0804","sona":"41436","block":5,"time":"2021-09-04T22:22:47.960Z","response":"2nd","certainty":"high","char":"L","transposition":-3,"order":["shifted","swapped"],"probe_pitches":[14,9,7,9,14,11,9,4],"shifted_pitches":[14,9,7,9,15,11,9,4],"swapped_pitches":[14,9,7,14,9,11,9,4],"shift_direction":1,"question_num":141,"has_decoy":false},{"rt":875.7999999523163,"stimulus":"[A] option 1, [L] option 2, [G] neither","key_press":76,"name":"choice","trial_type":"html-keyboard-response","trial_index":175,"time_elapsed":282701,"internal_node_id":"0.0-175.0","subject":"S1C0804","sona":"41436","block":5,"time":"2021-09-04T22:22:47.960Z","response":"2nd","certainty":"high","char":"L","transposition":-1,"order":["shifted","swapped"],"probe_pitches":[4,6,9,14,11,6,4,14],"shifted_pitches":[4,6,9,14,10,6,4,14],"swapped_pitches":[4,6,9,11,14,6,4,14],"shift_direction":-1,"question_num":151,"has_decoy":false},{"rt":918.5,"stimulus":"[A] option 1, [L] option 2, [G] neither","key_press":71,"name":"choice","trial_type":"html-keyboard-response","trial_index":186,"time_elapsed":299624,"internal_node_id":"0.0-186.0","subject":"S1C0804","sona":"41436","block":5,"time":"2021-09-04T22:22:47.960Z","response":"neither","certainty":"high","char":"G","transposition":-1,"order":["shifted","swapped"],"probe_pitches":[9,5,-2,-1,1,8,5,8],"shifted_pitches":[9,5,-2,0,1,8,5,8],"swapped_pitches":[9,5,-2,1,-1,8,5,8],"shift_direction":1,"question_num":161,"has_decoy":false},{"rt":1291.0999999046326,"stimulus":"[A] option 1, [L] option 2, [G] neither","key_press":71,"name":"choice","trial_type":"html-keyboard-response","trial_index":197,"time_elapsed":316146,"internal_node_id":"0.0-197.0","subject":"S1C0804","sona":"41436","block":5,"time":"2021-09-04T22:22:47.960Z","response":"neither","certainty":"high","char":"G","transposition":2,"order":["swapped","shifted"],"probe_pitches":[7,6,7,3,9,7,4,6],"shifted_pitches":[7,6,7,3,8,7,4,6],"swapped_pitches":[7,6,7,9,3,7,4,6],"shift_direction":-1,"question_num":171,"has_decoy":false},{"rt":985.2000000476837,"stimulus":"[A] option 1, [L] option 2, [G] neither","key_press":76,"name":"choice","trial_type":"html-keyboard-response","trial_index":208,"time_elapsed":334560,"internal_node_id":"0.0-208.0","subject":"S1C0804","sona":"41436","block":5,"time":"2021-09-04T22:22:47.960Z","response":"2nd","certainty":"high","char":"L","transposition":3,"order":["shifted","swapped"],"probe_pitches":[7,4,-3,2,-2,1,4,8],"shifted_pitches":[7,4,-3,3,-2,1,4,8],"swapped_pitches":[7,4,-3,-2,2,1,4,8],"shift_direction":1,"question_num":181,"has_decoy":false},{"rt":1099.2999999523163,"stimulus":"[A] option 1, [L] option 2, [G] neither","key_press":76,"name":"choice","trial_type":"html-keyboard-response","trial_index":219,"time_elapsed":352974,"internal_node_id":"0.0-219.0","subject":"S1C0804","sona":"41436","block":5,"time":"2021-09-04T22:22:47.960Z","response":"2nd","certainty":"high","char":"L","transposition":-3,"order":["swapped","shifted"],"probe_pitches":[14,12,5,2,9,7,5,14],"shifted_pitches":[14,12,5,2,8,7,5,14],"swapped_pitches":[14,12,5,9,2,7,5,14],"shift_direction":-1,"question_num":191,"has_decoy":false}]