[{"rt":7529.899999976158,"stimulus":"[A] option 1, [L] option 2, [G] neither","key_press":76,"name":"choice","trial_type":"html-keyboard-response","trial_index":15,"time_elapsed":61895,"internal_node_id":"0.0-15.0","response":"2nd","certainty":"high","char":"L","transposition":-1,"order":["swapped","shifted"],"probe_pitches":[4,3,7,3,9,5,7,3],"shifted_pitches":[4,3,7,3,8,5,7,3],"swapped_pitches":[4,3,7,9,3,5,7,3],"shift_direction":-1,"question_num":1,"has_decoy":false,"subject":"S1C0836","sona":"41650","block":1,"time":"2021-09-18T16:40:02.472Z"},{"rt":6535,"stimulus":"[A] option 1, [L] option 2, [G] neither","key_press":76,"name":"choice","trial_type":"html-keyboard-response","trial_index":26,"time_elapsed":86920,"internal_node_id":"0.0-26.0","response":"2nd","certainty":"high","char":"L","transposition":0,"order":["swapped","shifted"],"probe_pitches":[8,6,1,-2,3,6,10,6],"shifted_pitches":[8,6,1,-2,2,6,10,6],"swapped_pitches":[8,6,1,3,-2,6,10,6],"shift_direction":-1,"question_num":11,"has_decoy":false,"subject":"S1C0836","sona":"41650","block":1,"time":"2021-09-18T16:40:02.472Z"},{"rt":3123.1999999284744,"stimulus":"[A] option 1, [L] option 2, [G] neither","key_press":65,"name":"choice","trial_type":"html-keyboard-response","trial_index":37,"time_elapsed":105778,"internal_node_id":"0.0-37.0","response":"1st","certainty":"high","char":"A","transposition":-3,"order":["shifted","swapped"],"probe_pitches":[5,3,1,3,-2,8,3,-2],"shifted_pitches":[5,3,1,4,-2,8,3,-2],"swapped_pitches":[5,3,1,-2,3,8,3,-2],"shift_direction":1,"question_num":21,"has_decoy":false,"subject":"S1C0836","sona":"41650","block":1,"time":"2021-09-18T16:40:02.472Z"},{"rt":9514,"stimulus":"[A] option 1, [L] option 2, [G] neither","key_press":71,"name":"choice","trial_type":"html-keyboard-response","trial_index":48,"time_elapsed":131799,"internal_node_id":"0.0-48.0","response":"neither","certainty":"high","char":"G","transposition":1,"order":["shifted","swapped"],"probe_pitches":[3,8,5,10,3,8,0,5],"shifted_pitches":[3,8,5,9,3,8,0,5],"swapped_pitches":[3,8,5,3,10,8,0,5],"shift_direction":-1,"question_num":31,"has_decoy":false,"subject":"S1C0836","sona":"41650","block":1,"time":"2021-09-18T16:40:02.472Z"},{"rt":1365.5,"stimulus":"[A] option 1, [L] option 2, [G] neither","key_press":76,"name":"choice","trial_type":"html-keyboard-response","trial_index":59,"time_elapsed":149581,"internal_node_id":"0.0-59.0","response":"2nd","certainty":"high","char":"L","transposition":0,"order":["shifted","swapped"],"probe_pitches":[6,10,8,13,7,14,13,8],"shifted_pitches":[6,10,8,12,7,14,13,8],"swapped_pitches":[6,10,8,7,13,14,13,8],"shift_direction":-1,"question_num":41,"has_decoy":false,"subject":"S1C0836","sona":"41650","block":1,"time":"2021-09-18T16:40:02.472Z"},{"rt":3352.0999999046326,"stimulus":"[A] option 1, [L] option 2, [G] neither","key_press":65,"name":"choice","trial_type":"html-keyboard-response","trial_index":70,"time_elapsed":168550,"internal_node_id":"0.0-70.0","response":"1st","certainty":"high","char":"A","transposition":3,"order":["swapped","shifted"],"probe_pitches":[7,3,10,5,7,0,10,7],"shifted_pitches":[7,3,10,4,7,0,10,7],"swapped_pitches":[7,3,10,7,5,0,10,7],"shift_direction":-1,"question_num":51,"has_decoy":false,"subject":"S1C0836","sona":"41650","block":1,"time":"2021-09-18T16:40:02.472Z"},{"rt":1247,"stimulus":"[A] option 1, [L] option 2, [G] neither","key_press":65,"name":"choice","trial_type":"html-keyboard-response","trial_index":81,"time_elapsed":185423,"internal_node_id":"0.0-81.0","response":"1st","certainty":"high","char":"A","transposition":-1,"order":["shifted","swapped"],"probe_pitches":[2,0,5,10,7,-2,0,7],"shifted_pitches":[2,0,5,10,8,-2,0,7],"swapped_pitches":[2,0,5,7,10,-2,0,7],"shift_direction":1,"question_num":61,"has_decoy":false,"subject":"S1C0836","sona":"41650","block":1,"time":"2021-09-18T16:40:02.472Z"},{"rt":2065.100000023842,"stimulus":"[A] option 1, [L] option 2, [G] neither","key_press":76,"name":"choice","trial_type":"html-keyboard-response","trial_index":92,"time_elapsed":203240,"internal_node_id":"0.0-92.0","response":"2nd","certainty":"high","char":"L","transposition":2,"order":["shifted","swapped"],"probe_pitches":[8,5,8,10,1,3,-2,10],"shifted_pitches":[8,5,8,9,1,3,-2,10],"swapped_pitches":[8,5,8,1,10,3,-2,10],"shift_direction":-1,"question_num":71,"has_decoy":false,"subject":"S1C0836","sona":"41650","block":1,"time":"2021-09-18T16:40:02.472Z"},{"rt":2031,"stimulus":"[A] option 1, [L] option 2, [G] neither","key_press":65,"name":"choice","trial_type":"html-keyboard-response","trial_index":103,"time_elapsed":221288,"internal_node_id":"0.0-103.0","response":"1st","certainty":"high","char":"A","transposition":1,"order":["shifted","swapped"],"probe_pitches":[13,7,5,12,9,10,14,10],"shifted_pitches":[13,7,5,11,9,10,14,10],"swapped_pitches":[13,7,5,9,12,10,14,10],"shift_direction":-1,"question_num":81,"has_decoy":false,"subject":"S1C0836","sona":"41650","block":1,"time":"2021-09-18T16:40:02.472Z"},{"rt":4696.100000023842,"stimulus":"[A] option 1, [L] option 2, [G] neither","key_press":76,"name":"choice","trial_type":"html-keyboard-response","trial_index":114,"time_elapsed":242384,"internal_node_id":"0.0-114.0","response":"2nd","certainty":"high","char":"L","transposition":-2,"order":["swapped","shifted"],"probe_pitches":[2,-2,5,7,-2,0,7,0],"shifted_pitches":[2,-2,5,7,-1,0,7,0],"swapped_pitches":[2,-2,5,-2,7,0,7,0],"shift_direction":1,"question_num":91,"has_decoy":false,"subject":"S1C0836","sona":"41650","block":1,"time":"2021-09-18T16:40:02.472Z"},{"rt":2952.3000000715256,"stimulus":"[A] option 1, [L] option 2, [G] neither","key_press":65,"name":"choice","trial_type":"html-keyboard-response","trial_index":125,"time_elapsed":261970,"internal_node_id":"0.0-125.0","response":"1st","certainty":"high","char":"A","transposition":-2,"order":["swapped","shifted"],"probe_pitches":[10,5,2,3,7,13,9,4],"shifted_pitches":[10,5,2,3,6,13,9,4],"swapped_pitches":[10,5,2,7,3,13,9,4],"shift_direction":-1,"question_num":101,"has_decoy":false,"subject":"S1C0836","sona":"41650","block":1,"time":"2021-09-18T16:40:02.472Z"},{"rt":2487,"stimulus":"[A] option 1, [L] option 2, [G] neither","key_press":76,"name":"choice","trial_type":"html-keyboard-response","trial_index":136,"time_elapsed":281324,"internal_node_id":"0.0-136.0","response":"2nd","certainty":"high","char":"L","transposition":-3,"order":["shifted","swapped"],"probe_pitches":[9,6,9,6,11,9,11,8],"shifted_pitches":[9,6,9,7,11,9,11,8],"swapped_pitches":[9,6,9,11,6,9,11,8],"shift_direction":1,"question_num":111,"has_decoy":false,"subject":"S1C0836","sona":"41650","block":1,"time":"2021-09-18T16:40:02.472Z"},{"rt":2885.7999999523163,"stimulus":"[A] option 1, [L] option 2, [G] neither","key_press":65,"name":"choice","trial_type":"html-keyboard-response","trial_index":147,"time_elapsed":300613,"internal_node_id":"0.0-147.0","response":"1st","certainty":"high","char":"A","transposition":-1,"order":["swapped","shifted"],"probe_pitches":[7,11,4,8,2,6,12,5],"shifted_pitches":[7,11,4,9,2,6,12,5],"swapped_pitches":[7,11,4,2,8,6,12,5],"shift_direction":1,"question_num":121,"has_decoy":false,"subject":"S1C0836","sona":"41650","block":1,"time":"2021-09-18T16:40:02.472Z"},{"rt":1069,"stimulus":"[A] option 1, [L] option 2, [G] neither","key_press":65,"name":"choice","trial_type":"html-keyboard-response","trial_index":158,"time_elapsed":318497,"internal_node_id":"0.0-158.0","response":"1st","certainty":"high","char":"A","transposition":3,"order":["shifted","swapped"],"probe_pitches":[3,7,10,8,4,10,11,2],"shifted_pitches":[3,7,10,8,5,10,11,2],"swapped_pitches":[3,7,10,4,8,10,11,2],"shift_direction":1,"question_num":131,"has_decoy":false,"subject":"S1C0836","sona":"41650","block":1,"time":"2021-09-18T16:40:02.472Z"},{"rt":2254.899999976158,"stimulus":"[A] option 1, [L] option 2, [G] neither","key_press":76,"name":"choice","trial_type":"html-keyboard-response","trial_index":169,"time_elapsed":338282,"internal_node_id":"0.0-169.0","response":"2nd","certainty":"high","char":"L","transposition":-3,"order":["shifted","swapped"],"probe_pitches":[-2,3,0,-2,5,10,0,8],"shifted_pitches":[-2,3,0,-1,5,10,0,8],"swapped_pitches":[-2,3,0,5,-2,10,0,8],"shift_direction":1,"question_num":141,"has_decoy":false,"subject":"S1C0836","sona":"41650","block":1,"time":"2021-09-18T16:40:02.472Z"},{"rt":2665.7999999523163,"stimulus":"[A] option 1, [L] option 2, [G] neither","key_press":76,"name":"choice","trial_type":"html-keyboard-response","trial_index":180,"time_elapsed":356734,"internal_node_id":"0.0-180.0","response":"2nd","certainty":"high","char":"L","transposition":-2,"order":["swapped","shifted"],"probe_pitches":[13,9,3,4,9,12,4,9],"shifted_pitches":[13,9,3,4,10,12,4,9],"swapped_pitches":[13,9,3,9,4,12,4,9],"shift_direction":1,"question_num":151,"has_decoy":false,"subject":"S1C0836","sona":"41650","block":1,"time":"2021-09-18T16:40:02.472Z"},{"rt":2189.399999976158,"stimulus":"[A] option 1, [L] option 2, [G] neither","key_press":65,"name":"choice","trial_type":"html-keyboard-response","trial_index":191,"time_elapsed":375867,"internal_node_id":"0.0-191.0","response":"1st","certainty":"high","char":"A","transposition":-1,"order":["swapped","shifted"],"probe_pitches":[5,7,5,0,7,3,0,10],"shifted_pitches":[5,7,5,0,6,3,0,10],"swapped_pitches":[5,7,5,7,0,3,0,10],"shift_direction":-1,"question_num":161,"has_decoy":false,"subject":"S1C0836","sona":"41650","block":1,"time":"2021-09-18T16:40:02.472Z"},{"rt":1722,"stimulus":"[A] option 1, [L] option 2, [G] neither","key_press":71,"name":"choice","trial_type":"html-keyboard-response","trial_index":202,"time_elapsed":393188,"internal_node_id":"0.0-202.0","response":"neither","certainty":"high","char":"G","transposition":-3,"order":["shifted","swapped"],"probe_pitches":[9,7,12,7,5,8,3,8],"shifted_pitches":[9,7,12,7,4,8,3,8],"swapped_pitches":[9,7,12,5,7,8,3,8],"shift_direction":-1,"question_num":171,"has_decoy":false,"subject":"S1C0836","sona":"41650","block":1,"time":"2021-09-18T16:40:02.472Z"},{"rt":1190,"stimulus":"[A] option 1, [L] option 2, [G] neither","key_press":76,"name":"choice","trial_type":"html-keyboard-response","trial_index":213,"time_elapsed":411446,"internal_node_id":"0.0-213.0","response":"2nd","certainty":"high","char":"L","transposition":2,"order":["swapped","shifted"],"probe_pitches":[9,14,10,12,14,7,8,9],"shifted_pitches":[9,14,10,13,14,7,8,9],"swapped_pitches":[9,14,10,14,12,7,8,9],"shift_direction":1,"question_num":181,"has_decoy":false,"subject":"S1C0836","sona":"41650","block":1,"time":"2021-09-18T16:40:02.472Z"},{"rt":2705.2999999523163,"stimulus":"[A] option 1, [L] option 2, [G] neither","key_press":76,"name":"choice","trial_type":"html-keyboard-response","trial_index":224,"time_elapsed":430651,"internal_node_id":"0.0-224.0","response":"2nd","certainty":"high","char":"L","transposition":-2,"order":["swapped","shifted"],"probe_pitches":[-2,1,6,8,3,10,1,3],"shifted_pitches":[-2,1,6,8,4,10,1,3],"swapped_pitches":[-2,1,6,3,8,10,1,3],"shift_direction":1,"question_num":191,"has_decoy":false,"subject":"S1C0836","sona":"41650","block":1,"time":"2021-09-18T16:40:02.472Z"}]