[{"rt":1310.7000000476837,"stimulus":"[A] option 1, [L] option 2, [G] neither","key_press":76,"name":"choice","trial_type":"html-keyboard-response","trial_index":10,"time_elapsed":18277,"internal_node_id":"0.0-10.0","subject":"S1C0836","sona":"41650","block":3,"time":"2021-09-18T17:08:18.880Z","response":"2nd","certainty":"high","char":"L","transposition":-2,"order":["shifted","swapped"],"probe_pitches":[5,1,3,8,10,13,3,13],"shifted_pitches":[5,1,3,9,10,13,3,13],"swapped_pitches":[5,1,3,10,8,13,3,13],"shift_direction":1,"question_num":1,"has_decoy":false},{"rt":1318.3999999761581,"stimulus":"[A] option 1, [L] option 2, [G] neither","key_press":65,"name":"choice","trial_type":"html-keyboard-response","trial_index":21,"time_elapsed":35015,"internal_node_id":"0.0-21.0","subject":"S1C0836","sona":"41650","block":3,"time":"2021-09-18T17:08:18.880Z","response":"1st","certainty":"high","char":"A","transposition":-1,"order":["swapped","shifted"],"probe_pitches":[8,7,1,6,9,4,7,-1],"shifted_pitches":[8,7,1,5,9,4,7,-1],"swapped_pitches":[8,7,1,9,6,4,7,-1],"shift_direction":-1,"question_num":11,"has_decoy":false},{"rt":1591.6000000238419,"stimulus":"[A] option 1, [L] option 2, [G] neither","key_press":71,"name":"choice","trial_type":"html-keyboard-response","trial_index":32,"time_elapsed":51828,"internal_node_id":"0.0-32.0","subject":"S1C0836","sona":"41650","block":3,"time":"2021-09-18T17:08:18.880Z","response":"neither","certainty":"high","char":"G","transposition":0,"order":["swapped","shifted"],"probe_pitches":[3,1,8,11,3,1,11,6],"shifted_pitches":[3,1,8,11,2,1,11,6],"swapped_pitches":[3,1,8,3,11,1,11,6],"shift_direction":-1,"question_num":21,"has_decoy":false},{"rt":1129.1999999284744,"stimulus":"[A] option 1, [L] option 2, [G] neither","key_press":65,"name":"choice","trial_type":"html-keyboard-response","trial_index":43,"time_elapsed":160378,"internal_node_id":"0.0-43.0","subject":"S1C0836","sona":"41650","block":3,"time":"2021-09-18T17:08:18.880Z","response":"1st","certainty":"high","char":"A","transposition":-2,"order":["shifted","swapped"],"probe_pitches":[10,6,8,10,13,3,6,3],"shifted_pitches":[10,6,8,10,12,3,6,3],"swapped_pitches":[10,6,8,13,10,3,6,3],"shift_direction":-1,"question_num":31,"has_decoy":false},{"rt":1024.2999999523163,"stimulus":"[A] option 1, [L] option 2, [G] neither","key_press":76,"name":"choice","trial_type":"html-keyboard-response","trial_index":54,"time_elapsed":176433,"internal_node_id":"0.0-54.0","subject":"S1C0836","sona":"41650","block":3,"time":"2021-09-18T17:08:18.880Z","response":"2nd","certainty":"high","char":"L","transposition":0,"order":["shifted","swapped"],"probe_pitches":[-2,-1,0,1,8,9,0,4],"shifted_pitches":[-2,-1,0,1,7,9,0,4],"swapped_pitches":[-2,-1,0,8,1,9,0,4],"shift_direction":-1,"question_num":41,"has_decoy":false},{"rt":3253.7999999523163,"stimulus":"[A] option 1, [L] option 2, [G] neither","key_press":65,"name":"choice","trial_type":"html-keyboard-response","trial_index":65,"time_elapsed":195662,"internal_node_id":"0.0-65.0","subject":"S1C0836","sona":"41650","block":3,"time":"2021-09-18T17:08:18.880Z","response":"1st","certainty":"high","char":"A","transposition":-3,"order":["shifted","swapped"],"probe_pitches":[6,11,13,11,8,1,8,4],"shifted_pitches":[6,11,13,12,8,1,8,4],"swapped_pitches":[6,11,13,8,11,1,8,4],"shift_direction":1,"question_num":51,"has_decoy":false},{"rt":954.6000000238419,"stimulus":"[A] option 1, [L] option 2, [G] neither","key_press":76,"name":"choice","trial_type":"html-keyboard-response","trial_index":76,"time_elapsed":211772,"internal_node_id":"0.0-76.0","subject":"S1C0836","sona":"41650","block":3,"time":"2021-09-18T17:08:18.880Z","response":"2nd","certainty":"high","char":"L","transposition":2,"order":["shifted","swapped"],"probe_pitches":[0,-1,4,1,7,4,6,1],"shifted_pitches":[0,-1,4,1,8,4,6,1],"swapped_pitches":[0,-1,4,7,1,4,6,1],"shift_direction":1,"question_num":61,"has_decoy":false},{"rt":1870.2999999523163,"stimulus":"[A] option 1, [L] option 2, [G] neither","key_press":71,"name":"choice","trial_type":"html-keyboard-response","trial_index":87,"time_elapsed":228767,"internal_node_id":"0.0-87.0","subject":"S1C0836","sona":"41650","block":3,"time":"2021-09-18T17:08:18.880Z","response":"neither","certainty":"high","char":"G","transposition":-1,"order":["shifted","swapped"],"probe_pitches":[4,6,1,4,6,11,8,1],"shifted_pitches":[4,6,1,4,7,11,8,1],"swapped_pitches":[4,6,1,6,4,11,8,1],"shift_direction":1,"question_num":71,"has_decoy":false},{"rt":2169.8000000715256,"stimulus":"[A] option 1, [L] option 2, [G] neither","key_press":76,"name":"choice","trial_type":"html-keyboard-response","trial_index":98,"time_elapsed":246937,"internal_node_id":"0.0-98.0","subject":"S1C0836","sona":"41650","block":3,"time":"2021-09-18T17:08:18.880Z","response":"2nd","certainty":"high","char":"L","transposition":3,"order":["shifted","swapped"],"probe_pitches":[8,4,-1,1,9,6,4,8],"shifted_pitches":[8,4,-1,0,9,6,4,8],"swapped_pitches":[8,4,-1,9,1,6,4,8],"shift_direction":-1,"question_num":81,"has_decoy":false},{"rt":1155.6000000238419,"stimulus":"[A] option 1, [L] option 2, [G] neither","key_press":76,"name":"choice","trial_type":"html-keyboard-response","trial_index":109,"time_elapsed":263703,"internal_node_id":"0.0-109.0","subject":"S1C0836","sona":"41650","block":3,"time":"2021-09-18T17:08:18.880Z","response":"2nd","certainty":"high","char":"L","transposition":1,"order":["swapped","shifted"],"probe_pitches":[13,10,3,10,8,5,1,8],"shifted_pitches":[13,10,3,9,8,5,1,8],"swapped_pitches":[13,10,3,8,10,5,1,8],"shift_direction":-1,"question_num":91,"has_decoy":false},{"rt":4014.6999999284744,"stimulus":"[A] option 1, [L] option 2, [G] neither","key_press":76,"name":"choice","trial_type":"html-keyboard-response","trial_index":120,"time_elapsed":283714,"internal_node_id":"0.0-120.0","subject":"S1C0836","sona":"41650","block":3,"time":"2021-09-18T17:08:18.880Z","response":"2nd","certainty":"high","char":"L","transposition":-1,"order":["shifted","swapped"],"probe_pitches":[1,6,9,4,6,13,6,11],"shifted_pitches":[1,6,9,4,5,13,6,11],"swapped_pitches":[1,6,9,6,4,13,6,11],"shift_direction":-1,"question_num":101,"has_decoy":false},{"rt":1923,"stimulus":"[A] option 1, [L] option 2, [G] neither","key_press":65,"name":"choice","trial_type":"html-keyboard-response","trial_index":131,"time_elapsed":301493,"internal_node_id":"0.0-131.0","subject":"S1C0836","sona":"41650","block":3,"time":"2021-09-18T17:08:18.880Z","response":"1st","certainty":"high","char":"A","transposition":3,"order":["swapped","shifted"],"probe_pitches":[1,3,8,13,6,11,3,11],"shifted_pitches":[1,3,8,13,7,11,3,11],"swapped_pitches":[1,3,8,6,13,11,3,11],"shift_direction":1,"question_num":111,"has_decoy":false},{"rt":2252,"stimulus":"[A] option 1, [L] option 2, [G] neither","key_press":76,"name":"choice","trial_type":"html-keyboard-response","trial_index":142,"time_elapsed":319421,"internal_node_id":"0.0-142.0","subject":"S1C0836","sona":"41650","block":3,"time":"2021-09-18T17:08:18.880Z","response":"2nd","certainty":"high","char":"L","transposition":-3,"order":["swapped","shifted"],"probe_pitches":[3,-3,0,2,9,5,7,-1],"shifted_pitches":[3,-3,0,1,9,5,7,-1],"swapped_pitches":[3,-3,0,9,2,5,7,-1],"shift_direction":-1,"question_num":121,"has_decoy":false},{"rt":2119.2000000476837,"stimulus":"[A] option 1, [L] option 2, [G] neither","key_press":65,"name":"choice","trial_type":"html-keyboard-response","trial_index":153,"time_elapsed":338284,"internal_node_id":"0.0-153.0","subject":"S1C0836","sona":"41650","block":3,"time":"2021-09-18T17:08:18.880Z","response":"1st","certainty":"high","char":"A","transposition":-1,"order":["swapped","shifted"],"probe_pitches":[-2,0,6,-2,2,4,0,-3],"shifted_pitches":[-2,0,6,-1,2,4,0,-3],"swapped_pitches":[-2,0,6,2,-2,4,0,-3],"shift_direction":1,"question_num":131,"has_decoy":false},{"rt":2478.7999999523163,"stimulus":"[A] option 1, [L] option 2, [G] neither","key_press":76,"name":"choice","trial_type":"html-keyboard-response","trial_index":164,"time_elapsed":356373,"internal_node_id":"0.0-164.0","subject":"S1C0836","sona":"41650","block":3,"time":"2021-09-18T17:08:18.880Z","response":"2nd","certainty":"high","char":"L","transposition":1,"order":["shifted","swapped"],"probe_pitches":[-3,0,5,1,2,-3,6,2],"shifted_pitches":[-3,0,5,1,3,-3,6,2],"swapped_pitches":[-3,0,5,2,1,-3,6,2],"shift_direction":1,"question_num":141,"has_decoy":false},{"rt":1569.1000000238419,"stimulus":"[A] option 1, [L] option 2, [G] neither","key_press":65,"name":"choice","trial_type":"html-keyboard-response","trial_index":175,"time_elapsed":373694,"internal_node_id":"0.0-175.0","subject":"S1C0836","sona":"41650","block":3,"time":"2021-09-18T17:08:18.880Z","response":"1st","certainty":"high","char":"A","transposition":-3,"order":["shifted","swapped"],"probe_pitches":[5,9,5,7,-1,9,7,9],"shifted_pitches":[5,9,5,6,-1,9,7,9],"swapped_pitches":[5,9,5,-1,7,9,7,9],"shift_direction":-1,"question_num":151,"has_decoy":false},{"rt":2905.7000000476837,"stimulus":"[A] option 1, [L] option 2, [G] neither","key_press":65,"name":"choice","trial_type":"html-keyboard-response","trial_index":186,"time_elapsed":392543,"internal_node_id":"0.0-186.0","subject":"S1C0836","sona":"41650","block":3,"time":"2021-09-18T17:08:18.880Z","response":"1st","certainty":"high","char":"A","transposition":-2,"order":["swapped","shifted"],"probe_pitches":[7,1,6,1,3,-1,2,0],"shifted_pitches":[7,1,6,1,4,-1,2,0],"swapped_pitches":[7,1,6,3,1,-1,2,0],"shift_direction":1,"question_num":161,"has_decoy":false},{"rt":4810.5,"stimulus":"[A] option 1, [L] option 2, [G] neither","key_press":76,"name":"choice","trial_type":"html-keyboard-response","trial_index":197,"time_elapsed":413008,"internal_node_id":"0.0-197.0","subject":"S1C0836","sona":"41650","block":3,"time":"2021-09-18T17:08:18.880Z","response":"2nd","certainty":"high","char":"L","transposition":-2,"order":["swapped","shifted"],"probe_pitches":[-3,0,3,-3,1,-1,5,-3],"shifted_pitches":[-3,0,3,-3,2,-1,5,-3],"swapped_pitches":[-3,0,3,1,-3,-1,5,-3],"shift_direction":1,"question_num":171,"has_decoy":false},{"rt":3381.600000023842,"stimulus":"[A] option 1, [L] option 2, [G] neither","key_press":76,"name":"choice","trial_type":"html-keyboard-response","trial_index":208,"time_elapsed":432899,"internal_node_id":"0.0-208.0","subject":"S1C0836","sona":"41650","block":3,"time":"2021-09-18T17:08:18.880Z","response":"2nd","certainty":"high","char":"L","transposition":-3,"order":["swapped","shifted"],"probe_pitches":[1,3,8,10,1,3,6,10],"shifted_pitches":[1,3,8,11,1,3,6,10],"swapped_pitches":[1,3,8,1,10,3,6,10],"shift_direction":1,"question_num":181,"has_decoy":false},{"rt":1000.2999999523163,"stimulus":"[A] option 1, [L] option 2, [G] neither","key_press":76,"name":"choice","trial_type":"html-keyboard-response","trial_index":219,"time_elapsed":451088,"internal_node_id":"0.0-219.0","subject":"S1C0836","sona":"41650","block":3,"time":"2021-09-18T17:08:18.880Z","response":"2nd","certainty":"high","char":"L","transposition":2,"order":["swapped","shifted"],"probe_pitches":[9,11,13,9,1,11,4,6],"shifted_pitches":[9,11,13,8,1,11,4,6],"swapped_pitches":[9,11,13,1,9,11,4,6],"shift_direction":-1,"question_num":191,"has_decoy":false}]