[{"rt":1739.8000000715256,"stimulus":"[A] option 1, [L] option 2, [G] neither","key_press":76,"name":"choice","trial_type":"html-keyboard-response","trial_index":10,"time_elapsed":17943,"internal_node_id":"0.0-10.0","subject":"S1C0836","sona":"41650","block":4,"time":"2021-09-18T17:41:18.772Z","response":"2nd","certainty":"high","char":"L","transposition":-3,"order":["swapped","shifted"],"probe_pitches":[6,10,5,3,9,10,2,-2],"shifted_pitches":[6,10,5,3,8,10,2,-2],"swapped_pitches":[6,10,5,9,3,10,2,-2],"shift_direction":-1,"question_num":1,"has_decoy":false},{"rt":2389.600000023842,"stimulus":"[A] option 1, [L] option 2, [G] neither","key_press":65,"name":"choice","trial_type":"html-keyboard-response","trial_index":21,"time_elapsed":36103,"internal_node_id":"0.0-21.0","subject":"S1C0836","sona":"41650","block":4,"time":"2021-09-18T17:41:18.772Z","response":"1st","certainty":"high","char":"A","transposition":-2,"order":["swapped","shifted"],"probe_pitches":[9,10,5,7,0,-2,1,5],"shifted_pitches":[9,10,5,6,0,-2,1,5],"swapped_pitches":[9,10,5,0,7,-2,1,5],"shift_direction":-1,"question_num":11,"has_decoy":false},{"rt":2474.600000023842,"stimulus":"[A] option 1, [L] option 2, [G] neither","key_press":65,"name":"choice","trial_type":"html-keyboard-response","trial_index":32,"time_elapsed":58889,"internal_node_id":"0.0-32.0","subject":"S1C0836","sona":"41650","block":4,"time":"2021-09-18T17:41:18.772Z","response":"1st","certainty":"high","char":"A","transposition":1,"order":["swapped","shifted"],"probe_pitches":[6,10,8,10,6,7,2,3],"shifted_pitches":[6,10,8,10,5,7,2,3],"swapped_pitches":[6,10,8,6,10,7,2,3],"shift_direction":-1,"question_num":21,"has_decoy":false},{"rt":1632.9000000953674,"stimulus":"[A] option 1, [L] option 2, [G] neither","key_press":76,"name":"choice","trial_type":"html-keyboard-response","trial_index":43,"time_elapsed":206909,"internal_node_id":"0.0-43.0","subject":"S1C0836","sona":"41650","block":4,"time":"2021-09-18T17:41:18.772Z","response":"2nd","certainty":"high","char":"L","transposition":-1,"order":["shifted","swapped"],"probe_pitches":[-1,-2,3,1,9,5,1,-2],"shifted_pitches":[-1,-2,3,2,9,5,1,-2],"swapped_pitches":[-1,-2,3,9,1,5,1,-2],"shift_direction":1,"question_num":31,"has_decoy":false},{"rt":2496,"stimulus":"[A] option 1, [L] option 2, [G] neither","key_press":65,"name":"choice","trial_type":"html-keyboard-response","trial_index":54,"time_elapsed":224922,"internal_node_id":"0.0-54.0","subject":"S1C0836","sona":"41650","block":4,"time":"2021-09-18T17:41:18.772Z","response":"1st","certainty":"high","char":"A","transposition":-2,"order":["shifted","swapped"],"probe_pitches":[14,12,7,12,9,4,12,9],"shifted_pitches":[14,12,7,12,10,4,12,9],"swapped_pitches":[14,12,7,9,12,4,12,9],"shift_direction":1,"question_num":41,"has_decoy":false},{"rt":2196.7000000476837,"stimulus":"[A] option 1, [L] option 2, [G] neither","key_press":76,"name":"choice","trial_type":"html-keyboard-response","trial_index":65,"time_elapsed":242583,"internal_node_id":"0.0-65.0","subject":"S1C0836","sona":"41650","block":4,"time":"2021-09-18T17:41:18.772Z","response":"2nd","certainty":"high","char":"L","transposition":-2,"order":["swapped","shifted"],"probe_pitches":[9,14,9,11,2,6,14,4],"shifted_pitches":[9,14,9,11,3,6,14,4],"swapped_pitches":[9,14,9,2,11,6,14,4],"shift_direction":1,"question_num":51,"has_decoy":false},{"rt":4431.699999928474,"stimulus":"[A] option 1, [L] option 2, [G] neither","key_press":65,"name":"choice","trial_type":"html-keyboard-response","trial_index":76,"time_elapsed":262658,"internal_node_id":"0.0-76.0","subject":"S1C0836","sona":"41650","block":4,"time":"2021-09-18T17:41:18.772Z","response":"1st","certainty":"high","char":"A","transposition":3,"order":["shifted","swapped"],"probe_pitches":[7,8,9,1,3,2,7,8],"shifted_pitches":[7,8,9,1,4,2,7,8],"swapped_pitches":[7,8,9,3,1,2,7,8],"shift_direction":1,"question_num":61,"has_decoy":false},{"rt":2358.7000000476837,"stimulus":"[A] option 1, [L] option 2, [G] neither","key_press":76,"name":"choice","trial_type":"html-keyboard-response","trial_index":87,"time_elapsed":363783,"internal_node_id":"0.0-87.0","subject":"S1C0836","sona":"41650","block":4,"time":"2021-09-18T17:41:18.772Z","response":"2nd","certainty":"high","char":"L","transposition":-3,"order":["shifted","swapped"],"probe_pitches":[5,9,5,7,2,9,7,12],"shifted_pitches":[5,9,5,7,3,9,7,12],"swapped_pitches":[5,9,5,2,7,9,7,12],"shift_direction":1,"question_num":71,"has_decoy":false},{"rt":1882.9000000953674,"stimulus":"[A] option 1, [L] option 2, [G] neither","key_press":65,"name":"choice","trial_type":"html-keyboard-response","trial_index":98,"time_elapsed":499569,"internal_node_id":"0.0-98.0","subject":"S1C0836","sona":"41650","block":4,"time":"2021-09-18T17:41:18.772Z","response":"1st","certainty":"high","char":"A","transposition":0,"order":["swapped","shifted"],"probe_pitches":[10,12,14,7,2,5,12,5],"shifted_pitches":[10,12,14,7,3,5,12,5],"swapped_pitches":[10,12,14,2,7,5,12,5],"shift_direction":1,"question_num":81,"has_decoy":false},{"rt":1821.6999999284744,"stimulus":"[A] option 1, [L] option 2, [G] neither","key_press":76,"name":"choice","trial_type":"html-keyboard-response","trial_index":109,"time_elapsed":516517,"internal_node_id":"0.0-109.0","subject":"S1C0836","sona":"41650","block":4,"time":"2021-09-18T17:41:18.772Z","response":"2nd","certainty":"high","char":"L","transposition":-2,"order":["shifted","swapped"],"probe_pitches":[8,7,2,7,8,6,10,4],"shifted_pitches":[8,7,2,7,9,6,10,4],"swapped_pitches":[8,7,2,8,7,6,10,4],"shift_direction":1,"question_num":91,"has_decoy":false},{"rt":1117.1000000238419,"stimulus":"[A] option 1, [L] option 2, [G] neither","key_press":76,"name":"choice","trial_type":"html-keyboard-response","trial_index":120,"time_elapsed":532653,"internal_node_id":"0.0-120.0","subject":"S1C0836","sona":"41650","block":4,"time":"2021-09-18T17:41:18.772Z","response":"2nd","certainty":"high","char":"L","transposition":-1,"order":["shifted","swapped"],"probe_pitches":[5,2,3,-1,8,5,6,4],"shifted_pitches":[5,2,3,0,8,5,6,4],"swapped_pitches":[5,2,3,8,-1,5,6,4],"shift_direction":1,"question_num":101,"has_decoy":false},{"rt":1091.6000000238419,"stimulus":"[A] option 1, [L] option 2, [G] neither","key_press":65,"name":"choice","trial_type":"html-keyboard-response","trial_index":131,"time_elapsed":548759,"internal_node_id":"0.0-131.0","subject":"S1C0836","sona":"41650","block":4,"time":"2021-09-18T17:41:18.772Z","response":"1st","certainty":"high","char":"A","transposition":-3,"order":["shifted","swapped"],"probe_pitches":[2,7,5,2,7,5,9,12],"shifted_pitches":[2,7,5,1,7,5,9,12],"swapped_pitches":[2,7,5,7,2,5,9,12],"shift_direction":-1,"question_num":111,"has_decoy":false},{"rt":1814,"stimulus":"[A] option 1, [L] option 2, [G] neither","key_press":65,"name":"choice","trial_type":"html-keyboard-response","trial_index":142,"time_elapsed":567611,"internal_node_id":"0.0-142.0","subject":"S1C0836","sona":"41650","block":4,"time":"2021-09-18T17:41:18.772Z","response":"1st","certainty":"high","char":"A","transposition":-1,"order":["swapped","shifted"],"probe_pitches":[14,11,7,2,11,7,9,4],"shifted_pitches":[14,11,7,3,11,7,9,4],"swapped_pitches":[14,11,7,11,2,7,9,4],"shift_direction":1,"question_num":121,"has_decoy":false},{"rt":2282.100000023842,"stimulus":"[A] option 1, [L] option 2, [G] neither","key_press":65,"name":"choice","trial_type":"html-keyboard-response","trial_index":153,"time_elapsed":585229,"internal_node_id":"0.0-153.0","subject":"S1C0836","sona":"41650","block":4,"time":"2021-09-18T17:41:18.772Z","response":"1st","certainty":"high","char":"A","transposition":2,"order":["shifted","swapped"],"probe_pitches":[7,2,-2,2,0,5,-1,7],"shifted_pitches":[7,2,-2,1,0,5,-1,7],"swapped_pitches":[7,2,-2,0,2,5,-1,7],"shift_direction":-1,"question_num":131,"has_decoy":false},{"rt":1820,"stimulus":"[A] option 1, [L] option 2, [G] neither","key_press":76,"name":"choice","trial_type":"html-keyboard-response","trial_index":164,"time_elapsed":603227,"internal_node_id":"0.0-164.0","subject":"S1C0836","sona":"41650","block":4,"time":"2021-09-18T17:41:18.772Z","response":"2nd","certainty":"high","char":"L","transposition":3,"order":["shifted","swapped"],"probe_pitches":[10,5,2,7,14,12,14,5],"shifted_pitches":[10,5,2,6,14,12,14,5],"swapped_pitches":[10,5,2,14,7,12,14,5],"shift_direction":-1,"question_num":141,"has_decoy":false},{"rt":1858.5,"stimulus":"[A] option 1, [L] option 2, [G] neither","key_press":65,"name":"choice","trial_type":"html-keyboard-response","trial_index":175,"time_elapsed":620135,"internal_node_id":"0.0-175.0","subject":"S1C0836","sona":"41650","block":4,"time":"2021-09-18T17:41:18.772Z","response":"1st","certainty":"high","char":"A","transposition":2,"order":["swapped","shifted"],"probe_pitches":[4,9,14,9,12,2,12,7],"shifted_pitches":[4,9,14,8,12,2,12,7],"swapped_pitches":[4,9,14,12,9,2,12,7],"shift_direction":-1,"question_num":151,"has_decoy":false},{"rt":1412.2000000476837,"stimulus":"[A] option 1, [L] option 2, [G] neither","key_press":76,"name":"choice","trial_type":"html-keyboard-response","trial_index":186,"time_elapsed":637068,"internal_node_id":"0.0-186.0","subject":"S1C0836","sona":"41650","block":4,"time":"2021-09-18T17:41:18.772Z","response":"2nd","certainty":"high","char":"L","transposition":1,"order":["swapped","shifted"],"probe_pitches":[2,4,9,7,4,14,11,4],"shifted_pitches":[2,4,9,6,4,14,11,4],"swapped_pitches":[2,4,9,4,7,14,11,4],"shift_direction":-1,"question_num":161,"has_decoy":false},{"rt":1808.1000000238419,"stimulus":"[A] option 1, [L] option 2, [G] neither","key_press":71,"name":"choice","trial_type":"html-keyboard-response","trial_index":197,"time_elapsed":654285,"internal_node_id":"0.0-197.0","subject":"S1C0836","sona":"41650","block":4,"time":"2021-09-18T17:41:18.772Z","response":"neither","certainty":"high","char":"G","transposition":0,"order":["swapped","shifted"],"probe_pitches":[-2,1,3,9,6,10,1,6],"shifted_pitches":[-2,1,3,9,7,10,1,6],"swapped_pitches":[-2,1,3,6,9,10,1,6],"shift_direction":1,"question_num":171,"has_decoy":false},{"rt":1159.7000000476837,"stimulus":"[A] option 1, [L] option 2, [G] neither","key_press":76,"name":"choice","trial_type":"html-keyboard-response","trial_index":208,"time_elapsed":670846,"internal_node_id":"0.0-208.0","subject":"S1C0836","sona":"41650","block":4,"time":"2021-09-18T17:41:18.772Z","response":"2nd","certainty":"high","char":"L","transposition":-3,"order":["swapped","shifted"],"probe_pitches":[10,8,5,4,6,-1,-2,9],"shifted_pitches":[10,8,5,3,6,-1,-2,9],"swapped_pitches":[10,8,5,6,4,-1,-2,9],"shift_direction":-1,"question_num":181,"has_decoy":false},{"rt":1393.1000000238419,"stimulus":"[A] option 1, [L] option 2, [G] neither","key_press":76,"name":"choice","trial_type":"html-keyboard-response","trial_index":219,"time_elapsed":687349,"internal_node_id":"0.0-219.0","subject":"S1C0836","sona":"41650","block":4,"time":"2021-09-18T17:41:18.772Z","response":"2nd","certainty":"high","char":"L","transposition":-1,"order":["shifted","swapped"],"probe_pitches":[4,2,6,4,11,6,9,4],"shifted_pitches":[4,2,6,4,10,6,9,4],"swapped_pitches":[4,2,6,11,4,6,9,4],"shift_direction":-1,"question_num":191,"has_decoy":false}]