[{"rt":2088.399999976158,"stimulus":"[A] option 1, [L] option 2, [G] neither","key_press":76,"name":"choice","trial_type":"html-keyboard-response","trial_index":10,"time_elapsed":18664,"internal_node_id":"0.0-10.0","subject":"S1C0836","sona":"41650","block":6,"time":"2021-09-18T17:53:17.705Z","response":"2nd","certainty":"high","char":"L","transposition":1,"order":["shifted","swapped"],"probe_pitches":[4,2,0,-1,6,10,11,2],"shifted_pitches":[4,2,0,-1,5,10,11,2],"swapped_pitches":[4,2,0,6,-1,10,11,2],"shift_direction":-1,"question_num":1,"has_decoy":false},{"rt":1578.1000000238419,"stimulus":"[A] option 1, [L] option 2, [G] neither","key_press":76,"name":"choice","trial_type":"html-keyboard-response","trial_index":21,"time_elapsed":35784,"internal_node_id":"0.0-21.0","subject":"S1C0836","sona":"41650","block":6,"time":"2021-09-18T17:53:17.705Z","response":"2nd","certainty":"high","char":"L","transposition":-3,"order":["swapped","shifted"],"probe_pitches":[10,5,9,1,3,6,1,-1],"shifted_pitches":[10,5,9,2,3,6,1,-1],"swapped_pitches":[10,5,9,3,1,6,1,-1],"shift_direction":1,"question_num":11,"has_decoy":false},{"rt":1218.3999999761581,"stimulus":"[A] option 1, [L] option 2, [G] neither","key_press":76,"name":"choice","trial_type":"html-keyboard-response","trial_index":32,"time_elapsed":52064,"internal_node_id":"0.0-32.0","subject":"S1C0836","sona":"41650","block":6,"time":"2021-09-18T17:53:17.705Z","response":"2nd","certainty":"high","char":"L","transposition":-1,"order":["swapped","shifted"],"probe_pitches":[5,9,3,9,1,5,1,3],"shifted_pitches":[5,9,3,8,1,5,1,3],"swapped_pitches":[5,9,3,1,9,5,1,3],"shift_direction":-1,"question_num":21,"has_decoy":false},{"rt":2268.7000000476837,"stimulus":"[A] option 1, [L] option 2, [G] neither","key_press":65,"name":"choice","trial_type":"html-keyboard-response","trial_index":43,"time_elapsed":69964,"internal_node_id":"0.0-43.0","subject":"S1C0836","sona":"41650","block":6,"time":"2021-09-18T17:53:17.705Z","response":"1st","certainty":"high","char":"A","transposition":3,"order":["shifted","swapped"],"probe_pitches":[8,5,11,8,2,6,10,-1],"shifted_pitches":[8,5,11,9,2,6,10,-1],"swapped_pitches":[8,5,11,2,8,6,10,-1],"shift_direction":1,"question_num":31,"has_decoy":false},{"rt":2138,"stimulus":"[A] option 1, [L] option 2, [G] neither","key_press":76,"name":"choice","trial_type":"html-keyboard-response","trial_index":54,"time_elapsed":89474,"internal_node_id":"0.0-54.0","subject":"S1C0836","sona":"41650","block":6,"time":"2021-09-18T17:53:17.705Z","response":"2nd","certainty":"high","char":"L","transposition":-3,"order":["shifted","swapped"],"probe_pitches":[10,9,5,1,6,9,0,4],"shifted_pitches":[10,9,5,1,7,9,0,4],"swapped_pitches":[10,9,5,6,1,9,0,4],"shift_direction":1,"question_num":41,"has_decoy":false},{"rt":926.7999999523163,"stimulus":"[A] option 1, [L] option 2, [G] neither","key_press":76,"name":"choice","trial_type":"html-keyboard-response","trial_index":65,"time_elapsed":105582,"internal_node_id":"0.0-65.0","subject":"S1C0836","sona":"41650","block":6,"time":"2021-09-18T17:53:17.705Z","response":"2nd","certainty":"high","char":"L","transposition":2,"order":["shifted","swapped"],"probe_pitches":[11,8,11,4,6,8,1,11],"shifted_pitches":[11,8,11,5,6,8,1,11],"swapped_pitches":[11,8,11,6,4,8,1,11],"shift_direction":1,"question_num":51,"has_decoy":false},{"rt":1564.7999999523163,"stimulus":"[A] option 1, [L] option 2, [G] neither","key_press":65,"name":"choice","trial_type":"html-keyboard-response","trial_index":76,"time_elapsed":122700,"internal_node_id":"0.0-76.0","subject":"S1C0836","sona":"41650","block":6,"time":"2021-09-18T17:53:17.705Z","response":"1st","certainty":"high","char":"A","transposition":-2,"order":["swapped","shifted"],"probe_pitches":[0,4,2,8,9,6,9,6],"shifted_pitches":[0,4,2,8,10,6,9,6],"swapped_pitches":[0,4,2,9,8,6,9,6],"shift_direction":1,"question_num":61,"has_decoy":false},{"rt":1051.6999999284744,"stimulus":"[A] option 1, [L] option 2, [G] neither","key_press":76,"name":"choice","trial_type":"html-keyboard-response","trial_index":87,"time_elapsed":139387,"internal_node_id":"0.0-87.0","subject":"S1C0836","sona":"41650","block":6,"time":"2021-09-18T17:53:17.705Z","response":"2nd","certainty":"high","char":"L","transposition":-1,"order":["swapped","shifted"],"probe_pitches":[6,9,11,6,-1,1,-1,4],"shifted_pitches":[6,9,11,6,0,1,-1,4],"swapped_pitches":[6,9,11,-1,6,1,-1,4],"shift_direction":1,"question_num":71,"has_decoy":false},{"rt":1088.2000000476837,"stimulus":"[A] option 1, [L] option 2, [G] neither","key_press":76,"name":"choice","trial_type":"html-keyboard-response","trial_index":98,"time_elapsed":155774,"internal_node_id":"0.0-98.0","subject":"S1C0836","sona":"41650","block":6,"time":"2021-09-18T17:53:17.705Z","response":"2nd","certainty":"high","char":"L","transposition":1,"order":["shifted","swapped"],"probe_pitches":[11,7,2,-1,4,2,-1,9],"shifted_pitches":[11,7,2,0,4,2,-1,9],"swapped_pitches":[11,7,2,4,-1,2,-1,9],"shift_direction":1,"question_num":81,"has_decoy":false},{"rt":1569.6999999284744,"stimulus":"[A] option 1, [L] option 2, [G] neither","key_press":65,"name":"choice","trial_type":"html-keyboard-response","trial_index":109,"time_elapsed":172465,"internal_node_id":"0.0-109.0","subject":"S1C0836","sona":"41650","block":6,"time":"2021-09-18T17:53:17.705Z","response":"1st","certainty":"high","char":"A","transposition":-3,"order":["swapped","shifted"],"probe_pitches":[-1,4,-1,6,8,-1,8,1],"shifted_pitches":[-1,4,-1,6,7,-1,8,1],"swapped_pitches":[-1,4,-1,8,6,-1,8,1],"shift_direction":-1,"question_num":91,"has_decoy":false},{"rt":2146.5,"stimulus":"[A] option 1, [L] option 2, [G] neither","key_press":76,"name":"choice","trial_type":"html-keyboard-response","trial_index":120,"time_elapsed":190082,"internal_node_id":"0.0-120.0","subject":"S1C0836","sona":"41650","block":6,"time":"2021-09-18T17:53:17.705Z","response":"2nd","certainty":"high","char":"L","transposition":0,"order":["swapped","shifted"],"probe_pitches":[8,6,11,3,1,8,3,1],"shifted_pitches":[8,6,11,2,1,8,3,1],"swapped_pitches":[8,6,11,1,3,8,3,1],"shift_direction":-1,"question_num":101,"has_decoy":false},{"rt":1370.3000000715256,"stimulus":"[A] option 1, [L] option 2, [G] neither","key_press":65,"name":"choice","trial_type":"html-keyboard-response","trial_index":131,"time_elapsed":207047,"internal_node_id":"0.0-131.0","subject":"S1C0836","sona":"41650","block":6,"time":"2021-09-18T17:53:17.705Z","response":"1st","certainty":"high","char":"A","transposition":0,"order":["shifted","swapped"],"probe_pitches":[4,6,8,2,1,7,5,0],"shifted_pitches":[4,6,8,3,1,7,5,0],"swapped_pitches":[4,6,8,1,2,7,5,0],"shift_direction":1,"question_num":111,"has_decoy":false},{"rt":2785,"stimulus":"[A] option 1, [L] option 2, [G] neither","key_press":76,"name":"choice","trial_type":"html-keyboard-response","trial_index":142,"time_elapsed":225150,"internal_node_id":"0.0-142.0","subject":"S1C0836","sona":"41650","block":6,"time":"2021-09-18T17:53:17.705Z","response":"2nd","certainty":"high","char":"L","transposition":-2,"order":["shifted","swapped"],"probe_pitches":[2,6,-1,2,9,4,6,4],"shifted_pitches":[2,6,-1,1,9,4,6,4],"swapped_pitches":[2,6,-1,9,2,4,6,4],"shift_direction":-1,"question_num":121,"has_decoy":false},{"rt":1443.1000000238419,"stimulus":"[A] option 1, [L] option 2, [G] neither","key_press":65,"name":"choice","trial_type":"html-keyboard-response","trial_index":153,"time_elapsed":242008,"internal_node_id":"0.0-153.0","subject":"S1C0836","sona":"41650","block":6,"time":"2021-09-18T17:53:17.705Z","response":"1st","certainty":"high","char":"A","transposition":-3,"order":["shifted","swapped"],"probe_pitches":[1,-1,6,-1,3,8,1,6],"shifted_pitches":[1,-1,6,-1,2,8,1,6],"swapped_pitches":[1,-1,6,3,-1,8,1,6],"shift_direction":-1,"question_num":131,"has_decoy":false},{"rt":1294.8999999761581,"stimulus":"[A] option 1, [L] option 2, [G] neither","key_press":76,"name":"choice","trial_type":"html-keyboard-response","trial_index":164,"time_elapsed":258770,"internal_node_id":"0.0-164.0","subject":"S1C0836","sona":"41650","block":6,"time":"2021-09-18T17:53:17.705Z","response":"2nd","certainty":"high","char":"L","transposition":3,"order":["swapped","shifted"],"probe_pitches":[11,7,2,4,9,11,2,-1],"shifted_pitches":[11,7,2,5,9,11,2,-1],"swapped_pitches":[11,7,2,9,4,11,2,-1],"shift_direction":1,"question_num":141,"has_decoy":false},{"rt":1638,"stimulus":"[A] option 1, [L] option 2, [G] neither","key_press":65,"name":"choice","trial_type":"html-keyboard-response","trial_index":175,"time_elapsed":276034,"internal_node_id":"0.0-175.0","subject":"S1C0836","sona":"41650","block":6,"time":"2021-09-18T17:53:17.705Z","response":"1st","certainty":"high","char":"A","transposition":-1,"order":["swapped","shifted"],"probe_pitches":[2,4,5,2,7,11,6,7],"shifted_pitches":[2,4,5,1,7,11,6,7],"swapped_pitches":[2,4,5,7,2,11,6,7],"shift_direction":-1,"question_num":151,"has_decoy":false},{"rt":1690.5,"stimulus":"[A] option 1, [L] option 2, [G] neither","key_press":65,"name":"choice","trial_type":"html-keyboard-response","trial_index":186,"time_elapsed":292946,"internal_node_id":"0.0-186.0","subject":"S1C0836","sona":"41650","block":6,"time":"2021-09-18T17:53:17.705Z","response":"1st","certainty":"high","char":"A","transposition":-2,"order":["shifted","swapped"],"probe_pitches":[7,1,7,2,5,7,10,1],"shifted_pitches":[7,1,7,2,4,7,10,1],"swapped_pitches":[7,1,7,5,2,7,10,1],"shift_direction":-1,"question_num":161,"has_decoy":false},{"rt":377.5,"stimulus":"[A] option 1, [L] option 2, [G] neither","key_press":76,"name":"choice","trial_type":"html-keyboard-response","trial_index":197,"time_elapsed":308664,"internal_node_id":"0.0-197.0","subject":"S1C0836","sona":"41650","block":6,"time":"2021-09-18T17:53:17.705Z","response":"2nd","certainty":"high","char":"L","transposition":2,"order":["swapped","shifted"],"probe_pitches":[7,3,-1,3,7,8,9,10],"shifted_pitches":[7,3,-1,3,6,8,9,10],"swapped_pitches":[7,3,-1,7,3,8,9,10],"shift_direction":-1,"question_num":171,"has_decoy":false},{"rt":1273.7000000476837,"stimulus":"[A] option 1, [L] option 2, [G] neither","key_press":65,"name":"choice","trial_type":"html-keyboard-response","trial_index":208,"time_elapsed":325070,"internal_node_id":"0.0-208.0","subject":"S1C0836","sona":"41650","block":6,"time":"2021-09-18T17:53:17.705Z","response":"1st","certainty":"high","char":"A","transposition":-1,"order":["shifted","swapped"],"probe_pitches":[9,4,11,6,4,1,9,-1],"shifted_pitches":[9,4,11,6,5,1,9,-1],"swapped_pitches":[9,4,11,4,6,1,9,-1],"shift_direction":1,"question_num":181,"has_decoy":false},{"rt":1213.6000000238419,"stimulus":"[A] option 1, [L] option 2, [G] neither","key_press":76,"name":"choice","trial_type":"html-keyboard-response","trial_index":219,"time_elapsed":342010,"internal_node_id":"0.0-219.0","subject":"S1C0836","sona":"41650","block":6,"time":"2021-09-18T17:53:17.705Z","response":"2nd","certainty":"high","char":"L","transposition":-2,"order":["swapped","shifted"],"probe_pitches":[2,-1,2,4,11,9,6,9],"shifted_pitches":[2,-1,2,4,10,9,6,9],"swapped_pitches":[2,-1,2,11,4,9,6,9],"shift_direction":-1,"question_num":191,"has_decoy":false}]