[{"rt":4109.799999952316,"stimulus":"[A] option 1, [L] option 2, [G] neither","key_press":65,"name":"choice","trial_type":"html-keyboard-response","trial_index":10,"time_elapsed":22895,"internal_node_id":"0.0-10.0","subject":"S1C0836","sona":"41650","block":2,"time":"2021-09-18T16:52:06.789Z","response":"1st","certainty":"high","char":"A","transposition":2,"order":["swapped","shifted"],"probe_pitches":[13,10,15,13,5,15,8,15],"shifted_pitches":[13,10,15,13,6,15,8,15],"swapped_pitches":[13,10,15,5,13,15,8,15],"shift_direction":1,"question_num":1,"has_decoy":false},{"rt":1621.5999999046326,"stimulus":"[A] option 1, [L] option 2, [G] neither","key_press":65,"name":"choice","trial_type":"html-keyboard-response","trial_index":21,"time_elapsed":40547,"internal_node_id":"0.0-21.0","subject":"S1C0836","sona":"41650","block":2,"time":"2021-09-18T16:52:06.789Z","response":"1st","certainty":"high","char":"A","transposition":-2,"order":["shifted","swapped"],"probe_pitches":[3,7,10,12,3,10,5,3],"shifted_pitches":[3,7,10,12,4,10,5,3],"swapped_pitches":[3,7,10,3,12,10,5,3],"shift_direction":1,"question_num":11,"has_decoy":false},{"rt":1465.6999999284744,"stimulus":"[A] option 1, [L] option 2, [G] neither","key_press":71,"name":"choice","trial_type":"html-keyboard-response","trial_index":32,"time_elapsed":58150,"internal_node_id":"0.0-32.0","subject":"S1C0836","sona":"41650","block":2,"time":"2021-09-18T16:52:06.789Z","response":"neither","certainty":"high","char":"G","transposition":-2,"order":["shifted","swapped"],"probe_pitches":[6,3,8,10,11,13,8,6],"shifted_pitches":[6,3,8,9,11,13,8,6],"swapped_pitches":[6,3,8,11,10,13,8,6],"shift_direction":-1,"question_num":21,"has_decoy":false},{"rt":915.8999999761581,"stimulus":"[A] option 1, [L] option 2, [G] neither","key_press":76,"name":"choice","trial_type":"html-keyboard-response","trial_index":43,"time_elapsed":74591,"internal_node_id":"0.0-43.0","subject":"S1C0836","sona":"41650","block":2,"time":"2021-09-18T16:52:06.789Z","response":"2nd","certainty":"high","char":"L","transposition":-3,"order":["swapped","shifted"],"probe_pitches":[11,5,10,11,8,14,4,14],"shifted_pitches":[11,5,10,12,8,14,4,14],"swapped_pitches":[11,5,10,8,11,14,4,14],"shift_direction":1,"question_num":31,"has_decoy":false},{"rt":2654,"stimulus":"[A] option 1, [L] option 2, [G] neither","key_press":76,"name":"choice","trial_type":"html-keyboard-response","trial_index":54,"time_elapsed":92397,"internal_node_id":"0.0-54.0","subject":"S1C0836","sona":"41650","block":2,"time":"2021-09-18T16:52:06.789Z","response":"2nd","certainty":"high","char":"L","transposition":0,"order":["swapped","shifted"],"probe_pitches":[9,12,15,9,14,15,13,4],"shifted_pitches":[9,12,15,8,14,15,13,4],"swapped_pitches":[9,12,15,14,9,15,13,4],"shift_direction":-1,"question_num":41,"has_decoy":false},{"rt":1228.8000000715256,"stimulus":"[A] option 1, [L] option 2, [G] neither","key_press":65,"name":"choice","trial_type":"html-keyboard-response","trial_index":65,"time_elapsed":109843,"internal_node_id":"0.0-65.0","subject":"S1C0836","sona":"41650","block":2,"time":"2021-09-18T16:52:06.789Z","response":"1st","certainty":"high","char":"A","transposition":-1,"order":["swapped","shifted"],"probe_pitches":[8,14,11,15,6,13,4,9],"shifted_pitches":[8,14,11,15,7,13,4,9],"swapped_pitches":[8,14,11,6,15,13,4,9],"shift_direction":1,"question_num":51,"has_decoy":false},{"rt":1963.6000000238419,"stimulus":"[A] option 1, [L] option 2, [G] neither","key_press":76,"name":"choice","trial_type":"html-keyboard-response","trial_index":76,"time_elapsed":127177,"internal_node_id":"0.0-76.0","subject":"S1C0836","sona":"41650","block":2,"time":"2021-09-18T16:52:06.789Z","response":"2nd","certainty":"high","char":"L","transposition":-2,"order":["shifted","swapped"],"probe_pitches":[15,12,5,12,10,5,3,8],"shifted_pitches":[15,12,5,13,10,5,3,8],"swapped_pitches":[15,12,5,10,12,5,3,8],"shift_direction":1,"question_num":61,"has_decoy":false},{"rt":1255.7000000476837,"stimulus":"[A] option 1, [L] option 2, [G] neither","key_press":76,"name":"choice","trial_type":"html-keyboard-response","trial_index":87,"time_elapsed":143860,"internal_node_id":"0.0-87.0","subject":"S1C0836","sona":"41650","block":2,"time":"2021-09-18T16:52:06.789Z","response":"2nd","certainty":"high","char":"L","transposition":3,"order":["shifted","swapped"],"probe_pitches":[15,13,11,13,6,3,8,13],"shifted_pitches":[15,13,11,13,5,3,8,13],"swapped_pitches":[15,13,11,6,13,3,8,13],"shift_direction":-1,"question_num":71,"has_decoy":false},{"rt":2003.5,"stimulus":"[A] option 1, [L] option 2, [G] neither","key_press":65,"name":"choice","trial_type":"html-keyboard-response","trial_index":98,"time_elapsed":160929,"internal_node_id":"0.0-98.0","subject":"S1C0836","sona":"41650","block":2,"time":"2021-09-18T16:52:06.789Z","response":"1st","certainty":"high","char":"A","transposition":1,"order":["shifted","swapped"],"probe_pitches":[7,4,3,10,15,14,4,10],"shifted_pitches":[7,4,3,11,15,14,4,10],"swapped_pitches":[7,4,3,15,10,14,4,10],"shift_direction":1,"question_num":81,"has_decoy":false},{"rt":2811.399999976158,"stimulus":"[A] option 1, [L] option 2, [G] neither","key_press":71,"name":"choice","trial_type":"html-keyboard-response","trial_index":109,"time_elapsed":180475,"internal_node_id":"0.0-109.0","subject":"S1C0836","sona":"41650","block":2,"time":"2021-09-18T16:52:06.789Z","response":"neither","certainty":"high","char":"G","transposition":1,"order":["swapped","shifted"],"probe_pitches":[8,5,3,10,13,8,5,13],"shifted_pitches":[8,5,3,9,13,8,5,13],"swapped_pitches":[8,5,3,13,10,8,5,13],"shift_direction":-1,"question_num":91,"has_decoy":false},{"rt":1246.2000000476837,"stimulus":"[A] option 1, [L] option 2, [G] neither","key_press":76,"name":"choice","trial_type":"html-keyboard-response","trial_index":120,"time_elapsed":198130,"internal_node_id":"0.0-120.0","subject":"S1C0836","sona":"41650","block":2,"time":"2021-09-18T16:52:06.789Z","response":"2nd","certainty":"high","char":"L","transposition":-3,"order":["shifted","swapped"],"probe_pitches":[15,10,12,15,8,12,5,8],"shifted_pitches":[15,10,12,14,8,12,5,8],"swapped_pitches":[15,10,12,8,15,12,5,8],"shift_direction":-1,"question_num":101,"has_decoy":false},{"rt":2971.399999976158,"stimulus":"[A] option 1, [L] option 2, [G] neither","key_press":65,"name":"choice","trial_type":"html-keyboard-response","trial_index":131,"time_elapsed":216377,"internal_node_id":"0.0-131.0","subject":"S1C0836","sona":"41650","block":2,"time":"2021-09-18T16:52:06.789Z","response":"1st","certainty":"high","char":"A","transposition":-3,"order":["shifted","swapped"],"probe_pitches":[13,8,13,10,6,8,13,15],"shifted_pitches":[13,8,13,11,6,8,13,15],"swapped_pitches":[13,8,13,6,10,8,13,15],"shift_direction":1,"question_num":111,"has_decoy":false},{"rt":2128.399999976158,"stimulus":"[A] option 1, [L] option 2, [G] neither","key_press":76,"name":"choice","trial_type":"html-keyboard-response","trial_index":142,"time_elapsed":235425,"internal_node_id":"0.0-142.0","subject":"S1C0836","sona":"41650","block":2,"time":"2021-09-18T16:52:06.789Z","response":"2nd","certainty":"high","char":"L","transposition":-1,"order":["shifted","swapped"],"probe_pitches":[15,11,8,15,7,11,5,8],"shifted_pitches":[15,11,8,15,6,11,5,8],"swapped_pitches":[15,11,8,7,15,11,5,8],"shift_direction":-1,"question_num":121,"has_decoy":false},{"rt":2347.2999999523163,"stimulus":"[A] option 1, [L] option 2, [G] neither","key_press":76,"name":"choice","trial_type":"html-keyboard-response","trial_index":153,"time_elapsed":253544,"internal_node_id":"0.0-153.0","subject":"S1C0836","sona":"41650","block":2,"time":"2021-09-18T16:52:06.789Z","response":"2nd","certainty":"high","char":"L","transposition":-1,"order":["swapped","shifted"],"probe_pitches":[11,13,6,8,15,6,11,6],"shifted_pitches":[11,13,6,8,14,6,11,6],"swapped_pitches":[11,13,6,15,8,6,11,6],"shift_direction":-1,"question_num":131,"has_decoy":false},{"rt":1909.5,"stimulus":"[A] option 1, [L] option 2, [G] neither","key_press":65,"name":"choice","trial_type":"html-keyboard-response","trial_index":164,"time_elapsed":271226,"internal_node_id":"0.0-164.0","subject":"S1C0836","sona":"41650","block":2,"time":"2021-09-18T16:52:06.789Z","response":"1st","certainty":"high","char":"A","transposition":0,"order":["swapped","shifted"],"probe_pitches":[3,8,10,6,8,15,13,6],"shifted_pitches":[3,8,10,6,7,15,13,6],"swapped_pitches":[3,8,10,8,6,15,13,6],"shift_direction":-1,"question_num":141,"has_decoy":false},{"rt":2779.1999999284744,"stimulus":"[A] option 1, [L] option 2, [G] neither","key_press":76,"name":"choice","trial_type":"html-keyboard-response","trial_index":175,"time_elapsed":289596,"internal_node_id":"0.0-175.0","subject":"S1C0836","sona":"41650","block":2,"time":"2021-09-18T16:52:06.789Z","response":"2nd","certainty":"high","char":"L","transposition":-2,"order":["shifted","swapped"],"probe_pitches":[11,5,10,11,15,5,4,10],"shifted_pitches":[11,5,10,11,14,5,4,10],"swapped_pitches":[11,5,10,15,11,5,4,10],"shift_direction":-1,"question_num":151,"has_decoy":false},{"rt":3598.600000023842,"stimulus":"[A] option 1, [L] option 2, [G] neither","key_press":76,"name":"choice","trial_type":"html-keyboard-response","trial_index":186,"time_elapsed":310015,"internal_node_id":"0.0-186.0","subject":"S1C0836","sona":"41650","block":2,"time":"2021-09-18T16:52:06.789Z","response":"2nd","certainty":"high","char":"L","transposition":-3,"order":["shifted","swapped"],"probe_pitches":[7,4,6,8,12,6,5,12],"shifted_pitches":[7,4,6,8,13,6,5,12],"swapped_pitches":[7,4,6,12,8,6,5,12],"shift_direction":1,"question_num":161,"has_decoy":false},{"rt":2596.899999976158,"stimulus":"[A] option 1, [L] option 2, [G] neither","key_press":65,"name":"choice","trial_type":"html-keyboard-response","trial_index":197,"time_elapsed":328201,"internal_node_id":"0.0-197.0","subject":"S1C0836","sona":"41650","block":2,"time":"2021-09-18T16:52:06.789Z","response":"1st","certainty":"high","char":"A","transposition":2,"order":["swapped","shifted"],"probe_pitches":[4,3,6,13,11,8,5,11],"shifted_pitches":[4,3,6,13,10,8,5,11],"swapped_pitches":[4,3,6,11,13,8,5,11],"shift_direction":-1,"question_num":171,"has_decoy":false},{"rt":2126,"stimulus":"[A] option 1, [L] option 2, [G] neither","key_press":76,"name":"choice","trial_type":"html-keyboard-response","trial_index":208,"time_elapsed":345510,"internal_node_id":"0.0-208.0","subject":"S1C0836","sona":"41650","block":2,"time":"2021-09-18T16:52:06.789Z","response":"2nd","certainty":"high","char":"L","transposition":-1,"order":["swapped","shifted"],"probe_pitches":[10,5,3,7,5,12,10,15],"shifted_pitches":[10,5,3,8,5,12,10,15],"swapped_pitches":[10,5,3,5,7,12,10,15],"shift_direction":1,"question_num":181,"has_decoy":false},{"rt":1558.8000000715256,"stimulus":"[A] option 1, [L] option 2, [G] neither","key_press":65,"name":"choice","trial_type":"html-keyboard-response","trial_index":219,"time_elapsed":362264,"internal_node_id":"0.0-219.0","subject":"S1C0836","sona":"41650","block":2,"time":"2021-09-18T16:52:06.789Z","response":"1st","certainty":"high","char":"A","transposition":3,"order":["swapped","shifted"],"probe_pitches":[4,9,12,4,9,14,3,15],"shifted_pitches":[4,9,12,5,9,14,3,15],"swapped_pitches":[4,9,12,9,4,14,3,15],"shift_direction":1,"question_num":191,"has_decoy":false}]