[{"rt":6761,"stimulus":"[A] option 1, [L] option 2, [G] neither","key_press":71,"name":"choice","trial_type":"html-keyboard-response","trial_index":10,"time_elapsed":27164,"internal_node_id":"0.0-10.0","subject":"S1C1216","sona":"41596","block":6,"time":"2021-09-19T00:55:54.891Z","response":"neither","certainty":"high","char":"G","transposition":-2,"order":["shifted","swapped"],"probe_pitches":[-2,3,10,3,1,3,10,8,3,5,8,3],"shifted_pitches":[-2,3,10,3,1,3,9,8,3,5,8,3],"swapped_pitches":[-2,3,10,3,1,10,3,8,3,5,8,3],"shift_direction":-1,"question_num":1,"has_decoy":false},{"rt":1420.8000000044703,"stimulus":"[A] option 1, [L] option 2, [G] neither","key_press":76,"name":"choice","trial_type":"html-keyboard-response","trial_index":21,"time_elapsed":55856,"internal_node_id":"0.0-21.0","subject":"S1C1216","sona":"41596","block":6,"time":"2021-09-19T00:55:54.891Z","response":"2nd","certainty":"high","char":"L","transposition":2,"order":["swapped","shifted"],"probe_pitches":[6,3,1,2,-3,5,8,2,4,-3,6,4],"shifted_pitches":[6,3,1,2,-3,5,7,2,4,-3,6,4],"swapped_pitches":[6,3,1,2,-3,8,5,2,4,-3,6,4],"shift_direction":-1,"question_num":11,"has_decoy":false},{"rt":1392.6000000014901,"stimulus":"[A] option 1, [L] option 2, [G] neither","key_press":76,"name":"choice","trial_type":"html-keyboard-response","trial_index":32,"time_elapsed":79118,"internal_node_id":"0.0-32.0","subject":"S1C1216","sona":"41596","block":6,"time":"2021-09-19T00:55:54.891Z","response":"2nd","certainty":"high","char":"L","transposition":3,"order":["shifted","swapped"],"probe_pitches":[1,2,-3,5,0,5,1,9,2,-1,6,8],"shifted_pitches":[1,2,-3,5,0,4,1,9,2,-1,6,8],"swapped_pitches":[1,2,-3,5,0,1,5,9,2,-1,6,8],"shift_direction":-1,"question_num":21,"has_decoy":false},{"rt":5442.39999999851,"stimulus":"[A] option 1, [L] option 2, [G] neither","key_press":71,"name":"choice","trial_type":"html-keyboard-response","trial_index":43,"time_elapsed":112248,"internal_node_id":"0.0-43.0","subject":"S1C1216","sona":"41596","block":6,"time":"2021-09-19T00:55:54.891Z","response":"neither","certainty":"high","char":"G","transposition":-2,"order":["shifted","swapped"],"probe_pitches":[1,5,3,4,0,7,-3,0,4,-1,4,3],"shifted_pitches":[1,5,3,4,0,7,-4,0,4,-1,4,3],"swapped_pitches":[1,5,3,4,0,-3,7,0,4,-1,4,3],"shift_direction":-1,"question_num":31,"has_decoy":false},{"rt":1537.5,"stimulus":"[A] option 1, [L] option 2, [G] neither","key_press":71,"name":"choice","trial_type":"html-keyboard-response","trial_index":54,"time_elapsed":137762,"internal_node_id":"0.0-54.0","subject":"S1C1216","sona":"41596","block":6,"time":"2021-09-19T00:55:54.891Z","response":"neither","certainty":"high","char":"G","transposition":-2,"order":["shifted","swapped"],"probe_pitches":[6,4,0,6,7,-2,0,6,-3,6,8,3],"shifted_pitches":[6,4,0,6,7,-2,1,6,-3,6,8,3],"swapped_pitches":[6,4,0,6,7,0,-2,6,-3,6,8,3],"shift_direction":1,"question_num":41,"has_decoy":false},{"rt":926,"stimulus":"[A] option 1, [L] option 2, [G] neither","key_press":65,"name":"choice","trial_type":"html-keyboard-response","trial_index":65,"time_elapsed":157946,"internal_node_id":"0.0-65.0","subject":"S1C1216","sona":"41596","block":6,"time":"2021-09-19T00:55:54.891Z","response":"1st","certainty":"high","char":"A","transposition":2,"order":["swapped","shifted"],"probe_pitches":[-2,1,8,6,-2,6,8,10,3,6,3,-2],"shifted_pitches":[-2,1,8,6,-2,7,8,10,3,6,3,-2],"swapped_pitches":[-2,1,8,6,-2,8,6,10,3,6,3,-2],"shift_direction":1,"question_num":51,"has_decoy":false},{"rt":2712.8000000044703,"stimulus":"[A] option 1, [L] option 2, [G] neither","key_press":65,"name":"choice","trial_type":"html-keyboard-response","trial_index":76,"time_elapsed":181195,"internal_node_id":"0.0-76.0","subject":"S1C1216","sona":"41596","block":6,"time":"2021-09-19T00:55:54.891Z","response":"1st","certainty":"high","char":"A","transposition":-1,"order":["shifted","swapped"],"probe_pitches":[3,1,8,1,10,8,3,5,8,-2,8,3],"shifted_pitches":[3,1,8,1,10,8,4,5,8,-2,8,3],"swapped_pitches":[3,1,8,1,10,3,8,5,8,-2,8,3],"shift_direction":1,"question_num":61,"has_decoy":false},{"rt":1233.8999999985099,"stimulus":"[A] option 1, [L] option 2, [G] neither","key_press":65,"name":"choice","trial_type":"html-keyboard-response","trial_index":87,"time_elapsed":202708,"internal_node_id":"0.0-87.0","subject":"S1C1216","sona":"41596","block":6,"time":"2021-09-19T00:55:54.891Z","response":"1st","certainty":"high","char":"A","transposition":-1,"order":["shifted","swapped"],"probe_pitches":[-1,3,8,6,2,4,-3,0,7,8,2,6],"shifted_pitches":[-1,3,8,6,2,5,-3,0,7,8,2,6],"swapped_pitches":[-1,3,8,6,2,-3,4,0,7,8,2,6],"shift_direction":1,"question_num":71,"has_decoy":false},{"rt":430.79999999701977,"stimulus":"[A] option 1, [L] option 2, [G] neither","key_press":76,"name":"choice","trial_type":"html-keyboard-response","trial_index":98,"time_elapsed":223303,"internal_node_id":"0.0-98.0","subject":"S1C1216","sona":"41596","block":6,"time":"2021-09-19T00:55:54.891Z","response":"2nd","certainty":"high","char":"L","transposition":1,"order":["swapped","shifted"],"probe_pitches":[9,3,-1,5,3,1,6,4,8,6,-3,5],"shifted_pitches":[9,3,-1,5,3,2,6,4,8,6,-3,5],"swapped_pitches":[9,3,-1,5,3,6,1,4,8,6,-3,5],"shift_direction":1,"question_num":81,"has_decoy":false},{"rt":17491.39999999851,"stimulus":"[A] option 1, [L] option 2, [G] neither","key_press":76,"name":"choice","trial_type":"html-keyboard-response","trial_index":109,"time_elapsed":260813,"internal_node_id":"0.0-109.0","subject":"S1C1216","sona":"41596","block":6,"time":"2021-09-19T00:55:54.891Z","response":"2nd","certainty":"high","char":"L","transposition":-1,"order":["swapped","shifted"],"probe_pitches":[1,-2,2,3,5,7,-2,0,5,1,2,-3],"shifted_pitches":[1,-2,2,3,5,7,-1,0,5,1,2,-3],"swapped_pitches":[1,-2,2,3,5,-2,7,0,5,1,2,-3],"shift_direction":1,"question_num":91,"has_decoy":false},{"rt":6421.19999999553,"stimulus":"[A] option 1, [L] option 2, [G] neither","key_press":76,"name":"choice","trial_type":"html-keyboard-response","trial_index":120,"time_elapsed":289199,"internal_node_id":"0.0-120.0","subject":"S1C1216","sona":"41596","block":6,"time":"2021-09-19T00:55:54.891Z","response":"2nd","certainty":"high","char":"L","transposition":-3,"order":["shifted","swapped"],"probe_pitches":[2,0,2,5,10,7,5,2,10,7,2,0],"shifted_pitches":[2,0,2,5,10,7,4,2,10,7,2,0],"swapped_pitches":[2,0,2,5,10,5,7,2,10,7,2,0],"shift_direction":-1,"question_num":101,"has_decoy":false},{"rt":4661.5999999940395,"stimulus":"[A] option 1, [L] option 2, [G] neither","key_press":65,"name":"choice","trial_type":"html-keyboard-response","trial_index":131,"time_elapsed":318529,"internal_node_id":"0.0-131.0","subject":"S1C1216","sona":"41596","block":6,"time":"2021-09-19T00:55:54.891Z","response":"1st","certainty":"high","char":"A","transposition":-2,"order":["swapped","shifted"],"probe_pitches":[8,5,8,5,3,5,0,10,0,3,10,8],"shifted_pitches":[8,5,8,5,3,4,0,10,0,3,10,8],"swapped_pitches":[8,5,8,5,3,0,5,10,0,3,10,8],"shift_direction":-1,"question_num":111,"has_decoy":false},{"rt":2707.0999999940395,"stimulus":"[A] option 1, [L] option 2, [G] neither","key_press":65,"name":"choice","trial_type":"html-keyboard-response","trial_index":142,"time_elapsed":342575,"internal_node_id":"0.0-142.0","subject":"S1C1216","sona":"41596","block":6,"time":"2021-09-19T00:55:54.891Z","response":"1st","certainty":"high","char":"A","transposition":0,"order":["swapped","shifted"],"probe_pitches":[10,5,0,7,5,3,-2,7,3,10,0,7],"shifted_pitches":[10,5,0,7,5,3,-1,7,3,10,0,7],"swapped_pitches":[10,5,0,7,5,-2,3,7,3,10,0,7],"shift_direction":1,"question_num":121,"has_decoy":false},{"rt":9841.69999999553,"stimulus":"[A] option 1, [L] option 2, [G] neither","key_press":76,"name":"choice","trial_type":"html-keyboard-response","trial_index":153,"time_elapsed":371998,"internal_node_id":"0.0-153.0","subject":"S1C1216","sona":"41596","block":6,"time":"2021-09-19T00:55:54.891Z","response":"2nd","certainty":"high","char":"L","transposition":-3,"order":["swapped","shifted"],"probe_pitches":[-3,-1,4,9,6,4,0,9,4,-1,9,8],"shifted_pitches":[-3,-1,4,9,6,3,0,9,4,-1,9,8],"swapped_pitches":[-3,-1,4,9,6,0,4,9,4,-1,9,8],"shift_direction":-1,"question_num":131,"has_decoy":false},{"rt":8293.29999999702,"stimulus":"[A] option 1, [L] option 2, [G] neither","key_press":65,"name":"choice","trial_type":"html-keyboard-response","trial_index":164,"time_elapsed":404685,"internal_node_id":"0.0-164.0","subject":"S1C1216","sona":"41596","block":6,"time":"2021-09-19T00:55:54.891Z","response":"1st","certainty":"high","char":"A","transposition":-1,"order":["shifted","swapped"],"probe_pitches":[10,7,5,10,5,3,-2,10,-2,0,3,0],"shifted_pitches":[10,7,5,10,5,2,-2,10,-2,0,3,0],"swapped_pitches":[10,7,5,10,5,-2,3,10,-2,0,3,0],"shift_direction":-1,"question_num":141,"has_decoy":false},{"rt":446.5,"stimulus":"[A] option 1, [L] option 2, [G] neither","key_press":76,"name":"choice","trial_type":"html-keyboard-response","trial_index":175,"time_elapsed":436456,"internal_node_id":"0.0-175.0","subject":"S1C1216","sona":"41596","block":6,"time":"2021-09-19T00:55:54.891Z","response":"2nd","certainty":"high","char":"L","transposition":1,"order":["swapped","shifted"],"probe_pitches":[2,5,-2,2,-2,0,7,10,7,-2,2,7],"shifted_pitches":[2,5,-2,2,-2,-1,7,10,7,-2,2,7],"swapped_pitches":[2,5,-2,2,-2,7,0,10,7,-2,2,7],"shift_direction":-1,"question_num":151,"has_decoy":false},{"rt":1997.8999999985099,"stimulus":"[A] option 1, [L] option 2, [G] neither","key_press":76,"name":"choice","trial_type":"html-keyboard-response","trial_index":186,"time_elapsed":457133,"internal_node_id":"0.0-186.0","subject":"S1C1216","sona":"41596","block":6,"time":"2021-09-19T00:55:54.891Z","response":"2nd","certainty":"high","char":"L","transposition":0,"order":["swapped","shifted"],"probe_pitches":[5,0,-1,0,4,3,5,-3,4,9,5,2],"shifted_pitches":[5,0,-1,0,4,3,6,-3,4,9,5,2],"swapped_pitches":[5,0,-1,0,4,5,3,-3,4,9,5,2],"shift_direction":1,"question_num":161,"has_decoy":false},{"rt":2160.0999999940395,"stimulus":"[A] option 1, [L] option 2, [G] neither","key_press":65,"name":"choice","trial_type":"html-keyboard-response","trial_index":197,"time_elapsed":478293,"internal_node_id":"0.0-197.0","subject":"S1C1216","sona":"41596","block":6,"time":"2021-09-19T00:55:54.891Z","response":"1st","certainty":"high","char":"A","transposition":3,"order":["swapped","shifted"],"probe_pitches":[-2,1,8,6,-2,8,1,10,3,6,10,6],"shifted_pitches":[-2,1,8,6,-2,9,1,10,3,6,10,6],"swapped_pitches":[-2,1,8,6,-2,1,8,10,3,6,10,6],"shift_direction":1,"question_num":171,"has_decoy":false},{"rt":6591.30000000447,"stimulus":"[A] option 1, [L] option 2, [G] neither","key_press":71,"name":"choice","trial_type":"html-keyboard-response","trial_index":208,"time_elapsed":505194,"internal_node_id":"0.0-208.0","subject":"S1C1216","sona":"41596","block":6,"time":"2021-09-19T00:55:54.891Z","response":"neither","certainty":"high","char":"G","transposition":-3,"order":["shifted","swapped"],"probe_pitches":[7,4,2,-2,3,1,5,-3,9,4,-3,4],"shifted_pitches":[7,4,2,-2,3,0,5,-3,9,4,-3,4],"swapped_pitches":[7,4,2,-2,3,5,1,-3,9,4,-3,4],"shift_direction":-1,"question_num":181,"has_decoy":false},{"rt":2176.8000000044703,"stimulus":"[A] option 1, [L] option 2, [G] neither","key_press":71,"name":"choice","trial_type":"html-keyboard-response","trial_index":219,"time_elapsed":525980,"internal_node_id":"0.0-219.0","subject":"S1C1216","sona":"41596","block":6,"time":"2021-09-19T00:55:54.891Z","response":"neither","certainty":"high","char":"G","transposition":-3,"order":["shifted","swapped"],"probe_pitches":[3,0,3,10,5,-2,3,8,-2,5,-2,3],"shifted_pitches":[3,0,3,10,5,-2,4,8,-2,5,-2,3],"swapped_pitches":[3,0,3,10,5,3,-2,8,-2,5,-2,3],"shift_direction":1,"question_num":191,"has_decoy":false}]