[{"rt":7986.30000000447,"stimulus":"[A] option 1, [L] option 2, [G] neither","key_press":65,"name":"choice","trial_type":"html-keyboard-response","trial_index":10,"time_elapsed":36932,"internal_node_id":"0.0-10.0","subject":"S1C1216","sona":"41596","block":4,"time":"2021-09-19T00:37:27.263Z","response":"1st","certainty":"high","char":"A","transposition":-3,"order":["swapped","shifted"],"probe_pitches":[10,5,-2,0,-2,0,3,-2,7,0,3,10],"shifted_pitches":[10,5,-2,0,-2,-1,3,-2,7,0,3,10],"swapped_pitches":[10,5,-2,0,-2,3,0,-2,7,0,3,10],"shift_direction":-1,"question_num":1,"has_decoy":false},{"rt":855.7999999970198,"stimulus":"[A] option 1, [L] option 2, [G] neither","key_press":76,"name":"choice","trial_type":"html-keyboard-response","trial_index":21,"time_elapsed":58511,"internal_node_id":"0.0-21.0","subject":"S1C1216","sona":"41596","block":4,"time":"2021-09-19T00:37:27.263Z","response":"2nd","certainty":"high","char":"L","transposition":-2,"order":["shifted","swapped"],"probe_pitches":[8,10,4,9,2,4,8,7,2,13,7,5],"shifted_pitches":[8,10,4,9,2,3,8,7,2,13,7,5],"swapped_pitches":[8,10,4,9,2,8,4,7,2,13,7,5],"shift_direction":-1,"question_num":11,"has_decoy":false},{"rt":1267.2000000029802,"stimulus":"[A] option 1, [L] option 2, [G] neither","key_press":76,"name":"choice","trial_type":"html-keyboard-response","trial_index":32,"time_elapsed":80988,"internal_node_id":"0.0-32.0","subject":"S1C1216","sona":"41596","block":4,"time":"2021-09-19T00:37:27.263Z","response":"2nd","certainty":"high","char":"L","transposition":-3,"order":["swapped","shifted"],"probe_pitches":[-2,3,8,3,5,1,10,3,-2,5,8,10],"shifted_pitches":[-2,3,8,3,5,1,11,3,-2,5,8,10],"swapped_pitches":[-2,3,8,3,5,10,1,3,-2,5,8,10],"shift_direction":1,"question_num":21,"has_decoy":false},{"rt":970.5999999940395,"stimulus":"[A] option 1, [L] option 2, [G] neither","key_press":76,"name":"choice","trial_type":"html-keyboard-response","trial_index":43,"time_elapsed":105081,"internal_node_id":"0.0-43.0","subject":"S1C1216","sona":"41596","block":4,"time":"2021-09-19T00:37:27.263Z","response":"2nd","certainty":"high","char":"L","transposition":3,"order":["swapped","shifted"],"probe_pitches":[0,-2,5,7,5,10,2,7,5,0,10,-2],"shifted_pitches":[0,-2,5,7,5,11,2,7,5,0,10,-2],"swapped_pitches":[0,-2,5,7,5,2,10,7,5,0,10,-2],"shift_direction":1,"question_num":31,"has_decoy":false},{"rt":727.7000000029802,"stimulus":"[A] option 1, [L] option 2, [G] neither","key_press":76,"name":"choice","trial_type":"html-keyboard-response","trial_index":54,"time_elapsed":128343,"internal_node_id":"0.0-54.0","subject":"S1C1216","sona":"41596","block":4,"time":"2021-09-19T00:37:27.263Z","response":"2nd","certainty":"high","char":"L","transposition":-1,"order":["swapped","shifted"],"probe_pitches":[10,5,10,3,1,-2,8,10,8,5,10,8],"shifted_pitches":[10,5,10,3,1,-1,8,10,8,5,10,8],"swapped_pitches":[10,5,10,3,1,8,-2,10,8,5,10,8],"shift_direction":1,"question_num":41,"has_decoy":false},{"rt":4022.5,"stimulus":"[A] option 1, [L] option 2, [G] neither","key_press":71,"name":"choice","trial_type":"html-keyboard-response","trial_index":65,"time_elapsed":153611,"internal_node_id":"0.0-65.0","subject":"S1C1216","sona":"41596","block":4,"time":"2021-09-19T00:37:27.263Z","response":"neither","certainty":"high","char":"G","transposition":-1,"order":["swapped","shifted"],"probe_pitches":[13,9,8,10,7,1,5,8,13,4,1,10],"shifted_pitches":[13,9,8,10,7,0,5,8,13,4,1,10],"swapped_pitches":[13,9,8,10,7,5,1,8,13,4,1,10],"shift_direction":-1,"question_num":51,"has_decoy":false},{"rt":2523.60000000149,"stimulus":"[A] option 1, [L] option 2, [G] neither","key_press":65,"name":"choice","trial_type":"html-keyboard-response","trial_index":76,"time_elapsed":181462,"internal_node_id":"0.0-76.0","subject":"S1C1216","sona":"41596","block":4,"time":"2021-09-19T00:37:27.263Z","response":"1st","certainty":"high","char":"A","transposition":-1,"order":["shifted","swapped"],"probe_pitches":[11,5,1,6,10,3,5,12,2,1,5,2],"shifted_pitches":[11,5,1,6,10,3,4,12,2,1,5,2],"swapped_pitches":[11,5,1,6,10,5,3,12,2,1,5,2],"shift_direction":-1,"question_num":61,"has_decoy":false},{"rt":1301.0999999940395,"stimulus":"[A] option 1, [L] option 2, [G] neither","key_press":65,"name":"choice","trial_type":"html-keyboard-response","trial_index":87,"time_elapsed":205200,"internal_node_id":"0.0-87.0","subject":"S1C1216","sona":"41596","block":4,"time":"2021-09-19T00:37:27.263Z","response":"1st","certainty":"high","char":"A","transposition":0,"order":["swapped","shifted"],"probe_pitches":[8,5,3,5,10,0,-2,10,3,5,8,3],"shifted_pitches":[8,5,3,5,10,-1,-2,10,3,5,8,3],"swapped_pitches":[8,5,3,5,10,-2,0,10,3,5,8,3],"shift_direction":-1,"question_num":71,"has_decoy":false},{"rt":944.8999999985099,"stimulus":"[A] option 1, [L] option 2, [G] neither","key_press":71,"name":"choice","trial_type":"html-keyboard-response","trial_index":98,"time_elapsed":227629,"internal_node_id":"0.0-98.0","subject":"S1C1216","sona":"41596","block":4,"time":"2021-09-19T00:37:27.263Z","response":"neither","certainty":"high","char":"G","transposition":3,"order":["shifted","swapped"],"probe_pitches":[2,7,4,8,3,10,5,2,10,13,7,8],"shifted_pitches":[2,7,4,8,3,10,6,2,10,13,7,8],"swapped_pitches":[2,7,4,8,3,5,10,2,10,13,7,8],"shift_direction":1,"question_num":81,"has_decoy":false},{"rt":2689.5,"stimulus":"[A] option 1, [L] option 2, [G] neither","key_press":71,"name":"choice","trial_type":"html-keyboard-response","trial_index":109,"time_elapsed":252600,"internal_node_id":"0.0-109.0","subject":"S1C1216","sona":"41596","block":4,"time":"2021-09-19T00:37:27.263Z","response":"neither","certainty":"high","char":"G","transposition":1,"order":["shifted","swapped"],"probe_pitches":[10,6,8,3,-2,8,3,1,8,10,3,8],"shifted_pitches":[10,6,8,3,-2,7,3,1,8,10,3,8],"swapped_pitches":[10,6,8,3,-2,3,8,1,8,10,3,8],"shift_direction":-1,"question_num":91,"has_decoy":false},{"rt":4201.9000000059605,"stimulus":"[A] option 1, [L] option 2, [G] neither","key_press":71,"name":"choice","trial_type":"html-keyboard-response","trial_index":120,"time_elapsed":277479,"internal_node_id":"0.0-120.0","subject":"S1C1216","sona":"41596","block":4,"time":"2021-09-19T00:37:27.263Z","response":"neither","certainty":"high","char":"G","transposition":-1,"order":["shifted","swapped"],"probe_pitches":[10,5,0,3,0,8,5,3,0,-2,0,8],"shifted_pitches":[10,5,0,3,0,8,6,3,0,-2,0,8],"swapped_pitches":[10,5,0,3,0,5,8,3,0,-2,0,8],"shift_direction":1,"question_num":101,"has_decoy":false},{"rt":2229.5,"stimulus":"[A] option 1, [L] option 2, [G] neither","key_press":65,"name":"choice","trial_type":"html-keyboard-response","trial_index":131,"time_elapsed":300734,"internal_node_id":"0.0-131.0","subject":"S1C1216","sona":"41596","block":4,"time":"2021-09-19T00:37:27.263Z","response":"1st","certainty":"high","char":"A","transposition":2,"order":["shifted","swapped"],"probe_pitches":[5,0,5,10,7,10,3,0,-2,5,0,-2],"shifted_pitches":[5,0,5,10,7,10,4,0,-2,5,0,-2],"swapped_pitches":[5,0,5,10,7,3,10,0,-2,5,0,-2],"shift_direction":1,"question_num":111,"has_decoy":false},{"rt":3936.2999999970198,"stimulus":"[A] option 1, [L] option 2, [G] neither","key_press":65,"name":"choice","trial_type":"html-keyboard-response","trial_index":142,"time_elapsed":325672,"internal_node_id":"0.0-142.0","subject":"S1C1216","sona":"41596","block":4,"time":"2021-09-19T00:37:27.263Z","response":"1st","certainty":"high","char":"A","transposition":1,"order":["swapped","shifted"],"probe_pitches":[6,5,3,5,7,12,8,10,7,11,4,8],"shifted_pitches":[6,5,3,5,7,12,9,10,7,11,4,8],"swapped_pitches":[6,5,3,5,7,8,12,10,7,11,4,8],"shift_direction":1,"question_num":121,"has_decoy":false},{"rt":1391.8000000044703,"stimulus":"[A] option 1, [L] option 2, [G] neither","key_press":76,"name":"choice","trial_type":"html-keyboard-response","trial_index":153,"time_elapsed":349739,"internal_node_id":"0.0-153.0","subject":"S1C1216","sona":"41596","block":4,"time":"2021-09-19T00:37:27.263Z","response":"2nd","certainty":"high","char":"L","transposition":-2,"order":["swapped","shifted"],"probe_pitches":[1,7,8,7,10,4,8,12,1,4,12,11],"shifted_pitches":[1,7,8,7,10,5,8,12,1,4,12,11],"swapped_pitches":[1,7,8,7,10,8,4,12,1,4,12,11],"shift_direction":1,"question_num":131,"has_decoy":false},{"rt":1831.7000000029802,"stimulus":"[A] option 1, [L] option 2, [G] neither","key_press":65,"name":"choice","trial_type":"html-keyboard-response","trial_index":164,"time_elapsed":370525,"internal_node_id":"0.0-164.0","subject":"S1C1216","sona":"41596","block":4,"time":"2021-09-19T00:37:27.263Z","response":"1st","certainty":"high","char":"A","transposition":-3,"order":["swapped","shifted"],"probe_pitches":[5,6,13,5,1,6,7,2,1,5,6,5],"shifted_pitches":[5,6,13,5,1,6,8,2,1,5,6,5],"swapped_pitches":[5,6,13,5,1,7,6,2,1,5,6,5],"shift_direction":1,"question_num":141,"has_decoy":false},{"rt":4691.20000000298,"stimulus":"[A] option 1, [L] option 2, [G] neither","key_press":76,"name":"choice","trial_type":"html-keyboard-response","trial_index":175,"time_elapsed":396498,"internal_node_id":"0.0-175.0","subject":"S1C1216","sona":"41596","block":4,"time":"2021-09-19T00:37:27.263Z","response":"2nd","certainty":"high","char":"L","transposition":-3,"order":["shifted","swapped"],"probe_pitches":[11,13,10,3,12,8,3,11,5,4,8,2],"shifted_pitches":[11,13,10,3,12,7,3,11,5,4,8,2],"swapped_pitches":[11,13,10,3,12,3,8,11,5,4,8,2],"shift_direction":-1,"question_num":151,"has_decoy":false},{"rt":973,"stimulus":"[A] option 1, [L] option 2, [G] neither","key_press":76,"name":"choice","trial_type":"html-keyboard-response","trial_index":186,"time_elapsed":418465,"internal_node_id":"0.0-186.0","subject":"S1C1216","sona":"41596","block":4,"time":"2021-09-19T00:37:27.263Z","response":"2nd","certainty":"high","char":"L","transposition":0,"order":["shifted","swapped"],"probe_pitches":[12,6,7,8,5,10,7,5,9,3,8,9],"shifted_pitches":[12,6,7,8,5,11,7,5,9,3,8,9],"swapped_pitches":[12,6,7,8,5,7,10,5,9,3,8,9],"shift_direction":1,"question_num":161,"has_decoy":false},{"rt":11176.10000000149,"stimulus":"[A] option 1, [L] option 2, [G] neither","key_press":65,"name":"choice","trial_type":"html-keyboard-response","trial_index":197,"time_elapsed":450936,"internal_node_id":"0.0-197.0","subject":"S1C1216","sona":"41596","block":4,"time":"2021-09-19T00:37:27.263Z","response":"1st","certainty":"high","char":"A","transposition":2,"order":["swapped","shifted"],"probe_pitches":[11,5,1,4,3,7,11,1,8,11,9,12],"shifted_pitches":[11,5,1,4,3,7,10,1,8,11,9,12],"swapped_pitches":[11,5,1,4,3,11,7,1,8,11,9,12],"shift_direction":-1,"question_num":171,"has_decoy":false},{"rt":822.5,"stimulus":"[A] option 1, [L] option 2, [G] neither","key_press":76,"name":"choice","trial_type":"html-keyboard-response","trial_index":208,"time_elapsed":472843,"internal_node_id":"0.0-208.0","subject":"S1C1216","sona":"41596","block":4,"time":"2021-09-19T00:37:27.263Z","response":"2nd","certainty":"high","char":"L","transposition":-2,"order":["shifted","swapped"],"probe_pitches":[0,5,10,2,7,2,0,10,7,-2,10,2],"shifted_pitches":[0,5,10,2,7,2,-1,10,7,-2,10,2],"swapped_pitches":[0,5,10,2,7,0,2,10,7,-2,10,2],"shift_direction":-1,"question_num":181,"has_decoy":false},{"rt":2417.9000000059605,"stimulus":"[A] option 1, [L] option 2, [G] neither","key_press":71,"name":"choice","trial_type":"html-keyboard-response","trial_index":219,"time_elapsed":495656,"internal_node_id":"0.0-219.0","subject":"S1C1216","sona":"41596","block":4,"time":"2021-09-19T00:37:27.263Z","response":"neither","certainty":"high","char":"G","transposition":-2,"order":["shifted","swapped"],"probe_pitches":[1,-2,1,8,6,10,3,6,-2,10,-2,1],"shifted_pitches":[1,-2,1,8,6,10,2,6,-2,10,-2,1],"swapped_pitches":[1,-2,1,8,6,3,10,6,-2,10,-2,1],"shift_direction":-1,"question_num":191,"has_decoy":false}]