[{"rt":2983,"stimulus":"[A] option 1, [L] option 2, [G] neither","key_press":71,"name":"choice","trial_type":"html-keyboard-response","trial_index":10,"time_elapsed":33143,"internal_node_id":"0.0-10.0","subject":"S1C1216","sona":"41596","block":3,"time":"2021-09-19T00:28:53.429Z","response":"neither","certainty":"high","char":"G","transposition":-2,"order":["swapped","shifted"],"probe_pitches":[10,5,-1,2,9,2,4,-1,5,-2,10,6],"shifted_pitches":[10,5,-1,2,9,3,4,-1,5,-2,10,6],"swapped_pitches":[10,5,-1,2,9,4,2,-1,5,-2,10,6],"shift_direction":1,"question_num":1,"has_decoy":false},{"rt":734.1000000014901,"stimulus":"[A] option 1, [L] option 2, [G] neither","key_press":76,"name":"choice","trial_type":"html-keyboard-response","trial_index":21,"time_elapsed":53871,"internal_node_id":"0.0-21.0","subject":"S1C1216","sona":"41596","block":3,"time":"2021-09-19T00:28:53.429Z","response":"2nd","certainty":"high","char":"L","transposition":-2,"order":["shifted","swapped"],"probe_pitches":[-2,3,1,4,5,1,10,5,6,0,3,5],"shifted_pitches":[-2,3,1,4,5,1,9,5,6,0,3,5],"swapped_pitches":[-2,3,1,4,5,10,1,5,6,0,3,5],"shift_direction":-1,"question_num":11,"has_decoy":false},{"rt":2246.39999999851,"stimulus":"[A] option 1, [L] option 2, [G] neither","key_press":65,"name":"choice","trial_type":"html-keyboard-response","trial_index":32,"time_elapsed":81234,"internal_node_id":"0.0-32.0","subject":"S1C1216","sona":"41596","block":3,"time":"2021-09-19T00:28:53.429Z","response":"1st","certainty":"high","char":"A","transposition":-3,"order":["swapped","shifted"],"probe_pitches":[1,-2,3,6,8,-2,3,6,-2,1,10,6],"shifted_pitches":[1,-2,3,6,8,-2,4,6,-2,1,10,6],"swapped_pitches":[1,-2,3,6,8,3,-2,6,-2,1,10,6],"shift_direction":1,"question_num":21,"has_decoy":false},{"rt":1849.9000000059605,"stimulus":"[A] option 1, [L] option 2, [G] neither","key_press":65,"name":"choice","trial_type":"html-keyboard-response","trial_index":43,"time_elapsed":112209,"internal_node_id":"0.0-43.0","subject":"S1C1216","sona":"41596","block":3,"time":"2021-09-19T00:28:53.429Z","response":"1st","certainty":"high","char":"A","transposition":-2,"order":["swapped","shifted"],"probe_pitches":[3,1,3,1,10,5,1,8,1,-2,8,3],"shifted_pitches":[3,1,3,1,10,4,1,8,1,-2,8,3],"swapped_pitches":[3,1,3,1,10,1,5,8,1,-2,8,3],"shift_direction":-1,"question_num":31,"has_decoy":false},{"rt":1662.5,"stimulus":"[A] option 1, [L] option 2, [G] neither","key_press":65,"name":"choice","trial_type":"html-keyboard-response","trial_index":54,"time_elapsed":133447,"internal_node_id":"0.0-54.0","subject":"S1C1216","sona":"41596","block":3,"time":"2021-09-19T00:28:53.429Z","response":"1st","certainty":"high","char":"A","transposition":0,"order":["shifted","swapped"],"probe_pitches":[10,7,10,3,0,-2,5,10,3,7,-2,10],"shifted_pitches":[10,7,10,3,0,-3,5,10,3,7,-2,10],"swapped_pitches":[10,7,10,3,0,5,-2,10,3,7,-2,10],"shift_direction":-1,"question_num":41,"has_decoy":false},{"rt":981.1999999955297,"stimulus":"[A] option 1, [L] option 2, [G] neither","key_press":65,"name":"choice","trial_type":"html-keyboard-response","trial_index":65,"time_elapsed":157246,"internal_node_id":"0.0-65.0","subject":"S1C1216","sona":"41596","block":3,"time":"2021-09-19T00:28:53.429Z","response":"1st","certainty":"high","char":"A","transposition":-1,"order":["shifted","swapped"],"probe_pitches":[0,-2,5,10,7,5,2,10,7,10,7,0],"shifted_pitches":[0,-2,5,10,7,6,2,10,7,10,7,0],"swapped_pitches":[0,-2,5,10,7,2,5,10,7,10,7,0],"shift_direction":1,"question_num":51,"has_decoy":false},{"rt":371.70000000298023,"stimulus":"[A] option 1, [L] option 2, [G] neither","key_press":76,"name":"choice","trial_type":"html-keyboard-response","trial_index":76,"time_elapsed":178637,"internal_node_id":"0.0-76.0","subject":"S1C1216","sona":"41596","block":3,"time":"2021-09-19T00:28:53.429Z","response":"2nd","certainty":"high","char":"L","transposition":0,"order":["swapped","shifted"],"probe_pitches":[0,5,6,1,8,1,6,-2,10,6,0,8],"shifted_pitches":[0,5,6,1,8,1,7,-2,10,6,0,8],"swapped_pitches":[0,5,6,1,8,6,1,-2,10,6,0,8],"shift_direction":1,"question_num":61,"has_decoy":false},{"rt":1060.8000000044703,"stimulus":"[A] option 1, [L] option 2, [G] neither","key_press":76,"name":"choice","trial_type":"html-keyboard-response","trial_index":87,"time_elapsed":198221,"internal_node_id":"0.0-87.0","subject":"S1C1216","sona":"41596","block":3,"time":"2021-09-19T00:28:53.429Z","response":"2nd","certainty":"high","char":"L","transposition":-3,"order":["swapped","shifted"],"probe_pitches":[4,1,5,-1,8,3,10,4,1,5,4,6],"shifted_pitches":[4,1,5,-1,8,2,10,4,1,5,4,6],"swapped_pitches":[4,1,5,-1,8,10,3,4,1,5,4,6],"shift_direction":-1,"question_num":71,"has_decoy":false},{"rt":1010.8000000044703,"stimulus":"[A] option 1, [L] option 2, [G] neither","key_press":65,"name":"choice","trial_type":"html-keyboard-response","trial_index":98,"time_elapsed":217874,"internal_node_id":"0.0-98.0","subject":"S1C1216","sona":"41596","block":3,"time":"2021-09-19T00:28:53.429Z","response":"1st","certainty":"high","char":"A","transposition":-1,"order":["shifted","swapped"],"probe_pitches":[1,-2,3,9,10,3,2,0,5,8,10,8],"shifted_pitches":[1,-2,3,9,10,4,2,0,5,8,10,8],"swapped_pitches":[1,-2,3,9,10,2,3,0,5,8,10,8],"shift_direction":1,"question_num":81,"has_decoy":false},{"rt":1945.5,"stimulus":"[A] option 1, [L] option 2, [G] neither","key_press":76,"name":"choice","trial_type":"html-keyboard-response","trial_index":109,"time_elapsed":245962,"internal_node_id":"0.0-109.0","subject":"S1C1216","sona":"41596","block":3,"time":"2021-09-19T00:28:53.429Z","response":"2nd","certainty":"high","char":"L","transposition":-2,"order":["shifted","swapped"],"probe_pitches":[8,5,-2,0,3,0,8,10,5,0,10,3],"shifted_pitches":[8,5,-2,0,3,1,8,10,5,0,10,3],"swapped_pitches":[8,5,-2,0,3,8,0,10,5,0,10,3],"shift_direction":1,"question_num":91,"has_decoy":false},{"rt":2940.3000000044703,"stimulus":"[A] option 1, [L] option 2, [G] neither","key_press":65,"name":"choice","trial_type":"html-keyboard-response","trial_index":120,"time_elapsed":272338,"internal_node_id":"0.0-120.0","subject":"S1C1216","sona":"41596","block":3,"time":"2021-09-19T00:28:53.429Z","response":"1st","certainty":"high","char":"A","transposition":3,"order":["shifted","swapped"],"probe_pitches":[-2,1,5,1,7,5,-1,1,2,4,5,6],"shifted_pitches":[-2,1,5,1,7,5,0,1,2,4,5,6],"swapped_pitches":[-2,1,5,1,7,-1,5,1,2,4,5,6],"shift_direction":1,"question_num":101,"has_decoy":false},{"rt":3040.1999999955297,"stimulus":"[A] option 1, [L] option 2, [G] neither","key_press":65,"name":"choice","trial_type":"html-keyboard-response","trial_index":131,"time_elapsed":307522,"internal_node_id":"0.0-131.0","subject":"S1C1216","sona":"41596","block":3,"time":"2021-09-19T00:28:53.429Z","response":"1st","certainty":"high","char":"A","transposition":1,"order":["shifted","swapped"],"probe_pitches":[-2,3,-2,3,6,10,8,1,10,3,10,-2],"shifted_pitches":[-2,3,-2,3,6,10,9,1,10,3,10,-2],"swapped_pitches":[-2,3,-2,3,6,8,10,1,10,3,10,-2],"shift_direction":1,"question_num":111,"has_decoy":false},{"rt":961.8000000044703,"stimulus":"[A] option 1, [L] option 2, [G] neither","key_press":65,"name":"choice","trial_type":"html-keyboard-response","trial_index":142,"time_elapsed":328734,"internal_node_id":"0.0-142.0","subject":"S1C1216","sona":"41596","block":3,"time":"2021-09-19T00:28:53.429Z","response":"1st","certainty":"high","char":"A","transposition":-3,"order":["shifted","swapped"],"probe_pitches":[0,-2,0,3,5,3,-2,7,3,-2,3,5],"shifted_pitches":[0,-2,0,3,5,3,-3,7,3,-2,3,5],"swapped_pitches":[0,-2,0,3,5,-2,3,7,3,-2,3,5],"shift_direction":-1,"question_num":121,"has_decoy":false},{"rt":650.1999999955297,"stimulus":"[A] option 1, [L] option 2, [G] neither","key_press":76,"name":"choice","trial_type":"html-keyboard-response","trial_index":153,"time_elapsed":350487,"internal_node_id":"0.0-153.0","subject":"S1C1216","sona":"41596","block":3,"time":"2021-09-19T00:28:53.429Z","response":"2nd","certainty":"high","char":"L","transposition":2,"order":["swapped","shifted"],"probe_pitches":[9,7,5,2,3,-2,0,3,5,2,6,-2],"shifted_pitches":[9,7,5,2,3,-2,1,3,5,2,6,-2],"swapped_pitches":[9,7,5,2,3,0,-2,3,5,2,6,-2],"shift_direction":1,"question_num":131,"has_decoy":false},{"rt":1527.5999999940395,"stimulus":"[A] option 1, [L] option 2, [G] neither","key_press":71,"name":"choice","trial_type":"html-keyboard-response","trial_index":164,"time_elapsed":372037,"internal_node_id":"0.0-164.0","subject":"S1C1216","sona":"41596","block":3,"time":"2021-09-19T00:28:53.429Z","response":"neither","certainty":"high","char":"G","transposition":2,"order":["swapped","shifted"],"probe_pitches":[3,1,8,10,1,3,5,1,3,-2,3,1],"shifted_pitches":[3,1,8,10,1,2,5,1,3,-2,3,1],"swapped_pitches":[3,1,8,10,1,5,3,1,3,-2,3,1],"shift_direction":-1,"question_num":141,"has_decoy":false},{"rt":3672.2999999970198,"stimulus":"[A] option 1, [L] option 2, [G] neither","key_press":76,"name":"choice","trial_type":"html-keyboard-response","trial_index":175,"time_elapsed":396652,"internal_node_id":"0.0-175.0","subject":"S1C1216","sona":"41596","block":3,"time":"2021-09-19T00:28:53.429Z","response":"2nd","certainty":"high","char":"L","transposition":3,"order":["swapped","shifted"],"probe_pitches":[10,8,3,5,0,10,5,0,-2,5,0,3],"shifted_pitches":[10,8,3,5,0,10,6,0,-2,5,0,3],"swapped_pitches":[10,8,3,5,0,5,10,0,-2,5,0,3],"shift_direction":1,"question_num":151,"has_decoy":false},{"rt":4938.10000000149,"stimulus":"[A] option 1, [L] option 2, [G] neither","key_press":65,"name":"choice","trial_type":"html-keyboard-response","trial_index":186,"time_elapsed":426153,"internal_node_id":"0.0-186.0","subject":"S1C1216","sona":"41596","block":3,"time":"2021-09-19T00:28:53.429Z","response":"1st","certainty":"high","char":"A","transposition":-1,"order":["shifted","swapped"],"probe_pitches":[8,10,3,7,9,6,1,2,6,8,7,4],"shifted_pitches":[8,10,3,7,9,5,1,2,6,8,7,4],"swapped_pitches":[8,10,3,7,9,1,6,2,6,8,7,4],"shift_direction":-1,"question_num":161,"has_decoy":false},{"rt":1567.3000000044703,"stimulus":"[A] option 1, [L] option 2, [G] neither","key_press":71,"name":"choice","trial_type":"html-keyboard-response","trial_index":197,"time_elapsed":452473,"internal_node_id":"0.0-197.0","subject":"S1C1216","sona":"41596","block":3,"time":"2021-09-19T00:28:53.429Z","response":"neither","certainty":"high","char":"G","transposition":-1,"order":["swapped","shifted"],"probe_pitches":[-2,2,0,5,0,-2,2,7,5,0,5,0],"shifted_pitches":[-2,2,0,5,0,-2,1,7,5,0,5,0],"swapped_pitches":[-2,2,0,5,0,2,-2,7,5,0,5,0],"shift_direction":-1,"question_num":171,"has_decoy":false},{"rt":2256.60000000149,"stimulus":"[A] option 1, [L] option 2, [G] neither","key_press":71,"name":"choice","trial_type":"html-keyboard-response","trial_index":208,"time_elapsed":475472,"internal_node_id":"0.0-208.0","subject":"S1C1216","sona":"41596","block":3,"time":"2021-09-19T00:28:53.429Z","response":"neither","certainty":"high","char":"G","transposition":1,"order":["shifted","swapped"],"probe_pitches":[9,6,-1,-2,3,-1,9,0,9,1,3,1],"shifted_pitches":[9,6,-1,-2,3,-1,8,0,9,1,3,1],"swapped_pitches":[9,6,-1,-2,3,9,-1,0,9,1,3,1],"shift_direction":-1,"question_num":181,"has_decoy":false},{"rt":2520.10000000149,"stimulus":"[A] option 1, [L] option 2, [G] neither","key_press":71,"name":"choice","trial_type":"html-keyboard-response","trial_index":219,"time_elapsed":503982,"internal_node_id":"0.0-219.0","subject":"S1C1216","sona":"41596","block":3,"time":"2021-09-19T00:28:53.429Z","response":"neither","certainty":"high","char":"G","transposition":-3,"order":["swapped","shifted"],"probe_pitches":[2,7,3,8,3,7,0,-1,4,3,4,3],"shifted_pitches":[2,7,3,8,3,6,0,-1,4,3,4,3],"swapped_pitches":[2,7,3,8,3,0,7,-1,4,3,4,3],"shift_direction":-1,"question_num":191,"has_decoy":false}]