[{"rt":2441.1999999955297,"stimulus":"[A] option 1, [L] option 2, [G] neither","key_press":76,"name":"choice","trial_type":"html-keyboard-response","trial_index":10,"time_elapsed":28419,"internal_node_id":"0.0-10.0","subject":"S1C1216","sona":"41596","block":5,"time":"2021-09-19T00:47:03.559Z","response":"2nd","certainty":"high","char":"L","transposition":-3,"order":["swapped","shifted"],"probe_pitches":[10,4,0,3,0,10,7,2,3,1,-2,7],"shifted_pitches":[10,4,0,3,0,9,7,2,3,1,-2,7],"swapped_pitches":[10,4,0,3,0,7,10,2,3,1,-2,7],"shift_direction":-1,"question_num":1,"has_decoy":false},{"rt":15017.10000000149,"stimulus":"[A] option 1, [L] option 2, [G] neither","key_press":71,"name":"choice","trial_type":"html-keyboard-response","trial_index":21,"time_elapsed":64788,"internal_node_id":"0.0-21.0","subject":"S1C1216","sona":"41596","block":5,"time":"2021-09-19T00:47:03.559Z","response":"neither","certainty":"high","char":"G","transposition":1,"order":["shifted","swapped"],"probe_pitches":[-1,0,7,8,4,-1,7,9,8,1,8,10],"shifted_pitches":[-1,0,7,8,4,-1,6,9,8,1,8,10],"swapped_pitches":[-1,0,7,8,4,7,-1,9,8,1,8,10],"shift_direction":-1,"question_num":11,"has_decoy":false},{"rt":4949,"stimulus":"[A] option 1, [L] option 2, [G] neither","key_press":76,"name":"choice","trial_type":"html-keyboard-response","trial_index":32,"time_elapsed":90236,"internal_node_id":"0.0-32.0","subject":"S1C1216","sona":"41596","block":5,"time":"2021-09-19T00:47:03.559Z","response":"2nd","certainty":"high","char":"L","transposition":0,"order":["swapped","shifted"],"probe_pitches":[3,1,5,10,8,13,10,3,5,10,8,1],"shifted_pitches":[3,1,5,10,8,12,10,3,5,10,8,1],"swapped_pitches":[3,1,5,10,8,10,13,3,5,10,8,1],"shift_direction":-1,"question_num":21,"has_decoy":false},{"rt":576,"stimulus":"[A] option 1, [L] option 2, [G] neither","key_press":65,"name":"choice","trial_type":"html-keyboard-response","trial_index":43,"time_elapsed":110636,"internal_node_id":"0.0-43.0","subject":"S1C1216","sona":"41596","block":5,"time":"2021-09-19T00:47:03.559Z","response":"1st","certainty":"high","char":"A","transposition":-2,"order":["swapped","shifted"],"probe_pitches":[6,3,8,3,-1,4,2,0,10,6,4,0],"shifted_pitches":[6,3,8,3,-1,4,1,0,10,6,4,0],"swapped_pitches":[6,3,8,3,-1,2,4,0,10,6,4,0],"shift_direction":-1,"question_num":31,"has_decoy":false},{"rt":4168.10000000149,"stimulus":"[A] option 1, [L] option 2, [G] neither","key_press":65,"name":"choice","trial_type":"html-keyboard-response","trial_index":54,"time_elapsed":134928,"internal_node_id":"0.0-54.0","subject":"S1C1216","sona":"41596","block":5,"time":"2021-09-19T00:47:03.559Z","response":"1st","certainty":"high","char":"A","transposition":2,"order":["shifted","swapped"],"probe_pitches":[13,11,8,13,11,8,3,13,8,6,1,8],"shifted_pitches":[13,11,8,13,11,7,3,13,8,6,1,8],"swapped_pitches":[13,11,8,13,11,3,8,13,8,6,1,8],"shift_direction":-1,"question_num":41,"has_decoy":false},{"rt":6104.29999999702,"stimulus":"[A] option 1, [L] option 2, [G] neither","key_press":71,"name":"choice","trial_type":"html-keyboard-response","trial_index":65,"time_elapsed":159926,"internal_node_id":"0.0-65.0","subject":"S1C1216","sona":"41596","block":5,"time":"2021-09-19T00:47:03.559Z","response":"neither","certainty":"high","char":"G","transposition":-1,"order":["shifted","swapped"],"probe_pitches":[3,5,9,3,-2,6,7,10,4,3,0,10],"shifted_pitches":[3,5,9,3,-2,6,8,10,4,3,0,10],"swapped_pitches":[3,5,9,3,-2,7,6,10,4,3,0,10],"shift_direction":1,"question_num":51,"has_decoy":false},{"rt":12613.69999999553,"stimulus":"[A] option 1, [L] option 2, [G] neither","key_press":65,"name":"choice","trial_type":"html-keyboard-response","trial_index":76,"time_elapsed":194884,"internal_node_id":"0.0-76.0","subject":"S1C1216","sona":"41596","block":5,"time":"2021-09-19T00:47:03.559Z","response":"1st","certainty":"high","char":"A","transposition":3,"order":["swapped","shifted"],"probe_pitches":[5,6,-1,6,0,6,-1,3,8,2,5,1],"shifted_pitches":[5,6,-1,6,0,7,-1,3,8,2,5,1],"swapped_pitches":[5,6,-1,6,0,-1,6,3,8,2,5,1],"shift_direction":1,"question_num":61,"has_decoy":false},{"rt":1189.6999999955297,"stimulus":"[A] option 1, [L] option 2, [G] neither","key_press":76,"name":"choice","trial_type":"html-keyboard-response","trial_index":87,"time_elapsed":215754,"internal_node_id":"0.0-87.0","subject":"S1C1216","sona":"41596","block":5,"time":"2021-09-19T00:47:03.559Z","response":"2nd","certainty":"high","char":"L","transposition":0,"order":["swapped","shifted"],"probe_pitches":[-2,3,10,6,3,7,5,2,-2,8,6,-1],"shifted_pitches":[-2,3,10,6,3,7,4,2,-2,8,6,-1],"swapped_pitches":[-2,3,10,6,3,5,7,2,-2,8,6,-1],"shift_direction":-1,"question_num":71,"has_decoy":false},{"rt":701.2999999970198,"stimulus":"[A] option 1, [L] option 2, [G] neither","key_press":76,"name":"choice","trial_type":"html-keyboard-response","trial_index":98,"time_elapsed":238605,"internal_node_id":"0.0-98.0","subject":"S1C1216","sona":"41596","block":5,"time":"2021-09-19T00:47:03.559Z","response":"2nd","certainty":"high","char":"L","transposition":-3,"order":["shifted","swapped"],"probe_pitches":[1,6,13,8,6,1,3,13,6,8,6,10],"shifted_pitches":[1,6,13,8,6,2,3,13,6,8,6,10],"swapped_pitches":[1,6,13,8,6,3,1,13,6,8,6,10],"shift_direction":1,"question_num":81,"has_decoy":false},{"rt":1041.4000000059605,"stimulus":"[A] option 1, [L] option 2, [G] neither","key_press":65,"name":"choice","trial_type":"html-keyboard-response","trial_index":109,"time_elapsed":258924,"internal_node_id":"0.0-109.0","subject":"S1C1216","sona":"41596","block":5,"time":"2021-09-19T00:47:03.559Z","response":"1st","certainty":"high","char":"A","transposition":1,"order":["shifted","swapped"],"probe_pitches":[13,8,6,10,3,8,6,10,13,1,8,13],"shifted_pitches":[13,8,6,10,3,8,5,10,13,1,8,13],"swapped_pitches":[13,8,6,10,3,6,8,10,13,1,8,13],"shift_direction":-1,"question_num":91,"has_decoy":false},{"rt":1886.1999999955297,"stimulus":"[A] option 1, [L] option 2, [G] neither","key_press":76,"name":"choice","trial_type":"html-keyboard-response","trial_index":120,"time_elapsed":280623,"internal_node_id":"0.0-120.0","subject":"S1C1216","sona":"41596","block":5,"time":"2021-09-19T00:47:03.559Z","response":"2nd","certainty":"high","char":"L","transposition":2,"order":["shifted","swapped"],"probe_pitches":[2,-2,1,0,2,10,6,9,-1,6,-1,7],"shifted_pitches":[2,-2,1,0,2,10,5,9,-1,6,-1,7],"swapped_pitches":[2,-2,1,0,2,6,10,9,-1,6,-1,7],"shift_direction":-1,"question_num":101,"has_decoy":false},{"rt":6101.20000000298,"stimulus":"[A] option 1, [L] option 2, [G] neither","key_press":76,"name":"choice","trial_type":"html-keyboard-response","trial_index":131,"time_elapsed":307810,"internal_node_id":"0.0-131.0","subject":"S1C1216","sona":"41596","block":5,"time":"2021-09-19T00:47:03.559Z","response":"2nd","certainty":"high","char":"L","transposition":-2,"order":["shifted","swapped"],"probe_pitches":[8,9,7,3,8,1,7,4,0,8,7,5],"shifted_pitches":[8,9,7,3,8,2,7,4,0,8,7,5],"swapped_pitches":[8,9,7,3,8,7,1,4,0,8,7,5],"shift_direction":1,"question_num":111,"has_decoy":false},{"rt":1403.2999999970198,"stimulus":"[A] option 1, [L] option 2, [G] neither","key_press":71,"name":"choice","trial_type":"html-keyboard-response","trial_index":142,"time_elapsed":333299,"internal_node_id":"0.0-142.0","subject":"S1C1216","sona":"41596","block":5,"time":"2021-09-19T00:47:03.559Z","response":"neither","certainty":"high","char":"G","transposition":-3,"order":["swapped","shifted"],"probe_pitches":[10,9,6,4,-1,2,6,-2,8,7,10,7],"shifted_pitches":[10,9,6,4,-1,3,6,-2,8,7,10,7],"swapped_pitches":[10,9,6,4,-1,6,2,-2,8,7,10,7],"shift_direction":1,"question_num":121,"has_decoy":false},{"rt":12490,"stimulus":"[A] option 1, [L] option 2, [G] neither","key_press":76,"name":"choice","trial_type":"html-keyboard-response","trial_index":153,"time_elapsed":366840,"internal_node_id":"0.0-153.0","subject":"S1C1216","sona":"41596","block":5,"time":"2021-09-19T00:47:03.559Z","response":"2nd","certainty":"high","char":"L","transposition":-1,"order":["swapped","shifted"],"probe_pitches":[4,8,11,13,4,13,6,11,13,1,4,8],"shifted_pitches":[4,8,11,13,4,13,7,11,13,1,4,8],"swapped_pitches":[4,8,11,13,4,6,13,11,13,1,4,8],"shift_direction":1,"question_num":131,"has_decoy":false},{"rt":6199.30000000447,"stimulus":"[A] option 1, [L] option 2, [G] neither","key_press":71,"name":"choice","trial_type":"html-keyboard-response","trial_index":164,"time_elapsed":392358,"internal_node_id":"0.0-164.0","subject":"S1C1216","sona":"41596","block":5,"time":"2021-09-19T00:47:03.559Z","response":"neither","certainty":"high","char":"G","transposition":3,"order":["swapped","shifted"],"probe_pitches":[6,4,8,6,13,11,1,13,8,4,13,4],"shifted_pitches":[6,4,8,6,13,11,0,13,8,4,13,4],"swapped_pitches":[6,4,8,6,13,1,11,13,8,4,13,4],"shift_direction":-1,"question_num":141,"has_decoy":false},{"rt":651.6999999955297,"stimulus":"[A] option 1, [L] option 2, [G] neither","key_press":65,"name":"choice","trial_type":"html-keyboard-response","trial_index":175,"time_elapsed":413942,"internal_node_id":"0.0-175.0","subject":"S1C1216","sona":"41596","block":5,"time":"2021-09-19T00:47:03.559Z","response":"1st","certainty":"high","char":"A","transposition":-2,"order":["swapped","shifted"],"probe_pitches":[4,1,4,6,1,9,11,1,9,4,9,13],"shifted_pitches":[4,1,4,6,1,9,12,1,9,4,9,13],"swapped_pitches":[4,1,4,6,1,11,9,1,9,4,9,13],"shift_direction":1,"question_num":151,"has_decoy":false},{"rt":2363.2000000029802,"stimulus":"[A] option 1, [L] option 2, [G] neither","key_press":71,"name":"choice","trial_type":"html-keyboard-response","trial_index":186,"time_elapsed":435051,"internal_node_id":"0.0-186.0","subject":"S1C1216","sona":"41596","block":5,"time":"2021-09-19T00:47:03.559Z","response":"neither","certainty":"high","char":"G","transposition":-1,"order":["shifted","swapped"],"probe_pitches":[2,-2,-1,2,6,-1,8,9,4,6,2,1],"shifted_pitches":[2,-2,-1,2,6,0,8,9,4,6,2,1],"swapped_pitches":[2,-2,-1,2,6,8,-1,9,4,6,2,1],"shift_direction":1,"question_num":161,"has_decoy":false},{"rt":810,"stimulus":"[A] option 1, [L] option 2, [G] neither","key_press":71,"name":"choice","trial_type":"html-keyboard-response","trial_index":197,"time_elapsed":508685,"internal_node_id":"0.0-197.0","subject":"S1C1216","sona":"41596","block":5,"time":"2021-09-19T00:47:03.559Z","response":"neither","certainty":"high","char":"G","transposition":-2,"order":["shifted","swapped"],"probe_pitches":[11,13,6,11,8,13,6,3,6,13,1,6],"shifted_pitches":[11,13,6,11,8,13,7,3,6,13,1,6],"swapped_pitches":[11,13,6,11,8,6,13,3,6,13,1,6],"shift_direction":1,"question_num":171,"has_decoy":false},{"rt":2139.7999999970198,"stimulus":"[A] option 1, [L] option 2, [G] neither","key_press":65,"name":"choice","trial_type":"html-keyboard-response","trial_index":208,"time_elapsed":530224,"internal_node_id":"0.0-208.0","subject":"S1C1216","sona":"41596","block":5,"time":"2021-09-19T00:47:03.559Z","response":"1st","certainty":"high","char":"A","transposition":-3,"order":["shifted","swapped"],"probe_pitches":[5,10,13,8,1,10,8,3,5,13,8,5],"shifted_pitches":[5,10,13,8,1,11,8,3,5,13,8,5],"swapped_pitches":[5,10,13,8,1,8,10,3,5,13,8,5],"shift_direction":1,"question_num":181,"has_decoy":false},{"rt":17951.10000000149,"stimulus":"[A] option 1, [L] option 2, [G] neither","key_press":71,"name":"choice","trial_type":"html-keyboard-response","trial_index":219,"time_elapsed":570836,"internal_node_id":"0.0-219.0","subject":"S1C1216","sona":"41596","block":5,"time":"2021-09-19T00:47:03.559Z","response":"neither","certainty":"high","char":"G","transposition":-1,"order":["swapped","shifted"],"probe_pitches":[13,9,13,11,4,6,13,1,9,11,6,13],"shifted_pitches":[13,9,13,11,4,5,13,1,9,11,6,13],"swapped_pitches":[13,9,13,11,4,13,6,1,9,11,6,13],"shift_direction":-1,"question_num":191,"has_decoy":false}]