[{"rt":6000.5,"stimulus":"[A] option 1, [L] option 2, [G] neither","key_press":76,"name":"choice","trial_type":"html-keyboard-response","trial_index":15,"time_elapsed":52071,"internal_node_id":"0.0-15.0","response":"2nd","certainty":"high","char":"L","transposition":-1,"order":["shifted","swapped"],"probe_pitches":[12,11,4,9,10,4,2,7,12,1,2,6],"shifted_pitches":[12,11,4,9,10,4,3,7,12,1,2,6],"swapped_pitches":[12,11,4,9,10,2,4,7,12,1,2,6],"shift_direction":1,"question_num":1,"has_decoy":false,"subject":"S1C1216","sona":"41596","block":1,"time":"2021-09-19T00:11:36.404Z"},{"rt":1986.7000000029802,"stimulus":"[A] option 1, [L] option 2, [G] neither","key_press":76,"name":"choice","trial_type":"html-keyboard-response","trial_index":26,"time_elapsed":74036,"internal_node_id":"0.0-26.0","response":"2nd","certainty":"high","char":"L","transposition":-1,"order":["shifted","swapped"],"probe_pitches":[3,0,5,11,3,1,7,4,6,10,5,11],"shifted_pitches":[3,0,5,11,3,2,7,4,6,10,5,11],"swapped_pitches":[3,0,5,11,3,7,1,4,6,10,5,11],"shift_direction":1,"question_num":11,"has_decoy":false,"subject":"S1C1216","sona":"41596","block":1,"time":"2021-09-19T00:11:36.404Z"},{"rt":3281.7999999970198,"stimulus":"[A] option 1, [L] option 2, [G] neither","key_press":76,"name":"choice","trial_type":"html-keyboard-response","trial_index":37,"time_elapsed":96905,"internal_node_id":"0.0-37.0","response":"2nd","certainty":"high","char":"L","transposition":-3,"order":["swapped","shifted"],"probe_pitches":[7,10,11,3,9,7,12,8,10,3,2,3],"shifted_pitches":[7,10,11,3,9,6,12,8,10,3,2,3],"swapped_pitches":[7,10,11,3,9,12,7,8,10,3,2,3],"shift_direction":-1,"question_num":21,"has_decoy":false,"subject":"S1C1216","sona":"41596","block":1,"time":"2021-09-19T00:11:36.404Z"},{"rt":4159.79999999702,"stimulus":"[A] option 1, [L] option 2, [G] neither","key_press":65,"name":"choice","trial_type":"html-keyboard-response","trial_index":48,"time_elapsed":121976,"internal_node_id":"0.0-48.0","response":"1st","certainty":"high","char":"A","transposition":1,"order":["swapped","shifted"],"probe_pitches":[3,2,5,2,9,5,3,9,6,12,0,3],"shifted_pitches":[3,2,5,2,9,4,3,9,6,12,0,3],"swapped_pitches":[3,2,5,2,9,3,5,9,6,12,0,3],"shift_direction":-1,"question_num":31,"has_decoy":false,"subject":"S1C1216","sona":"41596","block":1,"time":"2021-09-19T00:11:36.404Z"},{"rt":2901.6999999955297,"stimulus":"[A] option 1, [L] option 2, [G] neither","key_press":65,"name":"choice","trial_type":"html-keyboard-response","trial_index":59,"time_elapsed":146537,"internal_node_id":"0.0-59.0","response":"1st","certainty":"high","char":"A","transposition":2,"order":["swapped","shifted"],"probe_pitches":[11,7,3,10,3,11,7,10,7,6,5,12],"shifted_pitches":[11,7,3,10,3,11,8,10,7,6,5,12],"swapped_pitches":[11,7,3,10,3,7,11,10,7,6,5,12],"shift_direction":1,"question_num":41,"has_decoy":false,"subject":"S1C1216","sona":"41596","block":1,"time":"2021-09-19T00:11:36.404Z"},{"rt":1700.7999999970198,"stimulus":"[A] option 1, [L] option 2, [G] neither","key_press":76,"name":"choice","trial_type":"html-keyboard-response","trial_index":70,"time_elapsed":169717,"internal_node_id":"0.0-70.0","response":"2nd","certainty":"high","char":"L","transposition":-3,"order":["swapped","shifted"],"probe_pitches":[3,6,3,8,6,13,10,3,8,6,1,6],"shifted_pitches":[3,6,3,8,6,12,10,3,8,6,1,6],"swapped_pitches":[3,6,3,8,6,10,13,3,8,6,1,6],"shift_direction":-1,"question_num":51,"has_decoy":false,"subject":"S1C1216","sona":"41596","block":1,"time":"2021-09-19T00:11:36.404Z"},{"rt":667.1999999955297,"stimulus":"[A] option 1, [L] option 2, [G] neither","key_press":65,"name":"choice","trial_type":"html-keyboard-response","trial_index":81,"time_elapsed":191103,"internal_node_id":"0.0-81.0","response":"1st","certainty":"high","char":"A","transposition":3,"order":["shifted","swapped"],"probe_pitches":[1,4,11,8,4,1,6,13,4,1,13,1],"shifted_pitches":[1,4,11,8,4,0,6,13,4,1,13,1],"swapped_pitches":[1,4,11,8,4,6,1,13,4,1,13,1],"shift_direction":-1,"question_num":61,"has_decoy":false,"subject":"S1C1216","sona":"41596","block":1,"time":"2021-09-19T00:11:36.404Z"},{"rt":960.1000000014901,"stimulus":"[A] option 1, [L] option 2, [G] neither","key_press":65,"name":"choice","trial_type":"html-keyboard-response","trial_index":92,"time_elapsed":212810,"internal_node_id":"0.0-92.0","response":"1st","certainty":"high","char":"A","transposition":3,"order":["swapped","shifted"],"probe_pitches":[3,2,0,3,1,3,10,0,6,11,8,0],"shifted_pitches":[3,2,0,3,1,3,9,0,6,11,8,0],"swapped_pitches":[3,2,0,3,1,10,3,0,6,11,8,0],"shift_direction":-1,"question_num":71,"has_decoy":false,"subject":"S1C1216","sona":"41596","block":1,"time":"2021-09-19T00:11:36.404Z"},{"rt":3624,"stimulus":"[A] option 1, [L] option 2, [G] neither","key_press":71,"name":"choice","trial_type":"html-keyboard-response","trial_index":103,"time_elapsed":242077,"internal_node_id":"0.0-103.0","response":"neither","certainty":"high","char":"G","transposition":0,"order":["swapped","shifted"],"probe_pitches":[1,6,8,6,11,4,6,1,6,13,6,8],"shifted_pitches":[1,6,8,6,11,5,6,1,6,13,6,8],"swapped_pitches":[1,6,8,6,11,6,4,1,6,13,6,8],"shift_direction":1,"question_num":81,"has_decoy":false,"subject":"S1C1216","sona":"41596","block":1,"time":"2021-09-19T00:11:36.404Z"},{"rt":922.8999999985099,"stimulus":"[A] option 1, [L] option 2, [G] neither","key_press":76,"name":"choice","trial_type":"html-keyboard-response","trial_index":114,"time_elapsed":261595,"internal_node_id":"0.0-114.0","response":"2nd","certainty":"high","char":"L","transposition":-3,"order":["shifted","swapped"],"probe_pitches":[13,8,1,8,1,10,13,3,5,10,13,5],"shifted_pitches":[13,8,1,8,1,10,14,3,5,10,13,5],"swapped_pitches":[13,8,1,8,1,13,10,3,5,10,13,5],"shift_direction":1,"question_num":91,"has_decoy":false,"subject":"S1C1216","sona":"41596","block":1,"time":"2021-09-19T00:11:36.404Z"},{"rt":2768.10000000149,"stimulus":"[A] option 1, [L] option 2, [G] neither","key_press":71,"name":"choice","trial_type":"html-keyboard-response","trial_index":125,"time_elapsed":283190,"internal_node_id":"0.0-125.0","response":"neither","certainty":"high","char":"G","transposition":-1,"order":["shifted","swapped"],"probe_pitches":[11,6,4,9,11,13,4,9,4,9,13,11],"shifted_pitches":[11,6,4,9,11,13,5,9,4,9,13,11],"swapped_pitches":[11,6,4,9,11,4,13,9,4,9,13,11],"shift_direction":1,"question_num":101,"has_decoy":false,"subject":"S1C1216","sona":"41596","block":1,"time":"2021-09-19T00:11:36.404Z"},{"rt":1031.6999999955297,"stimulus":"[A] option 1, [L] option 2, [G] neither","key_press":65,"name":"choice","trial_type":"html-keyboard-response","trial_index":136,"time_elapsed":303785,"internal_node_id":"0.0-136.0","response":"1st","certainty":"high","char":"A","transposition":-2,"order":["shifted","swapped"],"probe_pitches":[13,10,13,10,1,10,3,13,8,3,6,13],"shifted_pitches":[13,10,13,10,1,10,2,13,8,3,6,13],"swapped_pitches":[13,10,13,10,1,3,10,13,8,3,6,13],"shift_direction":-1,"question_num":111,"has_decoy":false,"subject":"S1C1216","sona":"41596","block":1,"time":"2021-09-19T00:11:36.404Z"},{"rt":5893.60000000149,"stimulus":"[A] option 1, [L] option 2, [G] neither","key_press":71,"name":"choice","trial_type":"html-keyboard-response","trial_index":147,"time_elapsed":329762,"internal_node_id":"0.0-147.0","response":"neither","certainty":"high","char":"G","transposition":-3,"order":["shifted","swapped"],"probe_pitches":[3,8,5,2,3,8,9,11,4,0,11,2],"shifted_pitches":[3,8,5,2,3,8,10,11,4,0,11,2],"swapped_pitches":[3,8,5,2,3,9,8,11,4,0,11,2],"shift_direction":1,"question_num":121,"has_decoy":false,"subject":"S1C1216","sona":"41596","block":1,"time":"2021-09-19T00:11:36.404Z"},{"rt":443.69999999552965,"stimulus":"[A] option 1, [L] option 2, [G] neither","key_press":76,"name":"choice","trial_type":"html-keyboard-response","trial_index":158,"time_elapsed":349374,"internal_node_id":"0.0-158.0","response":"2nd","certainty":"high","char":"L","transposition":2,"order":["swapped","shifted"],"probe_pitches":[13,9,11,6,11,6,1,9,11,4,11,6],"shifted_pitches":[13,9,11,6,11,5,1,9,11,4,11,6],"swapped_pitches":[13,9,11,6,11,1,6,9,11,4,11,6],"shift_direction":-1,"question_num":131,"has_decoy":false,"subject":"S1C1216","sona":"41596","block":1,"time":"2021-09-19T00:11:36.404Z"},{"rt":1234.6000000014901,"stimulus":"[A] option 1, [L] option 2, [G] neither","key_press":65,"name":"choice","trial_type":"html-keyboard-response","trial_index":169,"time_elapsed":370459,"internal_node_id":"0.0-169.0","response":"1st","certainty":"high","char":"A","transposition":-2,"order":["swapped","shifted"],"probe_pitches":[3,5,2,4,3,10,0,4,7,10,3,1],"shifted_pitches":[3,5,2,4,3,11,0,4,7,10,3,1],"swapped_pitches":[3,5,2,4,3,0,10,4,7,10,3,1],"shift_direction":1,"question_num":141,"has_decoy":false,"subject":"S1C1216","sona":"41596","block":1,"time":"2021-09-19T00:11:36.404Z"},{"rt":1445.1000000014901,"stimulus":"[A] option 1, [L] option 2, [G] neither","key_press":65,"name":"choice","trial_type":"html-keyboard-response","trial_index":180,"time_elapsed":392354,"internal_node_id":"0.0-180.0","response":"1st","certainty":"high","char":"A","transposition":-2,"order":["shifted","swapped"],"probe_pitches":[0,3,10,5,2,8,10,1,8,11,5,2],"shifted_pitches":[0,3,10,5,2,7,10,1,8,11,5,2],"swapped_pitches":[0,3,10,5,2,10,8,1,8,11,5,2],"shift_direction":-1,"question_num":151,"has_decoy":false,"subject":"S1C1216","sona":"41596","block":1,"time":"2021-09-19T00:11:36.404Z"},{"rt":510.29999999701977,"stimulus":"[A] option 1, [L] option 2, [G] neither","key_press":76,"name":"choice","trial_type":"html-keyboard-response","trial_index":191,"time_elapsed":412856,"internal_node_id":"0.0-191.0","response":"2nd","certainty":"high","char":"L","transposition":0,"order":["shifted","swapped"],"probe_pitches":[11,12,10,9,7,12,6,10,8,10,7,1],"shifted_pitches":[11,12,10,9,7,12,5,10,8,10,7,1],"swapped_pitches":[11,12,10,9,7,6,12,10,8,10,7,1],"shift_direction":-1,"question_num":161,"has_decoy":false,"subject":"S1C1216","sona":"41596","block":1,"time":"2021-09-19T00:11:36.404Z"},{"rt":3221.0999999940395,"stimulus":"[A] option 1, [L] option 2, [G] neither","key_press":71,"name":"choice","trial_type":"html-keyboard-response","trial_index":202,"time_elapsed":438202,"internal_node_id":"0.0-202.0","response":"neither","certainty":"high","char":"G","transposition":-1,"order":["swapped","shifted"],"probe_pitches":[10,13,8,1,5,10,8,1,5,8,3,1],"shifted_pitches":[10,13,8,1,5,10,7,1,5,8,3,1],"swapped_pitches":[10,13,8,1,5,8,10,1,5,8,3,1],"shift_direction":-1,"question_num":171,"has_decoy":false,"subject":"S1C1216","sona":"41596","block":1,"time":"2021-09-19T00:11:36.404Z"},{"rt":526.1000000014901,"stimulus":"[A] option 1, [L] option 2, [G] neither","key_press":76,"name":"choice","trial_type":"html-keyboard-response","trial_index":213,"time_elapsed":460947,"internal_node_id":"0.0-213.0","response":"2nd","certainty":"high","char":"L","transposition":1,"order":["shifted","swapped"],"probe_pitches":[8,6,3,8,3,13,11,8,11,13,1,13],"shifted_pitches":[8,6,3,8,3,13,12,8,11,13,1,13],"swapped_pitches":[8,6,3,8,3,11,13,8,11,13,1,13],"shift_direction":1,"question_num":181,"has_decoy":false,"subject":"S1C1216","sona":"41596","block":1,"time":"2021-09-19T00:11:36.404Z"},{"rt":6823.4000000059605,"stimulus":"[A] option 1, [L] option 2, [G] neither","key_press":76,"name":"choice","trial_type":"html-keyboard-response","trial_index":224,"time_elapsed":486776,"internal_node_id":"0.0-224.0","response":"2nd","certainty":"high","char":"L","transposition":-2,"order":["swapped","shifted"],"probe_pitches":[13,11,13,8,1,11,3,13,1,8,1,6],"shifted_pitches":[13,11,13,8,1,12,3,13,1,8,1,6],"swapped_pitches":[13,11,13,8,1,3,11,13,1,8,1,6],"shift_direction":1,"question_num":191,"has_decoy":false,"subject":"S1C1216","sona":"41596","block":1,"time":"2021-09-19T00:11:36.404Z"}]