[{"rt":5096.20000000298,"stimulus":"[A] option 1, [L] option 2, [G] neither","key_press":65,"name":"choice","trial_type":"html-keyboard-response","trial_index":10,"time_elapsed":31232,"internal_node_id":"0.0-10.0","subject":"S1C1216","sona":"41596","block":2,"time":"2021-09-19T00:20:20.644Z","response":"1st","certainty":"high","char":"A","transposition":-1,"order":["shifted","swapped"],"probe_pitches":[10,7,6,10,3,2,10,1,5,7,1,12],"shifted_pitches":[10,7,6,10,3,2,9,1,5,7,1,12],"swapped_pitches":[10,7,6,10,3,10,2,1,5,7,1,12],"shift_direction":-1,"question_num":1,"has_decoy":false},{"rt":5318.60000000149,"stimulus":"[A] option 1, [L] option 2, [G] neither","key_press":76,"name":"choice","trial_type":"html-keyboard-response","trial_index":21,"time_elapsed":56186,"internal_node_id":"0.0-21.0","subject":"S1C1216","sona":"41596","block":2,"time":"2021-09-19T00:20:20.644Z","response":"2nd","certainty":"high","char":"L","transposition":-2,"order":["swapped","shifted"],"probe_pitches":[10,5,10,3,0,3,7,10,0,7,0,5],"shifted_pitches":[10,5,10,3,0,2,7,10,0,7,0,5],"swapped_pitches":[10,5,10,3,0,7,3,10,0,7,0,5],"shift_direction":-1,"question_num":11,"has_decoy":false},{"rt":870.8999999985099,"stimulus":"[A] option 1, [L] option 2, [G] neither","key_press":76,"name":"choice","trial_type":"html-keyboard-response","trial_index":32,"time_elapsed":79947,"internal_node_id":"0.0-32.0","subject":"S1C1216","sona":"41596","block":2,"time":"2021-09-19T00:20:20.644Z","response":"2nd","certainty":"high","char":"L","transposition":1,"order":["swapped","shifted"],"probe_pitches":[4,5,7,5,8,2,6,7,4,5,9,8],"shifted_pitches":[4,5,7,5,8,3,6,7,4,5,9,8],"swapped_pitches":[4,5,7,5,8,6,2,7,4,5,9,8],"shift_direction":1,"question_num":21,"has_decoy":false},{"rt":319.79999999701977,"stimulus":"[A] option 1, [L] option 2, [G] neither","key_press":76,"name":"choice","trial_type":"html-keyboard-response","trial_index":43,"time_elapsed":98564,"internal_node_id":"0.0-43.0","subject":"S1C1216","sona":"41596","block":2,"time":"2021-09-19T00:20:20.644Z","response":"2nd","certainty":"high","char":"L","transposition":2,"order":["swapped","shifted"],"probe_pitches":[3,1,8,10,1,8,-2,1,-2,6,8,-2],"shifted_pitches":[3,1,8,10,1,8,-1,1,-2,6,8,-2],"swapped_pitches":[3,1,8,10,1,-2,8,1,-2,6,8,-2],"shift_direction":1,"question_num":31,"has_decoy":false},{"rt":1767.6999999955297,"stimulus":"[A] option 1, [L] option 2, [G] neither","key_press":71,"name":"choice","trial_type":"html-keyboard-response","trial_index":54,"time_elapsed":119309,"internal_node_id":"0.0-54.0","subject":"S1C1216","sona":"41596","block":2,"time":"2021-09-19T00:20:20.644Z","response":"neither","certainty":"high","char":"G","transposition":-1,"order":["swapped","shifted"],"probe_pitches":[0,3,0,-2,5,8,3,5,-2,3,5,-2],"shifted_pitches":[0,3,0,-2,5,9,3,5,-2,3,5,-2],"swapped_pitches":[0,3,0,-2,5,3,8,5,-2,3,5,-2],"shift_direction":1,"question_num":41,"has_decoy":false},{"rt":2611.10000000149,"stimulus":"[A] option 1, [L] option 2, [G] neither","key_press":76,"name":"choice","trial_type":"html-keyboard-response","trial_index":65,"time_elapsed":142805,"internal_node_id":"0.0-65.0","subject":"S1C1216","sona":"41596","block":2,"time":"2021-09-19T00:20:20.644Z","response":"2nd","certainty":"high","char":"L","transposition":-3,"order":["shifted","swapped"],"probe_pitches":[8,10,8,5,-2,1,3,5,3,1,5,3],"shifted_pitches":[8,10,8,5,-2,1,4,5,3,1,5,3],"swapped_pitches":[8,10,8,5,-2,3,1,5,3,1,5,3],"shift_direction":1,"question_num":51,"has_decoy":false},{"rt":418.20000000298023,"stimulus":"[A] option 1, [L] option 2, [G] neither","key_press":65,"name":"choice","trial_type":"html-keyboard-response","trial_index":76,"time_elapsed":162621,"internal_node_id":"0.0-76.0","subject":"S1C1216","sona":"41596","block":2,"time":"2021-09-19T00:20:20.644Z","response":"1st","certainty":"high","char":"A","transposition":-3,"order":["swapped","shifted"],"probe_pitches":[8,3,8,12,7,10,0,8,7,8,9,7],"shifted_pitches":[8,3,8,12,7,11,0,8,7,8,9,7],"swapped_pitches":[8,3,8,12,7,0,10,8,7,8,9,7],"shift_direction":1,"question_num":61,"has_decoy":false},{"rt":15199,"stimulus":"[A] option 1, [L] option 2, [G] neither","key_press":71,"name":"choice","trial_type":"html-keyboard-response","trial_index":87,"time_elapsed":196326,"internal_node_id":"0.0-87.0","subject":"S1C1216","sona":"41596","block":2,"time":"2021-09-19T00:20:20.644Z","response":"neither","certainty":"high","char":"G","transposition":-1,"order":["shifted","swapped"],"probe_pitches":[10,5,3,10,3,5,0,3,8,-2,8,10],"shifted_pitches":[10,5,3,10,3,5,-1,3,8,-2,8,10],"swapped_pitches":[10,5,3,10,3,0,5,3,8,-2,8,10],"shift_direction":-1,"question_num":71,"has_decoy":false},{"rt":2340.39999999851,"stimulus":"[A] option 1, [L] option 2, [G] neither","key_press":76,"name":"choice","trial_type":"html-keyboard-response","trial_index":98,"time_elapsed":221062,"internal_node_id":"0.0-98.0","subject":"S1C1216","sona":"41596","block":2,"time":"2021-09-19T00:20:20.644Z","response":"2nd","certainty":"high","char":"L","transposition":3,"order":["swapped","shifted"],"probe_pitches":[10,5,0,-2,7,0,5,7,0,5,0,2],"shifted_pitches":[10,5,0,-2,7,0,6,7,0,5,0,2],"swapped_pitches":[10,5,0,-2,7,5,0,7,0,5,0,2],"shift_direction":1,"question_num":81,"has_decoy":false},{"rt":953.7999999970198,"stimulus":"[A] option 1, [L] option 2, [G] neither","key_press":65,"name":"choice","trial_type":"html-keyboard-response","trial_index":109,"time_elapsed":242988,"internal_node_id":"0.0-109.0","subject":"S1C1216","sona":"41596","block":2,"time":"2021-09-19T00:20:20.644Z","response":"1st","certainty":"high","char":"A","transposition":-1,"order":["shifted","swapped"],"probe_pitches":[3,6,1,2,5,1,6,2,8,1,10,3],"shifted_pitches":[3,6,1,2,5,1,7,2,8,1,10,3],"swapped_pitches":[3,6,1,2,5,6,1,2,8,1,10,3],"shift_direction":1,"question_num":91,"has_decoy":false},{"rt":1059.0999999940395,"stimulus":"[A] option 1, [L] option 2, [G] neither","key_press":65,"name":"choice","trial_type":"html-keyboard-response","trial_index":120,"time_elapsed":263169,"internal_node_id":"0.0-120.0","subject":"S1C1216","sona":"41596","block":2,"time":"2021-09-19T00:20:20.644Z","response":"1st","certainty":"high","char":"A","transposition":-2,"order":["shifted","swapped"],"probe_pitches":[2,7,10,5,12,7,0,1,5,7,3,9],"shifted_pitches":[2,7,10,5,12,6,0,1,5,7,3,9],"swapped_pitches":[2,7,10,5,12,0,7,1,5,7,3,9],"shift_direction":-1,"question_num":101,"has_decoy":false},{"rt":2766.89999999851,"stimulus":"[A] option 1, [L] option 2, [G] neither","key_press":71,"name":"choice","trial_type":"html-keyboard-response","trial_index":131,"time_elapsed":284877,"internal_node_id":"0.0-131.0","subject":"S1C1216","sona":"41596","block":2,"time":"2021-09-19T00:20:20.644Z","response":"neither","certainty":"high","char":"G","transposition":2,"order":["swapped","shifted"],"probe_pitches":[6,0,3,6,1,3,11,9,0,11,4,6],"shifted_pitches":[6,0,3,6,1,2,11,9,0,11,4,6],"swapped_pitches":[6,0,3,6,1,11,3,9,0,11,4,6],"shift_direction":-1,"question_num":111,"has_decoy":false},{"rt":503.3999999985099,"stimulus":"[A] option 1, [L] option 2, [G] neither","key_press":65,"name":"choice","trial_type":"html-keyboard-response","trial_index":142,"time_elapsed":303883,"internal_node_id":"0.0-142.0","subject":"S1C1216","sona":"41596","block":2,"time":"2021-09-19T00:20:20.644Z","response":"1st","certainty":"high","char":"A","transposition":0,"order":["shifted","swapped"],"probe_pitches":[0,3,-2,0,5,-2,0,10,7,5,-2,7],"shifted_pitches":[0,3,-2,0,5,-3,0,10,7,5,-2,7],"swapped_pitches":[0,3,-2,0,5,0,-2,10,7,5,-2,7],"shift_direction":-1,"question_num":121,"has_decoy":false},{"rt":1425.1999999955297,"stimulus":"[A] option 1, [L] option 2, [G] neither","key_press":65,"name":"choice","trial_type":"html-keyboard-response","trial_index":153,"time_elapsed":323589,"internal_node_id":"0.0-153.0","subject":"S1C1216","sona":"41596","block":2,"time":"2021-09-19T00:20:20.644Z","response":"1st","certainty":"high","char":"A","transposition":-3,"order":["shifted","swapped"],"probe_pitches":[10,7,0,-2,7,10,2,-2,5,-2,10,5],"shifted_pitches":[10,7,0,-2,7,10,3,-2,5,-2,10,5],"swapped_pitches":[10,7,0,-2,7,2,10,-2,5,-2,10,5],"shift_direction":1,"question_num":131,"has_decoy":false},{"rt":3139.89999999851,"stimulus":"[A] option 1, [L] option 2, [G] neither","key_press":76,"name":"choice","trial_type":"html-keyboard-response","trial_index":164,"time_elapsed":414056,"internal_node_id":"0.0-164.0","subject":"S1C1216","sona":"41596","block":2,"time":"2021-09-19T00:20:20.644Z","response":"2nd","certainty":"high","char":"L","transposition":1,"order":["swapped","shifted"],"probe_pitches":[3,-2,3,1,-2,3,10,6,-2,8,-2,6],"shifted_pitches":[3,-2,3,1,-2,2,10,6,-2,8,-2,6],"swapped_pitches":[3,-2,3,1,-2,10,3,6,-2,8,-2,6],"shift_direction":-1,"question_num":141,"has_decoy":false},{"rt":4868.20000000298,"stimulus":"[A] option 1, [L] option 2, [G] neither","key_press":71,"name":"choice","trial_type":"html-keyboard-response","trial_index":175,"time_elapsed":437854,"internal_node_id":"0.0-175.0","subject":"S1C1216","sona":"41596","block":2,"time":"2021-09-19T00:20:20.644Z","response":"neither","certainty":"high","char":"G","transposition":-3,"order":["swapped","shifted"],"probe_pitches":[10,8,6,3,7,4,9,8,6,4,10,6],"shifted_pitches":[10,8,6,3,7,5,9,8,6,4,10,6],"swapped_pitches":[10,8,6,3,7,9,4,8,6,4,10,6],"shift_direction":1,"question_num":151,"has_decoy":false},{"rt":4913.89999999851,"stimulus":"[A] option 1, [L] option 2, [G] neither","key_press":65,"name":"choice","trial_type":"html-keyboard-response","trial_index":186,"time_elapsed":461361,"internal_node_id":"0.0-186.0","subject":"S1C1216","sona":"41596","block":2,"time":"2021-09-19T00:20:20.644Z","response":"1st","certainty":"high","char":"A","transposition":0,"order":["swapped","shifted"],"probe_pitches":[9,10,7,12,10,6,9,2,1,11,1,0],"shifted_pitches":[9,10,7,12,10,6,8,2,1,11,1,0],"swapped_pitches":[9,10,7,12,10,9,6,2,1,11,1,0],"shift_direction":-1,"question_num":161,"has_decoy":false},{"rt":1693,"stimulus":"[A] option 1, [L] option 2, [G] neither","key_press":65,"name":"choice","trial_type":"html-keyboard-response","trial_index":197,"time_elapsed":481410,"internal_node_id":"0.0-197.0","subject":"S1C1216","sona":"41596","block":2,"time":"2021-09-19T00:20:20.644Z","response":"1st","certainty":"high","char":"A","transposition":3,"order":["shifted","swapped"],"probe_pitches":[11,7,9,5,12,2,5,7,0,11,1,11],"shifted_pitches":[11,7,9,5,12,2,4,7,0,11,1,11],"swapped_pitches":[11,7,9,5,12,5,2,7,0,11,1,11],"shift_direction":-1,"question_num":171,"has_decoy":false},{"rt":426.5,"stimulus":"[A] option 1, [L] option 2, [G] neither","key_press":65,"name":"choice","trial_type":"html-keyboard-response","trial_index":208,"time_elapsed":500491,"internal_node_id":"0.0-208.0","subject":"S1C1216","sona":"41596","block":2,"time":"2021-09-19T00:20:20.644Z","response":"1st","certainty":"high","char":"A","transposition":-2,"order":["shifted","swapped"],"probe_pitches":[8,10,8,3,5,10,8,3,8,3,8,1],"shifted_pitches":[8,10,8,3,5,9,8,3,8,3,8,1],"swapped_pitches":[8,10,8,3,5,8,10,3,8,3,8,1],"shift_direction":-1,"question_num":181,"has_decoy":false},{"rt":2444.6999999955297,"stimulus":"[A] option 1, [L] option 2, [G] neither","key_press":76,"name":"choice","trial_type":"html-keyboard-response","trial_index":219,"time_elapsed":521261,"internal_node_id":"0.0-219.0","subject":"S1C1216","sona":"41596","block":2,"time":"2021-09-19T00:20:20.644Z","response":"2nd","certainty":"high","char":"L","transposition":-2,"order":["shifted","swapped"],"probe_pitches":[3,8,7,3,5,11,9,12,6,2,4,9],"shifted_pitches":[3,8,7,3,5,11,10,12,6,2,4,9],"swapped_pitches":[3,8,7,3,5,9,11,12,6,2,4,9],"shift_direction":1,"question_num":191,"has_decoy":false}]