[{"rt":4474.29999999993,"stimulus":"[A] option 1, [L] option 2, [G] neither","key_press":76,"name":"choice","trial_type":"html-keyboard-response","trial_index":15,"time_elapsed":100183,"internal_node_id":"0.0-15.0","response":"2nd","certainty":"high","char":"L","transposition":-3,"order":["swapped","shifted"],"probe_pitches":[4,2,5,12,9,2,8,7,10,2,4,12],"shifted_pitches":[4,2,5,12,9,3,8,7,10,2,4,12],"swapped_pitches":[4,2,5,12,9,8,2,7,10,2,4,12],"shift_direction":1,"question_num":1,"has_decoy":false,"subject":"S1C1253","sona":"41803","block":1,"time":"2021-09-22T06:37:40.291Z"},{"rt":4423.5,"stimulus":"[A] option 1, [L] option 2, [G] neither","key_press":76,"name":"choice","trial_type":"html-keyboard-response","trial_index":26,"time_elapsed":124022,"internal_node_id":"0.0-26.0","response":"2nd","certainty":"high","char":"L","transposition":-3,"order":["swapped","shifted"],"probe_pitches":[7,4,2,7,2,4,11,2,9,2,11,9],"shifted_pitches":[7,4,2,7,2,3,11,2,9,2,11,9],"swapped_pitches":[7,4,2,7,2,11,4,2,9,2,11,9],"shift_direction":-1,"question_num":11,"has_decoy":false,"subject":"S1C1253","sona":"41803","block":1,"time":"2021-09-22T06:37:40.291Z"},{"rt":497.5999999999767,"stimulus":"[A] option 1, [L] option 2, [G] neither","key_press":65,"name":"choice","trial_type":"html-keyboard-response","trial_index":37,"time_elapsed":144057,"internal_node_id":"0.0-37.0","response":"1st","certainty":"high","char":"A","transposition":2,"order":["shifted","swapped"],"probe_pitches":[8,6,1,4,-1,1,4,8,6,-1,4,6],"shifted_pitches":[8,6,1,4,-1,1,5,8,6,-1,4,6],"swapped_pitches":[8,6,1,4,-1,4,1,8,6,-1,4,6],"shift_direction":1,"question_num":21,"has_decoy":false,"subject":"S1C1253","sona":"41803","block":1,"time":"2021-09-22T06:37:40.291Z"},{"rt":1230.5999999999767,"stimulus":"[A] option 1, [L] option 2, [G] neither","key_press":76,"name":"choice","trial_type":"html-keyboard-response","trial_index":48,"time_elapsed":164250,"internal_node_id":"0.0-48.0","response":"2nd","certainty":"high","char":"L","transposition":2,"order":["shifted","swapped"],"probe_pitches":[3,5,12,5,6,11,13,4,8,4,12,2],"shifted_pitches":[3,5,12,5,6,10,13,4,8,4,12,2],"swapped_pitches":[3,5,12,5,6,13,11,4,8,4,12,2],"shift_direction":-1,"question_num":31,"has_decoy":false,"subject":"S1C1253","sona":"41803","block":1,"time":"2021-09-22T06:37:40.291Z"},{"rt":780.6999999999534,"stimulus":"[A] option 1, [L] option 2, [G] neither","key_press":76,"name":"choice","trial_type":"html-keyboard-response","trial_index":59,"time_elapsed":184001,"internal_node_id":"0.0-59.0","response":"2nd","certainty":"high","char":"L","transposition":-1,"order":["swapped","shifted"],"probe_pitches":[3,9,12,6,9,12,13,1,10,2,8,4],"shifted_pitches":[3,9,12,6,9,11,13,1,10,2,8,4],"swapped_pitches":[3,9,12,6,9,13,12,1,10,2,8,4],"shift_direction":-1,"question_num":41,"has_decoy":false,"subject":"S1C1253","sona":"41803","block":1,"time":"2021-09-22T06:37:40.291Z"},{"rt":1115.3999999999069,"stimulus":"[A] option 1, [L] option 2, [G] neither","key_press":65,"name":"choice","trial_type":"html-keyboard-response","trial_index":70,"time_elapsed":203705,"internal_node_id":"0.0-70.0","response":"1st","certainty":"high","char":"A","transposition":-2,"order":["shifted","swapped"],"probe_pitches":[1,4,7,9,8,10,4,11,13,9,7,6],"shifted_pitches":[1,4,7,9,8,10,5,11,13,9,7,6],"swapped_pitches":[1,4,7,9,8,4,10,11,13,9,7,6],"shift_direction":1,"question_num":51,"has_decoy":false,"subject":"S1C1253","sona":"41803","block":1,"time":"2021-09-22T06:37:40.291Z"},{"rt":729.8000000000466,"stimulus":"[A] option 1, [L] option 2, [G] neither","key_press":76,"name":"choice","trial_type":"html-keyboard-response","trial_index":81,"time_elapsed":224573,"internal_node_id":"0.0-81.0","response":"2nd","certainty":"high","char":"L","transposition":1,"order":["swapped","shifted"],"probe_pitches":[8,4,6,8,-1,8,1,6,8,1,-1,1],"shifted_pitches":[8,4,6,8,-1,8,2,6,8,1,-1,1],"swapped_pitches":[8,4,6,8,-1,1,8,6,8,1,-1,1],"shift_direction":1,"question_num":61,"has_decoy":false,"subject":"S1C1253","sona":"41803","block":1,"time":"2021-09-22T06:37:40.291Z"},{"rt":597.3999999999069,"stimulus":"[A] option 1, [L] option 2, [G] neither","key_press":65,"name":"choice","trial_type":"html-keyboard-response","trial_index":92,"time_elapsed":243512,"internal_node_id":"0.0-92.0","response":"1st","certainty":"high","char":"A","transposition":-2,"order":["shifted","swapped"],"probe_pitches":[-1,4,-1,2,4,-1,2,6,9,11,-1,11],"shifted_pitches":[-1,4,-1,2,4,-2,2,6,9,11,-1,11],"swapped_pitches":[-1,4,-1,2,4,2,-1,6,9,11,-1,11],"shift_direction":-1,"question_num":71,"has_decoy":false,"subject":"S1C1253","sona":"41803","block":1,"time":"2021-09-22T06:37:40.291Z"},{"rt":459.80000000004657,"stimulus":"[A] option 1, [L] option 2, [G] neither","key_press":76,"name":"choice","trial_type":"html-keyboard-response","trial_index":103,"time_elapsed":262279,"internal_node_id":"0.0-103.0","response":"2nd","certainty":"high","char":"L","transposition":0,"order":["swapped","shifted"],"probe_pitches":[11,10,13,11,8,6,11,7,6,3,1,7],"shifted_pitches":[11,10,13,11,8,6,12,7,6,3,1,7],"swapped_pitches":[11,10,13,11,8,11,6,7,6,3,1,7],"shift_direction":1,"question_num":81,"has_decoy":false,"subject":"S1C1253","sona":"41803","block":1,"time":"2021-09-22T06:37:40.291Z"},{"rt":460.79999999993015,"stimulus":"[A] option 1, [L] option 2, [G] neither","key_press":65,"name":"choice","trial_type":"html-keyboard-response","trial_index":114,"time_elapsed":281022,"internal_node_id":"0.0-114.0","response":"1st","certainty":"high","char":"A","transposition":3,"order":["shifted","swapped"],"probe_pitches":[6,4,6,1,6,9,11,6,11,1,6,9],"shifted_pitches":[6,4,6,1,6,9,10,6,11,1,6,9],"swapped_pitches":[6,4,6,1,6,11,9,6,11,1,6,9],"shift_direction":-1,"question_num":91,"has_decoy":false,"subject":"S1C1253","sona":"41803","block":1,"time":"2021-09-22T06:37:40.291Z"},{"rt":427.30000000004657,"stimulus":"[A] option 1, [L] option 2, [G] neither","key_press":76,"name":"choice","trial_type":"html-keyboard-response","trial_index":125,"time_elapsed":299724,"internal_node_id":"0.0-125.0","response":"2nd","certainty":"high","char":"L","transposition":0,"order":["swapped","shifted"],"probe_pitches":[-1,1,6,3,1,-1,8,1,11,-1,3,8],"shifted_pitches":[-1,1,6,3,1,0,8,1,11,-1,3,8],"swapped_pitches":[-1,1,6,3,1,8,-1,1,11,-1,3,8],"shift_direction":1,"question_num":101,"has_decoy":false,"subject":"S1C1253","sona":"41803","block":1,"time":"2021-09-22T06:37:40.291Z"},{"rt":351,"stimulus":"[A] option 1, [L] option 2, [G] neither","key_press":76,"name":"choice","trial_type":"html-keyboard-response","trial_index":136,"time_elapsed":318303,"internal_node_id":"0.0-136.0","response":"2nd","certainty":"high","char":"L","transposition":-2,"order":["shifted","swapped"],"probe_pitches":[9,11,4,11,4,9,1,6,9,-1,11,9],"shifted_pitches":[9,11,4,11,4,8,1,6,9,-1,11,9],"swapped_pitches":[9,11,4,11,4,1,9,6,9,-1,11,9],"shift_direction":-1,"question_num":111,"has_decoy":false,"subject":"S1C1253","sona":"41803","block":1,"time":"2021-09-22T06:37:40.291Z"},{"rt":1285.8999999999069,"stimulus":"[A] option 1, [L] option 2, [G] neither","key_press":76,"name":"choice","trial_type":"html-keyboard-response","trial_index":147,"time_elapsed":338136,"internal_node_id":"0.0-147.0","response":"2nd","certainty":"high","char":"L","transposition":1,"order":["swapped","shifted"],"probe_pitches":[9,12,7,1,4,5,1,7,2,13,11,8],"shifted_pitches":[9,12,7,1,4,6,1,7,2,13,11,8],"swapped_pitches":[9,12,7,1,4,1,5,7,2,13,11,8],"shift_direction":1,"question_num":121,"has_decoy":false,"subject":"S1C1253","sona":"41803","block":1,"time":"2021-09-22T06:37:40.291Z"},{"rt":553.5,"stimulus":"[A] option 1, [L] option 2, [G] neither","key_press":76,"name":"choice","trial_type":"html-keyboard-response","trial_index":158,"time_elapsed":357588,"internal_node_id":"0.0-158.0","response":"2nd","certainty":"high","char":"L","transposition":-2,"order":["swapped","shifted"],"probe_pitches":[12,11,10,2,11,9,5,6,13,7,6,8],"shifted_pitches":[12,11,10,2,11,9,4,6,13,7,6,8],"swapped_pitches":[12,11,10,2,11,5,9,6,13,7,6,8],"shift_direction":-1,"question_num":131,"has_decoy":false,"subject":"S1C1253","sona":"41803","block":1,"time":"2021-09-22T06:37:40.291Z"},{"rt":468.19999999995343,"stimulus":"[A] option 1, [L] option 2, [G] neither","key_press":65,"name":"choice","trial_type":"html-keyboard-response","trial_index":169,"time_elapsed":377223,"internal_node_id":"0.0-169.0","response":"1st","certainty":"high","char":"A","transposition":-1,"order":["shifted","swapped"],"probe_pitches":[12,6,4,5,13,10,3,13,2,13,6,3],"shifted_pitches":[12,6,4,5,13,9,3,13,2,13,6,3],"swapped_pitches":[12,6,4,5,13,3,10,13,2,13,6,3],"shift_direction":-1,"question_num":141,"has_decoy":false,"subject":"S1C1253","sona":"41803","block":1,"time":"2021-09-22T06:37:40.291Z"},{"rt":842.5,"stimulus":"[A] option 1, [L] option 2, [G] neither","key_press":65,"name":"choice","trial_type":"html-keyboard-response","trial_index":180,"time_elapsed":396664,"internal_node_id":"0.0-180.0","response":"1st","certainty":"high","char":"A","transposition":3,"order":["shifted","swapped"],"probe_pitches":[6,1,7,10,12,2,9,12,5,9,2,5],"shifted_pitches":[6,1,7,10,12,2,8,12,5,9,2,5],"swapped_pitches":[6,1,7,10,12,9,2,12,5,9,2,5],"shift_direction":-1,"question_num":151,"has_decoy":false,"subject":"S1C1253","sona":"41803","block":1,"time":"2021-09-22T06:37:40.291Z"},{"rt":458.89999999990687,"stimulus":"[A] option 1, [L] option 2, [G] neither","key_press":65,"name":"choice","trial_type":"html-keyboard-response","trial_index":191,"time_elapsed":416116,"internal_node_id":"0.0-191.0","response":"1st","certainty":"high","char":"A","transposition":-1,"order":["swapped","shifted"],"probe_pitches":[8,6,11,6,3,-1,1,8,-1,8,11,6],"shifted_pitches":[8,6,11,6,3,-1,2,8,-1,8,11,6],"swapped_pitches":[8,6,11,6,3,1,-1,8,-1,8,11,6],"shift_direction":1,"question_num":161,"has_decoy":false,"subject":"S1C1253","sona":"41803","block":1,"time":"2021-09-22T06:37:40.291Z"},{"rt":350.69999999995343,"stimulus":"[A] option 1, [L] option 2, [G] neither","key_press":65,"name":"choice","trial_type":"html-keyboard-response","trial_index":202,"time_elapsed":435285,"internal_node_id":"0.0-202.0","response":"1st","certainty":"high","char":"A","transposition":-3,"order":["shifted","swapped"],"probe_pitches":[12,10,3,2,10,8,6,11,3,10,6,1],"shifted_pitches":[12,10,3,2,10,8,7,11,3,10,6,1],"swapped_pitches":[12,10,3,2,10,6,8,11,3,10,6,1],"shift_direction":1,"question_num":171,"has_decoy":false,"subject":"S1C1253","sona":"41803","block":1,"time":"2021-09-22T06:37:40.291Z"},{"rt":315.60000000009313,"stimulus":"[A] option 1, [L] option 2, [G] neither","key_press":65,"name":"choice","trial_type":"html-keyboard-response","trial_index":213,"time_elapsed":454200,"internal_node_id":"0.0-213.0","response":"1st","certainty":"high","char":"A","transposition":-3,"order":["swapped","shifted"],"probe_pitches":[9,4,-1,4,9,7,2,9,-1,9,2,9],"shifted_pitches":[9,4,-1,4,9,8,2,9,-1,9,2,9],"swapped_pitches":[9,4,-1,4,9,2,7,9,-1,9,2,9],"shift_direction":1,"question_num":181,"has_decoy":false,"subject":"S1C1253","sona":"41803","block":1,"time":"2021-09-22T06:37:40.291Z"},{"rt":505.30000000004657,"stimulus":"[A] option 1, [L] option 2, [G] neither","key_press":65,"name":"choice","trial_type":"html-keyboard-response","trial_index":224,"time_elapsed":473852,"internal_node_id":"0.0-224.0","response":"1st","certainty":"high","char":"A","transposition":-1,"order":["shifted","swapped"],"probe_pitches":[9,4,6,2,11,9,4,2,6,-1,2,9],"shifted_pitches":[9,4,6,2,11,9,3,2,6,-1,2,9],"swapped_pitches":[9,4,6,2,11,4,9,2,6,-1,2,9],"shift_direction":-1,"question_num":191,"has_decoy":false,"subject":"S1C1253","sona":"41803","block":1,"time":"2021-09-22T06:37:40.291Z"}]