[{"rt":973.1999999999534,"stimulus":"[A] option 1, [L] option 2, [G] neither","key_press":65,"name":"choice","trial_type":"html-keyboard-response","trial_index":10,"time_elapsed":23323,"internal_node_id":"0.0-10.0","subject":"S1C1253","sona":"41803","block":3,"time":"2021-09-22T06:50:47.735Z","response":"1st","certainty":"high","char":"A","transposition":-2,"order":["swapped","shifted"],"probe_pitches":[7,12,7,9,4,0,2,9,7,12,2,9],"shifted_pitches":[7,12,7,9,4,1,2,9,7,12,2,9],"swapped_pitches":[7,12,7,9,4,2,0,9,7,12,2,9],"shift_direction":1,"question_num":1,"has_decoy":false},{"rt":1096.9000000001397,"stimulus":"[A] option 1, [L] option 2, [G] neither","key_press":76,"name":"choice","trial_type":"html-keyboard-response","trial_index":21,"time_elapsed":43891,"internal_node_id":"0.0-21.0","subject":"S1C1253","sona":"41803","block":3,"time":"2021-09-22T06:50:47.735Z","response":"2nd","certainty":"high","char":"L","transposition":3,"order":["shifted","swapped"],"probe_pitches":[8,5,12,5,0,10,3,12,3,10,5,8],"shifted_pitches":[8,5,12,5,0,11,3,12,3,10,5,8],"swapped_pitches":[8,5,12,5,0,3,10,12,3,10,5,8],"shift_direction":1,"question_num":11,"has_decoy":false},{"rt":892.4000000001397,"stimulus":"[A] option 1, [L] option 2, [G] neither","key_press":76,"name":"choice","trial_type":"html-keyboard-response","trial_index":32,"time_elapsed":64398,"internal_node_id":"0.0-32.0","subject":"S1C1253","sona":"41803","block":3,"time":"2021-09-22T06:50:47.735Z","response":"2nd","certainty":"high","char":"L","transposition":3,"order":["shifted","swapped"],"probe_pitches":[12,10,3,6,2,9,4,3,7,3,10,14],"shifted_pitches":[12,10,3,6,2,8,4,3,7,3,10,14],"swapped_pitches":[12,10,3,6,2,4,9,3,7,3,10,14],"shift_direction":-1,"question_num":21,"has_decoy":false},{"rt":1083.5,"stimulus":"[A] option 1, [L] option 2, [G] neither","key_press":65,"name":"choice","trial_type":"html-keyboard-response","trial_index":43,"time_elapsed":84003,"internal_node_id":"0.0-43.0","subject":"S1C1253","sona":"41803","block":3,"time":"2021-09-22T06:50:47.735Z","response":"1st","certainty":"high","char":"A","transposition":-1,"order":["swapped","shifted"],"probe_pitches":[11,10,13,5,2,9,5,14,4,5,13,3],"shifted_pitches":[11,10,13,5,2,9,6,14,4,5,13,3],"swapped_pitches":[11,10,13,5,2,5,9,14,4,5,13,3],"shift_direction":1,"question_num":31,"has_decoy":false},{"rt":410.30000000004657,"stimulus":"[A] option 1, [L] option 2, [G] neither","key_press":76,"name":"choice","trial_type":"html-keyboard-response","trial_index":54,"time_elapsed":103445,"internal_node_id":"0.0-54.0","subject":"S1C1253","sona":"41803","block":3,"time":"2021-09-22T06:50:47.735Z","response":"2nd","certainty":"high","char":"L","transposition":-3,"order":["swapped","shifted"],"probe_pitches":[10,5,2,7,2,7,5,2,7,0,12,2],"shifted_pitches":[10,5,2,7,2,7,6,2,7,0,12,2],"swapped_pitches":[10,5,2,7,2,5,7,2,7,0,12,2],"shift_direction":1,"question_num":41,"has_decoy":false},{"rt":504.19999999995343,"stimulus":"[A] option 1, [L] option 2, [G] neither","key_press":65,"name":"choice","trial_type":"html-keyboard-response","trial_index":65,"time_elapsed":122611,"internal_node_id":"0.0-65.0","subject":"S1C1253","sona":"41803","block":3,"time":"2021-09-22T06:50:47.735Z","response":"1st","certainty":"high","char":"A","transposition":-3,"order":["swapped","shifted"],"probe_pitches":[4,5,7,2,7,14,11,6,4,8,6,7],"shifted_pitches":[4,5,7,2,7,14,10,6,4,8,6,7],"swapped_pitches":[4,5,7,2,7,11,14,6,4,8,6,7],"shift_direction":-1,"question_num":51,"has_decoy":false},{"rt":644.8999999999069,"stimulus":"[A] option 1, [L] option 2, [G] neither","key_press":76,"name":"choice","trial_type":"html-keyboard-response","trial_index":76,"time_elapsed":142079,"internal_node_id":"0.0-76.0","subject":"S1C1253","sona":"41803","block":3,"time":"2021-09-22T06:50:47.735Z","response":"2nd","certainty":"high","char":"L","transposition":-2,"order":["swapped","shifted"],"probe_pitches":[5,2,0,2,9,12,7,5,0,7,0,5],"shifted_pitches":[5,2,0,2,9,12,6,5,0,7,0,5],"swapped_pitches":[5,2,0,2,9,7,12,5,0,7,0,5],"shift_direction":-1,"question_num":61,"has_decoy":false},{"rt":672.6000000000931,"stimulus":"[A] option 1, [L] option 2, [G] neither","key_press":65,"name":"choice","trial_type":"html-keyboard-response","trial_index":87,"time_elapsed":161138,"internal_node_id":"0.0-87.0","subject":"S1C1253","sona":"41803","block":3,"time":"2021-09-22T06:50:47.735Z","response":"1st","certainty":"high","char":"A","transposition":-1,"order":["shifted","swapped"],"probe_pitches":[12,10,7,12,10,0,3,10,0,12,7,5],"shifted_pitches":[12,10,7,12,10,1,3,10,0,12,7,5],"swapped_pitches":[12,10,7,12,10,3,0,10,0,12,7,5],"shift_direction":1,"question_num":71,"has_decoy":false},{"rt":1685.9000000001397,"stimulus":"[A] option 1, [L] option 2, [G] neither","key_press":76,"name":"choice","trial_type":"html-keyboard-response","trial_index":98,"time_elapsed":181120,"internal_node_id":"0.0-98.0","subject":"S1C1253","sona":"41803","block":3,"time":"2021-09-22T06:50:47.735Z","response":"2nd","certainty":"high","char":"L","transposition":-2,"order":["shifted","swapped"],"probe_pitches":[3,8,12,10,6,9,5,3,6,11,8,12],"shifted_pitches":[3,8,12,10,6,9,4,3,6,11,8,12],"swapped_pitches":[3,8,12,10,6,5,9,3,6,11,8,12],"shift_direction":-1,"question_num":81,"has_decoy":false},{"rt":380.30000000004657,"stimulus":"[A] option 1, [L] option 2, [G] neither","key_press":76,"name":"choice","trial_type":"html-keyboard-response","trial_index":109,"time_elapsed":200178,"internal_node_id":"0.0-109.0","subject":"S1C1253","sona":"41803","block":3,"time":"2021-09-22T06:50:47.735Z","response":"2nd","certainty":"high","char":"L","transposition":1,"order":["shifted","swapped"],"probe_pitches":[7,12,11,10,2,9,14,7,2,7,2,10],"shifted_pitches":[7,12,11,10,2,9,13,7,2,7,2,10],"swapped_pitches":[7,12,11,10,2,14,9,7,2,7,2,10],"shift_direction":-1,"question_num":91,"has_decoy":false},{"rt":455.60000000009313,"stimulus":"[A] option 1, [L] option 2, [G] neither","key_press":65,"name":"choice","trial_type":"html-keyboard-response","trial_index":120,"time_elapsed":218915,"internal_node_id":"0.0-120.0","subject":"S1C1253","sona":"41803","block":3,"time":"2021-09-22T06:50:47.735Z","response":"1st","certainty":"high","char":"A","transposition":-2,"order":["shifted","swapped"],"probe_pitches":[5,3,9,8,13,11,2,7,14,3,10,2],"shifted_pitches":[5,3,9,8,13,12,2,7,14,3,10,2],"swapped_pitches":[5,3,9,8,13,2,11,7,14,3,10,2],"shift_direction":1,"question_num":101,"has_decoy":false},{"rt":554.1999999999534,"stimulus":"[A] option 1, [L] option 2, [G] neither","key_press":76,"name":"choice","trial_type":"html-keyboard-response","trial_index":131,"time_elapsed":237987,"internal_node_id":"0.0-131.0","subject":"S1C1253","sona":"41803","block":3,"time":"2021-09-22T06:50:47.735Z","response":"2nd","certainty":"high","char":"L","transposition":-1,"order":["swapped","shifted"],"probe_pitches":[10,7,4,10,2,10,12,13,3,10,13,2],"shifted_pitches":[10,7,4,10,2,11,12,13,3,10,13,2],"swapped_pitches":[10,7,4,10,2,12,10,13,3,10,13,2],"shift_direction":1,"question_num":111,"has_decoy":false},{"rt":759.1999999999534,"stimulus":"[A] option 1, [L] option 2, [G] neither","key_press":65,"name":"choice","trial_type":"html-keyboard-response","trial_index":142,"time_elapsed":257079,"internal_node_id":"0.0-142.0","subject":"S1C1253","sona":"41803","block":3,"time":"2021-09-22T06:50:47.735Z","response":"1st","certainty":"high","char":"A","transposition":1,"order":["swapped","shifted"],"probe_pitches":[2,5,12,9,0,5,9,0,5,9,7,0],"shifted_pitches":[2,5,12,9,0,5,8,0,5,9,7,0],"swapped_pitches":[2,5,12,9,0,9,5,0,5,9,7,0],"shift_direction":-1,"question_num":121,"has_decoy":false},{"rt":366,"stimulus":"[A] option 1, [L] option 2, [G] neither","key_press":76,"name":"choice","trial_type":"html-keyboard-response","trial_index":153,"time_elapsed":276198,"internal_node_id":"0.0-153.0","subject":"S1C1253","sona":"41803","block":3,"time":"2021-09-22T06:50:47.735Z","response":"2nd","certainty":"high","char":"L","transposition":2,"order":["shifted","swapped"],"probe_pitches":[0,2,0,5,0,2,5,0,7,2,0,10],"shifted_pitches":[0,2,0,5,0,2,4,0,7,2,0,10],"swapped_pitches":[0,2,0,5,0,5,2,0,7,2,0,10],"shift_direction":-1,"question_num":131,"has_decoy":false},{"rt":513.5999999998603,"stimulus":"[A] option 1, [L] option 2, [G] neither","key_press":65,"name":"choice","trial_type":"html-keyboard-response","trial_index":164,"time_elapsed":295042,"internal_node_id":"0.0-164.0","subject":"S1C1253","sona":"41803","block":3,"time":"2021-09-22T06:50:47.735Z","response":"1st","certainty":"high","char":"A","transposition":-3,"order":["swapped","shifted"],"probe_pitches":[6,9,2,6,11,2,6,11,5,13,12,3],"shifted_pitches":[6,9,2,6,11,2,7,11,5,13,12,3],"swapped_pitches":[6,9,2,6,11,6,2,11,5,13,12,3],"shift_direction":1,"question_num":141,"has_decoy":false},{"rt":354.5,"stimulus":"[A] option 1, [L] option 2, [G] neither","key_press":76,"name":"choice","trial_type":"html-keyboard-response","trial_index":175,"time_elapsed":314262,"internal_node_id":"0.0-175.0","subject":"S1C1253","sona":"41803","block":3,"time":"2021-09-22T06:50:47.735Z","response":"2nd","certainty":"high","char":"L","transposition":0,"order":["shifted","swapped"],"probe_pitches":[13,10,6,4,7,8,4,14,5,3,8,3],"shifted_pitches":[13,10,6,4,7,9,4,14,5,3,8,3],"swapped_pitches":[13,10,6,4,7,4,8,14,5,3,8,3],"shift_direction":1,"question_num":151,"has_decoy":false},{"rt":383.60000000009313,"stimulus":"[A] option 1, [L] option 2, [G] neither","key_press":76,"name":"choice","trial_type":"html-keyboard-response","trial_index":186,"time_elapsed":332657,"internal_node_id":"0.0-186.0","subject":"S1C1253","sona":"41803","block":3,"time":"2021-09-22T06:50:47.735Z","response":"2nd","certainty":"high","char":"L","transposition":-3,"order":["shifted","swapped"],"probe_pitches":[0,5,7,5,12,3,7,5,10,7,3,0],"shifted_pitches":[0,5,7,5,12,2,7,5,10,7,3,0],"swapped_pitches":[0,5,7,5,12,7,3,5,10,7,3,0],"shift_direction":-1,"question_num":161,"has_decoy":false},{"rt":403.30000000004657,"stimulus":"[A] option 1, [L] option 2, [G] neither","key_press":65,"name":"choice","trial_type":"html-keyboard-response","trial_index":197,"time_elapsed":351413,"internal_node_id":"0.0-197.0","subject":"S1C1253","sona":"41803","block":3,"time":"2021-09-22T06:50:47.735Z","response":"1st","certainty":"high","char":"A","transposition":-1,"order":["shifted","swapped"],"probe_pitches":[7,9,2,0,4,2,12,0,2,7,0,2],"shifted_pitches":[7,9,2,0,4,2,11,0,2,7,0,2],"swapped_pitches":[7,9,2,0,4,12,2,0,2,7,0,2],"shift_direction":-1,"question_num":171,"has_decoy":false},{"rt":470.30000000004657,"stimulus":"[A] option 1, [L] option 2, [G] neither","key_press":76,"name":"choice","trial_type":"html-keyboard-response","trial_index":208,"time_elapsed":370378,"internal_node_id":"0.0-208.0","subject":"S1C1253","sona":"41803","block":3,"time":"2021-09-22T06:50:47.735Z","response":"2nd","certainty":"high","char":"L","transposition":2,"order":["swapped","shifted"],"probe_pitches":[11,13,6,9,2,6,4,11,6,12,9,4],"shifted_pitches":[11,13,6,9,2,5,4,11,6,12,9,4],"swapped_pitches":[11,13,6,9,2,4,6,11,6,12,9,4],"shift_direction":-1,"question_num":181,"has_decoy":false},{"rt":331.9000000001397,"stimulus":"[A] option 1, [L] option 2, [G] neither","key_press":76,"name":"choice","trial_type":"html-keyboard-response","trial_index":219,"time_elapsed":389069,"internal_node_id":"0.0-219.0","subject":"S1C1253","sona":"41803","block":3,"time":"2021-09-22T06:50:47.735Z","response":"2nd","certainty":"high","char":"L","transposition":0,"order":["swapped","shifted"],"probe_pitches":[0,3,8,12,5,10,3,0,8,10,5,3],"shifted_pitches":[0,3,8,12,5,11,3,0,8,10,5,3],"swapped_pitches":[0,3,8,12,5,3,10,0,8,10,5,3],"shift_direction":1,"question_num":191,"has_decoy":false}]