[{"rt":1380.8000000000466,"stimulus":"[A] option 1, [L] option 2, [G] neither","key_press":76,"name":"choice","trial_type":"html-keyboard-response","trial_index":10,"time_elapsed":20902,"internal_node_id":"0.0-10.0","subject":"S1C1253","sona":"41803","block":2,"time":"2021-09-22T06:44:14.732Z","response":"2nd","certainty":"high","char":"L","transposition":-2,"order":["swapped","shifted"],"probe_pitches":[8,3,8,13,10,5,8,3,5,3,13,1],"shifted_pitches":[8,3,8,13,10,6,8,3,5,3,13,1],"swapped_pitches":[8,3,8,13,10,8,5,3,5,3,13,1],"shift_direction":1,"question_num":1,"has_decoy":false},{"rt":431,"stimulus":"[A] option 1, [L] option 2, [G] neither","key_press":76,"name":"choice","trial_type":"html-keyboard-response","trial_index":21,"time_elapsed":40148,"internal_node_id":"0.0-21.0","subject":"S1C1253","sona":"41803","block":2,"time":"2021-09-22T06:44:14.732Z","response":"2nd","certainty":"high","char":"L","transposition":-2,"order":["shifted","swapped"],"probe_pitches":[2,6,7,5,7,9,2,0,5,3,2,4],"shifted_pitches":[2,6,7,5,7,9,1,0,5,3,2,4],"swapped_pitches":[2,6,7,5,7,2,9,0,5,3,2,4],"shift_direction":-1,"question_num":11,"has_decoy":false},{"rt":367.9000000001397,"stimulus":"[A] option 1, [L] option 2, [G] neither","key_press":65,"name":"choice","trial_type":"html-keyboard-response","trial_index":32,"time_elapsed":58705,"internal_node_id":"0.0-32.0","subject":"S1C1253","sona":"41803","block":2,"time":"2021-09-22T06:44:14.732Z","response":"1st","certainty":"high","char":"A","transposition":3,"order":["swapped","shifted"],"probe_pitches":[6,11,13,11,6,8,4,11,1,8,1,13],"shifted_pitches":[6,11,13,11,6,8,3,11,1,8,1,13],"swapped_pitches":[6,11,13,11,6,4,8,11,1,8,1,13],"shift_direction":-1,"question_num":21,"has_decoy":false},{"rt":4105.600000000093,"stimulus":"[A] option 1, [L] option 2, [G] neither","key_press":65,"name":"choice","trial_type":"html-keyboard-response","trial_index":43,"time_elapsed":81289,"internal_node_id":"0.0-43.0","subject":"S1C1253","sona":"41803","block":2,"time":"2021-09-22T06:44:14.732Z","response":"1st","certainty":"high","char":"A","transposition":0,"order":["swapped","shifted"],"probe_pitches":[6,4,6,9,4,13,6,9,4,9,13,11],"shifted_pitches":[6,4,6,9,4,13,7,9,4,9,13,11],"swapped_pitches":[6,4,6,9,4,6,13,9,4,9,13,11],"shift_direction":1,"question_num":31,"has_decoy":false},{"rt":375.9000000001397,"stimulus":"[A] option 1, [L] option 2, [G] neither","key_press":65,"name":"choice","trial_type":"html-keyboard-response","trial_index":54,"time_elapsed":99707,"internal_node_id":"0.0-54.0","subject":"S1C1253","sona":"41803","block":2,"time":"2021-09-22T06:44:14.732Z","response":"1st","certainty":"high","char":"A","transposition":-3,"order":["shifted","swapped"],"probe_pitches":[3,8,10,6,10,13,8,6,13,6,1,6],"shifted_pitches":[3,8,10,6,10,12,8,6,13,6,1,6],"swapped_pitches":[3,8,10,6,10,8,13,6,13,6,1,6],"shift_direction":-1,"question_num":41,"has_decoy":false},{"rt":1898.5,"stimulus":"[A] option 1, [L] option 2, [G] neither","key_press":65,"name":"choice","trial_type":"html-keyboard-response","trial_index":65,"time_elapsed":120101,"internal_node_id":"0.0-65.0","subject":"S1C1253","sona":"41803","block":2,"time":"2021-09-22T06:44:14.732Z","response":"1st","certainty":"high","char":"A","transposition":-1,"order":["swapped","shifted"],"probe_pitches":[0,4,7,0,8,1,9,0,-1,4,8,7],"shifted_pitches":[0,4,7,0,8,2,9,0,-1,4,8,7],"swapped_pitches":[0,4,7,0,8,9,1,0,-1,4,8,7],"shift_direction":1,"question_num":51,"has_decoy":false},{"rt":441.89999999990687,"stimulus":"[A] option 1, [L] option 2, [G] neither","key_press":76,"name":"choice","trial_type":"html-keyboard-response","trial_index":76,"time_elapsed":139731,"internal_node_id":"0.0-76.0","subject":"S1C1253","sona":"41803","block":2,"time":"2021-09-22T06:44:14.732Z","response":"2nd","certainty":"high","char":"L","transposition":-3,"order":["swapped","shifted"],"probe_pitches":[2,6,7,9,7,3,-3,0,6,9,4,5],"shifted_pitches":[2,6,7,9,7,3,-4,0,6,9,4,5],"swapped_pitches":[2,6,7,9,7,-3,3,0,6,9,4,5],"shift_direction":-1,"question_num":61,"has_decoy":false},{"rt":1080.9000000001397,"stimulus":"[A] option 1, [L] option 2, [G] neither","key_press":65,"name":"choice","trial_type":"html-keyboard-response","trial_index":87,"time_elapsed":159355,"internal_node_id":"0.0-87.0","subject":"S1C1253","sona":"41803","block":2,"time":"2021-09-22T06:44:14.732Z","response":"1st","certainty":"high","char":"A","transposition":2,"order":["swapped","shifted"],"probe_pitches":[1,4,2,3,-1,6,2,-3,-1,0,3,-1],"shifted_pitches":[1,4,2,3,-1,5,2,-3,-1,0,3,-1],"swapped_pitches":[1,4,2,3,-1,2,6,-3,-1,0,3,-1],"shift_direction":-1,"question_num":71,"has_decoy":false},{"rt":605.3000000000466,"stimulus":"[A] option 1, [L] option 2, [G] neither","key_press":76,"name":"choice","trial_type":"html-keyboard-response","trial_index":98,"time_elapsed":178485,"internal_node_id":"0.0-98.0","subject":"S1C1253","sona":"41803","block":2,"time":"2021-09-22T06:44:14.732Z","response":"2nd","certainty":"high","char":"L","transposition":2,"order":["shifted","swapped"],"probe_pitches":[13,11,6,8,6,1,4,13,6,11,13,11],"shifted_pitches":[13,11,6,8,6,1,3,13,6,11,13,11],"swapped_pitches":[13,11,6,8,6,4,1,13,6,11,13,11],"shift_direction":-1,"question_num":81,"has_decoy":false},{"rt":506.79999999981374,"stimulus":"[A] option 1, [L] option 2, [G] neither","key_press":76,"name":"choice","trial_type":"html-keyboard-response","trial_index":109,"time_elapsed":197621,"internal_node_id":"0.0-109.0","subject":"S1C1253","sona":"41803","block":2,"time":"2021-09-22T06:44:14.732Z","response":"2nd","certainty":"high","char":"L","transposition":-3,"order":["swapped","shifted"],"probe_pitches":[13,10,3,10,3,8,1,13,5,13,3,1],"shifted_pitches":[13,10,3,10,3,8,2,13,5,13,3,1],"swapped_pitches":[13,10,3,10,3,1,8,13,5,13,3,1],"shift_direction":1,"question_num":91,"has_decoy":false},{"rt":562.8000000000466,"stimulus":"[A] option 1, [L] option 2, [G] neither","key_press":65,"name":"choice","trial_type":"html-keyboard-response","trial_index":120,"time_elapsed":216447,"internal_node_id":"0.0-120.0","subject":"S1C1253","sona":"41803","block":2,"time":"2021-09-22T06:44:14.732Z","response":"1st","certainty":"high","char":"A","transposition":-3,"order":["shifted","swapped"],"probe_pitches":[7,9,5,-1,2,3,7,1,-2,8,7,3],"shifted_pitches":[7,9,5,-1,2,3,6,1,-2,8,7,3],"swapped_pitches":[7,9,5,-1,2,7,3,1,-2,8,7,3],"shift_direction":-1,"question_num":101,"has_decoy":false},{"rt":536.1999999999534,"stimulus":"[A] option 1, [L] option 2, [G] neither","key_press":65,"name":"choice","trial_type":"html-keyboard-response","trial_index":131,"time_elapsed":235366,"internal_node_id":"0.0-131.0","subject":"S1C1253","sona":"41803","block":2,"time":"2021-09-22T06:44:14.732Z","response":"1st","certainty":"high","char":"A","transposition":3,"order":["swapped","shifted"],"probe_pitches":[5,2,-2,1,-3,-2,6,-3,2,8,-3,9],"shifted_pitches":[5,2,-2,1,-3,-2,7,-3,2,8,-3,9],"swapped_pitches":[5,2,-2,1,-3,6,-2,-3,2,8,-3,9],"shift_direction":1,"question_num":111,"has_decoy":false},{"rt":771.3000000000466,"stimulus":"[A] option 1, [L] option 2, [G] neither","key_press":76,"name":"choice","trial_type":"html-keyboard-response","trial_index":142,"time_elapsed":254853,"internal_node_id":"0.0-142.0","subject":"S1C1253","sona":"41803","block":2,"time":"2021-09-22T06:44:14.732Z","response":"2nd","certainty":"high","char":"L","transposition":-2,"order":["swapped","shifted"],"probe_pitches":[3,6,11,8,6,8,13,6,11,6,11,1],"shifted_pitches":[3,6,11,8,6,9,13,6,11,6,11,1],"swapped_pitches":[3,6,11,8,6,13,8,6,11,6,11,1],"shift_direction":1,"question_num":121,"has_decoy":false},{"rt":497,"stimulus":"[A] option 1, [L] option 2, [G] neither","key_press":65,"name":"choice","trial_type":"html-keyboard-response","trial_index":153,"time_elapsed":273854,"internal_node_id":"0.0-153.0","subject":"S1C1253","sona":"41803","block":2,"time":"2021-09-22T06:44:14.732Z","response":"1st","certainty":"high","char":"A","transposition":1,"order":["shifted","swapped"],"probe_pitches":[1,4,1,4,6,4,9,11,1,4,1,4],"shifted_pitches":[1,4,1,4,6,3,9,11,1,4,1,4],"swapped_pitches":[1,4,1,4,6,9,4,11,1,4,1,4],"shift_direction":-1,"question_num":131,"has_decoy":false},{"rt":887.8999999999069,"stimulus":"[A] option 1, [L] option 2, [G] neither","key_press":76,"name":"choice","trial_type":"html-keyboard-response","trial_index":164,"time_elapsed":293415,"internal_node_id":"0.0-164.0","subject":"S1C1253","sona":"41803","block":2,"time":"2021-09-22T06:44:14.732Z","response":"2nd","certainty":"high","char":"L","transposition":-1,"order":["shifted","swapped"],"probe_pitches":[13,8,13,8,1,3,6,13,3,10,13,3],"shifted_pitches":[13,8,13,8,1,2,6,13,3,10,13,3],"swapped_pitches":[13,8,13,8,1,6,3,13,3,10,13,3],"shift_direction":-1,"question_num":141,"has_decoy":false},{"rt":381.5,"stimulus":"[A] option 1, [L] option 2, [G] neither","key_press":76,"name":"choice","trial_type":"html-keyboard-response","trial_index":175,"time_elapsed":312155,"internal_node_id":"0.0-175.0","subject":"S1C1253","sona":"41803","block":2,"time":"2021-09-22T06:44:14.732Z","response":"2nd","certainty":"high","char":"L","transposition":-2,"order":["shifted","swapped"],"probe_pitches":[4,3,6,3,7,-1,1,-2,9,7,5,-2],"shifted_pitches":[4,3,6,3,7,0,1,-2,9,7,5,-2],"swapped_pitches":[4,3,6,3,7,1,-1,-2,9,7,5,-2],"shift_direction":1,"question_num":151,"has_decoy":false},{"rt":1066.5,"stimulus":"[A] option 1, [L] option 2, [G] neither","key_press":65,"name":"choice","trial_type":"html-keyboard-response","trial_index":186,"time_elapsed":331594,"internal_node_id":"0.0-186.0","subject":"S1C1253","sona":"41803","block":2,"time":"2021-09-22T06:44:14.732Z","response":"1st","certainty":"high","char":"A","transposition":0,"order":["swapped","shifted"],"probe_pitches":[5,7,6,4,-1,2,6,-3,5,7,0,5],"shifted_pitches":[5,7,6,4,-1,3,6,-3,5,7,0,5],"swapped_pitches":[5,7,6,4,-1,6,2,-3,5,7,0,5],"shift_direction":1,"question_num":161,"has_decoy":false},{"rt":894.3999999999069,"stimulus":"[A] option 1, [L] option 2, [G] neither","key_press":76,"name":"choice","trial_type":"html-keyboard-response","trial_index":197,"time_elapsed":351306,"internal_node_id":"0.0-197.0","subject":"S1C1253","sona":"41803","block":2,"time":"2021-09-22T06:44:14.732Z","response":"2nd","certainty":"high","char":"L","transposition":1,"order":["shifted","swapped"],"probe_pitches":[6,7,6,8,1,-2,3,8,7,6,8,-1],"shifted_pitches":[6,7,6,8,1,-2,4,8,7,6,8,-1],"swapped_pitches":[6,7,6,8,1,3,-2,8,7,6,8,-1],"shift_direction":1,"question_num":171,"has_decoy":false},{"rt":317.9000000001397,"stimulus":"[A] option 1, [L] option 2, [G] neither","key_press":76,"name":"choice","trial_type":"html-keyboard-response","trial_index":208,"time_elapsed":370154,"internal_node_id":"0.0-208.0","subject":"S1C1253","sona":"41803","block":2,"time":"2021-09-22T06:44:14.732Z","response":"2nd","certainty":"high","char":"L","transposition":-1,"order":["shifted","swapped"],"probe_pitches":[-3,-2,2,6,8,0,1,3,8,4,-2,7],"shifted_pitches":[-3,-2,2,6,8,-1,1,3,8,4,-2,7],"swapped_pitches":[-3,-2,2,6,8,1,0,3,8,4,-2,7],"shift_direction":-1,"question_num":181,"has_decoy":false},{"rt":1891.1999999999534,"stimulus":"[A] option 1, [L] option 2, [G] neither","key_press":76,"name":"choice","trial_type":"html-keyboard-response","trial_index":219,"time_elapsed":390395,"internal_node_id":"0.0-219.0","subject":"S1C1253","sona":"41803","block":2,"time":"2021-09-22T06:44:14.732Z","response":"2nd","certainty":"high","char":"L","transposition":-1,"order":["shifted","swapped"],"probe_pitches":[3,6,11,6,1,11,8,1,13,6,1,8],"shifted_pitches":[3,6,11,6,1,11,9,1,13,6,1,8],"swapped_pitches":[3,6,11,6,1,8,11,1,13,6,1,8],"shift_direction":1,"question_num":191,"has_decoy":false}]