[{"rt":1716.2000000029802,"stimulus":"[A] option 1, [L] option 2, [G] neither","key_press":71,"name":"choice","trial_type":"html-keyboard-response","trial_index":10,"time_elapsed":22183,"internal_node_id":"0.0-10.0","subject":"S1C1251","sona":"41555","block":4,"time":"2021-09-22T02:13:08.928Z","response":"neither","certainty":"high","char":"G","transposition":-1,"order":["swapped","shifted"],"probe_pitches":[12,7,2,7,2,12,5,2,10,7,2,14],"shifted_pitches":[12,7,2,7,2,12,4,2,10,7,2,14],"swapped_pitches":[12,7,2,7,2,5,12,2,10,7,2,14],"shift_direction":-1,"question_num":1,"has_decoy":false},{"rt":2643.7999999970198,"stimulus":"[A] option 1, [L] option 2, [G] neither","key_press":71,"name":"choice","trial_type":"html-keyboard-response","trial_index":21,"time_elapsed":49239,"internal_node_id":"0.0-21.0","subject":"S1C1251","sona":"41555","block":4,"time":"2021-09-22T02:13:08.928Z","response":"neither","certainty":"high","char":"G","transposition":-3,"order":["shifted","swapped"],"probe_pitches":[9,14,7,4,9,2,7,11,2,7,14,2],"shifted_pitches":[9,14,7,4,9,3,7,11,2,7,14,2],"swapped_pitches":[9,14,7,4,9,7,2,11,2,7,14,2],"shift_direction":1,"question_num":11,"has_decoy":false},{"rt":940.4000000059605,"stimulus":"[A] option 1, [L] option 2, [G] neither","key_press":76,"name":"choice","trial_type":"html-keyboard-response","trial_index":32,"time_elapsed":74078,"internal_node_id":"0.0-32.0","subject":"S1C1251","sona":"41555","block":4,"time":"2021-09-22T02:13:08.928Z","response":"2nd","certainty":"high","char":"L","transposition":-2,"order":["swapped","shifted"],"probe_pitches":[7,4,9,7,2,9,12,7,4,7,4,14],"shifted_pitches":[7,4,9,7,2,9,13,7,4,7,4,14],"swapped_pitches":[7,4,9,7,2,12,9,7,4,7,4,14],"shift_direction":1,"question_num":21,"has_decoy":false},{"rt":1023.5999999940395,"stimulus":"[A] option 1, [L] option 2, [G] neither","key_press":76,"name":"choice","trial_type":"html-keyboard-response","trial_index":43,"time_elapsed":94876,"internal_node_id":"0.0-43.0","subject":"S1C1251","sona":"41555","block":4,"time":"2021-09-22T02:13:08.928Z","response":"2nd","certainty":"high","char":"L","transposition":0,"order":["swapped","shifted"],"probe_pitches":[5,2,7,12,5,12,2,14,9,7,14,7],"shifted_pitches":[5,2,7,12,5,12,3,14,9,7,14,7],"swapped_pitches":[5,2,7,12,5,2,12,14,9,7,14,7],"shift_direction":1,"question_num":31,"has_decoy":false},{"rt":3168.8999999910593,"stimulus":"[A] option 1, [L] option 2, [G] neither","key_press":76,"name":"choice","trial_type":"html-keyboard-response","trial_index":54,"time_elapsed":116540,"internal_node_id":"0.0-54.0","subject":"S1C1251","sona":"41555","block":4,"time":"2021-09-22T02:13:08.928Z","response":"2nd","certainty":"high","char":"L","transposition":-3,"order":["shifted","swapped"],"probe_pitches":[1,2,8,0,9,5,7,4,-1,1,5,3],"shifted_pitches":[1,2,8,0,9,6,7,4,-1,1,5,3],"swapped_pitches":[1,2,8,0,9,7,5,4,-1,1,5,3],"shift_direction":1,"question_num":41,"has_decoy":false},{"rt":7477.899999991059,"stimulus":"[A] option 1, [L] option 2, [G] neither","key_press":71,"name":"choice","trial_type":"html-keyboard-response","trial_index":65,"time_elapsed":143387,"internal_node_id":"0.0-65.0","subject":"S1C1251","sona":"41555","block":4,"time":"2021-09-22T02:13:08.928Z","response":"neither","certainty":"high","char":"G","transposition":-3,"order":["swapped","shifted"],"probe_pitches":[11,9,14,11,14,4,9,14,4,2,11,6],"shifted_pitches":[11,9,14,11,14,4,10,14,4,2,11,6],"swapped_pitches":[11,9,14,11,14,9,4,14,4,2,11,6],"shift_direction":1,"question_num":51,"has_decoy":false},{"rt":1245.6000000089407,"stimulus":"[A] option 1, [L] option 2, [G] neither","key_press":71,"name":"choice","trial_type":"html-keyboard-response","trial_index":76,"time_elapsed":165015,"internal_node_id":"0.0-76.0","subject":"S1C1251","sona":"41555","block":4,"time":"2021-09-22T02:13:08.928Z","response":"neither","certainty":"high","char":"G","transposition":-3,"order":["swapped","shifted"],"probe_pitches":[1,-1,5,-1,7,-2,4,-3,7,0,-1,7],"shifted_pitches":[1,-1,5,-1,7,-2,3,-3,7,0,-1,7],"swapped_pitches":[1,-1,5,-1,7,4,-2,-3,7,0,-1,7],"shift_direction":-1,"question_num":61,"has_decoy":false},{"rt":2334,"stimulus":"[A] option 1, [L] option 2, [G] neither","key_press":65,"name":"choice","trial_type":"html-keyboard-response","trial_index":87,"time_elapsed":188941,"internal_node_id":"0.0-87.0","subject":"S1C1251","sona":"41555","block":4,"time":"2021-09-22T02:13:08.928Z","response":"1st","certainty":"high","char":"A","transposition":-2,"order":["swapped","shifted"],"probe_pitches":[9,11,7,11,2,9,14,2,4,7,9,11],"shifted_pitches":[9,11,7,11,2,8,14,2,4,7,9,11],"swapped_pitches":[9,11,7,11,2,14,9,2,4,7,9,11],"shift_direction":-1,"question_num":71,"has_decoy":false},{"rt":2432.5,"stimulus":"[A] option 1, [L] option 2, [G] neither","key_press":71,"name":"choice","trial_type":"html-keyboard-response","trial_index":98,"time_elapsed":211349,"internal_node_id":"0.0-98.0","subject":"S1C1251","sona":"41555","block":4,"time":"2021-09-22T02:13:08.928Z","response":"neither","certainty":"high","char":"G","transposition":1,"order":["shifted","swapped"],"probe_pitches":[5,2,7,10,5,2,12,14,10,2,5,10],"shifted_pitches":[5,2,7,10,5,1,12,14,10,2,5,10],"swapped_pitches":[5,2,7,10,5,12,2,14,10,2,5,10],"shift_direction":-1,"question_num":81,"has_decoy":false},{"rt":8949.20000000298,"stimulus":"[A] option 1, [L] option 2, [G] neither","key_press":76,"name":"choice","trial_type":"html-keyboard-response","trial_index":109,"time_elapsed":240666,"internal_node_id":"0.0-109.0","subject":"S1C1251","sona":"41555","block":4,"time":"2021-09-22T02:13:08.928Z","response":"2nd","certainty":"high","char":"L","transposition":-2,"order":["shifted","swapped"],"probe_pitches":[7,3,9,4,3,9,4,6,8,9,6,8],"shifted_pitches":[7,3,9,4,3,9,5,6,8,9,6,8],"swapped_pitches":[7,3,9,4,3,4,9,6,8,9,6,8],"shift_direction":1,"question_num":91,"has_decoy":false},{"rt":3889.6000000089407,"stimulus":"[A] option 1, [L] option 2, [G] neither","key_press":76,"name":"choice","trial_type":"html-keyboard-response","trial_index":120,"time_elapsed":262997,"internal_node_id":"0.0-120.0","subject":"S1C1251","sona":"41555","block":4,"time":"2021-09-22T02:13:08.928Z","response":"2nd","certainty":"high","char":"L","transposition":-1,"order":["swapped","shifted"],"probe_pitches":[5,8,5,1,8,0,1,-1,5,0,-2,6],"shifted_pitches":[5,8,5,1,8,0,2,-1,5,0,-2,6],"swapped_pitches":[5,8,5,1,8,1,0,-1,5,0,-2,6],"shift_direction":1,"question_num":101,"has_decoy":false},{"rt":1823.5,"stimulus":"[A] option 1, [L] option 2, [G] neither","key_press":65,"name":"choice","trial_type":"html-keyboard-response","trial_index":131,"time_elapsed":283294,"internal_node_id":"0.0-131.0","subject":"S1C1251","sona":"41555","block":4,"time":"2021-09-22T02:13:08.928Z","response":"1st","certainty":"high","char":"A","transposition":-2,"order":["swapped","shifted"],"probe_pitches":[8,6,3,1,7,3,5,8,1,8,3,-1],"shifted_pitches":[8,6,3,1,7,4,5,8,1,8,3,-1],"swapped_pitches":[8,6,3,1,7,5,3,8,1,8,3,-1],"shift_direction":1,"question_num":111,"has_decoy":false},{"rt":4754.899999991059,"stimulus":"[A] option 1, [L] option 2, [G] neither","key_press":71,"name":"choice","trial_type":"html-keyboard-response","trial_index":142,"time_elapsed":306791,"internal_node_id":"0.0-142.0","subject":"S1C1251","sona":"41555","block":4,"time":"2021-09-22T02:13:08.928Z","response":"neither","certainty":"high","char":"G","transposition":2,"order":["shifted","swapped"],"probe_pitches":[5,7,14,7,12,9,14,7,12,9,14,9],"shifted_pitches":[5,7,14,7,12,10,14,7,12,9,14,9],"swapped_pitches":[5,7,14,7,12,14,9,7,12,9,14,9],"shift_direction":1,"question_num":121,"has_decoy":false},{"rt":2889.7000000029802,"stimulus":"[A] option 1, [L] option 2, [G] neither","key_press":76,"name":"choice","trial_type":"html-keyboard-response","trial_index":153,"time_elapsed":330318,"internal_node_id":"0.0-153.0","subject":"S1C1251","sona":"41555","block":4,"time":"2021-09-22T02:13:08.928Z","response":"2nd","certainty":"high","char":"L","transposition":3,"order":["shifted","swapped"],"probe_pitches":[5,9,8,6,4,6,8,-3,0,-1,8,2],"shifted_pitches":[5,9,8,6,4,6,7,-3,0,-1,8,2],"swapped_pitches":[5,9,8,6,4,8,6,-3,0,-1,8,2],"shift_direction":-1,"question_num":131,"has_decoy":false},{"rt":2915,"stimulus":"[A] option 1, [L] option 2, [G] neither","key_press":65,"name":"choice","trial_type":"html-keyboard-response","trial_index":164,"time_elapsed":357207,"internal_node_id":"0.0-164.0","subject":"S1C1251","sona":"41555","block":4,"time":"2021-09-22T02:13:08.928Z","response":"1st","certainty":"high","char":"A","transposition":2,"order":["shifted","swapped"],"probe_pitches":[2,1,5,4,-2,-3,6,-1,1,3,4,6],"shifted_pitches":[2,1,5,4,-2,-4,6,-1,1,3,4,6],"swapped_pitches":[2,1,5,4,-2,6,-3,-1,1,3,4,6],"shift_direction":-1,"question_num":141,"has_decoy":false},{"rt":9399,"stimulus":"[A] option 1, [L] option 2, [G] neither","key_press":71,"name":"choice","trial_type":"html-keyboard-response","trial_index":175,"time_elapsed":387312,"internal_node_id":"0.0-175.0","subject":"S1C1251","sona":"41555","block":4,"time":"2021-09-22T02:13:08.928Z","response":"neither","certainty":"high","char":"G","transposition":3,"order":["shifted","swapped"],"probe_pitches":[9,4,2,9,14,11,6,4,11,2,11,14],"shifted_pitches":[9,4,2,9,14,10,6,4,11,2,11,14],"swapped_pitches":[9,4,2,9,14,6,11,4,11,2,11,14],"shift_direction":-1,"question_num":151,"has_decoy":false},{"rt":1078.5,"stimulus":"[A] option 1, [L] option 2, [G] neither","key_press":71,"name":"choice","trial_type":"html-keyboard-response","trial_index":186,"time_elapsed":410917,"internal_node_id":"0.0-186.0","subject":"S1C1251","sona":"41555","block":4,"time":"2021-09-22T02:13:08.928Z","response":"neither","certainty":"high","char":"G","transposition":-1,"order":["swapped","shifted"],"probe_pitches":[6,5,9,1,4,2,0,4,-3,-2,-3,6],"shifted_pitches":[6,5,9,1,4,2,-1,4,-3,-2,-3,6],"swapped_pitches":[6,5,9,1,4,0,2,4,-3,-2,-3,6],"shift_direction":-1,"question_num":161,"has_decoy":false},{"rt":1945.0999999940395,"stimulus":"[A] option 1, [L] option 2, [G] neither","key_press":76,"name":"choice","trial_type":"html-keyboard-response","trial_index":197,"time_elapsed":435415,"internal_node_id":"0.0-197.0","subject":"S1C1251","sona":"41555","block":4,"time":"2021-09-22T02:13:08.928Z","response":"2nd","certainty":"high","char":"L","transposition":1,"order":["shifted","swapped"],"probe_pitches":[2,-1,6,8,-1,2,-3,7,0,3,7,3],"shifted_pitches":[2,-1,6,8,-1,1,-3,7,0,3,7,3],"swapped_pitches":[2,-1,6,8,-1,-3,2,7,0,3,7,3],"shift_direction":-1,"question_num":171,"has_decoy":false},{"rt":7879.29999999702,"stimulus":"[A] option 1, [L] option 2, [G] neither","key_press":71,"name":"choice","trial_type":"html-keyboard-response","trial_index":208,"time_elapsed":463221,"internal_node_id":"0.0-208.0","subject":"S1C1251","sona":"41555","block":4,"time":"2021-09-22T02:13:08.928Z","response":"neither","certainty":"high","char":"G","transposition":-1,"order":["shifted","swapped"],"probe_pitches":[14,12,7,14,9,12,4,7,12,2,9,7],"shifted_pitches":[14,12,7,14,9,12,3,7,12,2,9,7],"swapped_pitches":[14,12,7,14,9,4,12,7,12,2,9,7],"shift_direction":-1,"question_num":181,"has_decoy":false},{"rt":5441.20000000298,"stimulus":"[A] option 1, [L] option 2, [G] neither","key_press":76,"name":"choice","trial_type":"html-keyboard-response","trial_index":219,"time_elapsed":489615,"internal_node_id":"0.0-219.0","subject":"S1C1251","sona":"41555","block":4,"time":"2021-09-22T02:13:08.928Z","response":"2nd","certainty":"high","char":"L","transposition":0,"order":["swapped","shifted"],"probe_pitches":[4,-1,-2,-1,4,-1,5,8,9,-3,8,-2],"shifted_pitches":[4,-1,-2,-1,4,0,5,8,9,-3,8,-2],"swapped_pitches":[4,-1,-2,-1,4,5,-1,8,9,-3,8,-2],"shift_direction":1,"question_num":191,"has_decoy":false}]