[{"rt":3155.5,"stimulus":"[A] option 1, [L] option 2, [G] neither","key_press":76,"name":"choice","trial_type":"html-keyboard-response","trial_index":10,"time_elapsed":22641,"internal_node_id":"0.0-10.0","subject":"S1C1251","sona":"41555","block":3,"time":"2021-09-22T02:04:52.480Z","response":"2nd","certainty":"high","char":"L","transposition":-2,"order":["shifted","swapped"],"probe_pitches":[10,8,5,8,1,5,3,10,5,-2,5,3],"shifted_pitches":[10,8,5,8,1,6,3,10,5,-2,5,3],"swapped_pitches":[10,8,5,8,1,3,5,10,5,-2,5,3],"shift_direction":1,"question_num":1,"has_decoy":false},{"rt":2453.5,"stimulus":"[A] option 1, [L] option 2, [G] neither","key_press":76,"name":"choice","trial_type":"html-keyboard-response","trial_index":21,"time_elapsed":43982,"internal_node_id":"0.0-21.0","subject":"S1C1251","sona":"41555","block":3,"time":"2021-09-22T02:04:52.480Z","response":"2nd","certainty":"high","char":"L","transposition":0,"order":["shifted","swapped"],"probe_pitches":[3,6,8,3,1,10,6,8,10,1,-2,8],"shifted_pitches":[3,6,8,3,1,9,6,8,10,1,-2,8],"swapped_pitches":[3,6,8,3,1,6,10,8,10,1,-2,8],"shift_direction":-1,"question_num":11,"has_decoy":false},{"rt":2444,"stimulus":"[A] option 1, [L] option 2, [G] neither","key_press":71,"name":"choice","trial_type":"html-keyboard-response","trial_index":32,"time_elapsed":64739,"internal_node_id":"0.0-32.0","subject":"S1C1251","sona":"41555","block":3,"time":"2021-09-22T02:04:52.480Z","response":"neither","certainty":"high","char":"G","transposition":-3,"order":["swapped","shifted"],"probe_pitches":[10,7,8,5,10,3,9,10,9,10,7,3],"shifted_pitches":[10,7,8,5,10,4,9,10,9,10,7,3],"swapped_pitches":[10,7,8,5,10,9,3,10,9,10,7,3],"shift_direction":1,"question_num":21,"has_decoy":false},{"rt":5109.0999999940395,"stimulus":"[A] option 1, [L] option 2, [G] neither","key_press":71,"name":"choice","trial_type":"html-keyboard-response","trial_index":43,"time_elapsed":90636,"internal_node_id":"0.0-43.0","subject":"S1C1251","sona":"41555","block":3,"time":"2021-09-22T02:04:52.480Z","response":"neither","certainty":"high","char":"G","transposition":-1,"order":["swapped","shifted"],"probe_pitches":[10,5,8,1,10,1,3,-2,5,8,-2,8],"shifted_pitches":[10,5,8,1,10,1,2,-2,5,8,-2,8],"swapped_pitches":[10,5,8,1,10,3,1,-2,5,8,-2,8],"shift_direction":-1,"question_num":31,"has_decoy":false},{"rt":4999.20000000298,"stimulus":"[A] option 1, [L] option 2, [G] neither","key_press":71,"name":"choice","trial_type":"html-keyboard-response","trial_index":54,"time_elapsed":117271,"internal_node_id":"0.0-54.0","subject":"S1C1251","sona":"41555","block":3,"time":"2021-09-22T02:04:52.480Z","response":"neither","certainty":"high","char":"G","transposition":-2,"order":["shifted","swapped"],"probe_pitches":[7,6,-1,3,0,8,2,5,7,10,6,1],"shifted_pitches":[7,6,-1,3,0,9,2,5,7,10,6,1],"swapped_pitches":[7,6,-1,3,0,2,8,5,7,10,6,1],"shift_direction":1,"question_num":41,"has_decoy":false},{"rt":5115.70000000298,"stimulus":"[A] option 1, [L] option 2, [G] neither","key_press":71,"name":"choice","trial_type":"html-keyboard-response","trial_index":65,"time_elapsed":141729,"internal_node_id":"0.0-65.0","subject":"S1C1251","sona":"41555","block":3,"time":"2021-09-22T02:04:52.480Z","response":"neither","certainty":"high","char":"G","transposition":1,"order":["swapped","shifted"],"probe_pitches":[1,6,10,3,-2,6,8,3,-2,6,10,8],"shifted_pitches":[1,6,10,3,-2,6,7,3,-2,6,10,8],"swapped_pitches":[1,6,10,3,-2,8,6,3,-2,6,10,8],"shift_direction":-1,"question_num":51,"has_decoy":false},{"rt":7493.29999999702,"stimulus":"[A] option 1, [L] option 2, [G] neither","key_press":71,"name":"choice","trial_type":"html-keyboard-response","trial_index":76,"time_elapsed":169871,"internal_node_id":"0.0-76.0","subject":"S1C1251","sona":"41555","block":3,"time":"2021-09-22T02:04:52.480Z","response":"neither","certainty":"high","char":"G","transposition":-3,"order":["shifted","swapped"],"probe_pitches":[10,5,0,7,-2,5,10,-2,0,3,0,5],"shifted_pitches":[10,5,0,7,-2,6,10,-2,0,3,0,5],"swapped_pitches":[10,5,0,7,-2,10,5,-2,0,3,0,5],"shift_direction":1,"question_num":61,"has_decoy":false},{"rt":6507.20000000298,"stimulus":"[A] option 1, [L] option 2, [G] neither","key_press":71,"name":"choice","trial_type":"html-keyboard-response","trial_index":87,"time_elapsed":199204,"internal_node_id":"0.0-87.0","subject":"S1C1251","sona":"41555","block":3,"time":"2021-09-22T02:04:52.480Z","response":"neither","certainty":"high","char":"G","transposition":-3,"order":["swapped","shifted"],"probe_pitches":[-2,0,3,-2,3,5,10,0,-2,7,3,0],"shifted_pitches":[-2,0,3,-2,3,6,10,0,-2,7,3,0],"swapped_pitches":[-2,0,3,-2,3,10,5,0,-2,7,3,0],"shift_direction":1,"question_num":71,"has_decoy":false},{"rt":6351.20000000298,"stimulus":"[A] option 1, [L] option 2, [G] neither","key_press":76,"name":"choice","trial_type":"html-keyboard-response","trial_index":98,"time_elapsed":227586,"internal_node_id":"0.0-98.0","subject":"S1C1251","sona":"41555","block":3,"time":"2021-09-22T02:04:52.480Z","response":"2nd","certainty":"high","char":"L","transposition":2,"order":["swapped","shifted"],"probe_pitches":[-2,0,-2,5,7,0,-2,2,-2,10,-2,7],"shifted_pitches":[-2,0,-2,5,7,0,-3,2,-2,10,-2,7],"swapped_pitches":[-2,0,-2,5,7,-2,0,2,-2,10,-2,7],"shift_direction":-1,"question_num":81,"has_decoy":false},{"rt":4721.0999999940395,"stimulus":"[A] option 1, [L] option 2, [G] neither","key_press":71,"name":"choice","trial_type":"html-keyboard-response","trial_index":109,"time_elapsed":255859,"internal_node_id":"0.0-109.0","subject":"S1C1251","sona":"41555","block":3,"time":"2021-09-22T02:04:52.480Z","response":"neither","certainty":"high","char":"G","transposition":-3,"order":["swapped","shifted"],"probe_pitches":[-1,0,5,3,9,6,5,1,4,8,5,-1],"shifted_pitches":[-1,0,5,3,9,7,5,1,4,8,5,-1],"swapped_pitches":[-1,0,5,3,9,5,6,1,4,8,5,-1],"shift_direction":1,"question_num":91,"has_decoy":false},{"rt":8381.5,"stimulus":"[A] option 1, [L] option 2, [G] neither","key_press":71,"name":"choice","trial_type":"html-keyboard-response","trial_index":120,"time_elapsed":285913,"internal_node_id":"0.0-120.0","subject":"S1C1251","sona":"41555","block":3,"time":"2021-09-22T02:04:52.480Z","response":"neither","certainty":"high","char":"G","transposition":2,"order":["swapped","shifted"],"probe_pitches":[1,7,6,5,10,0,3,5,7,6,3,5],"shifted_pitches":[1,7,6,5,10,0,2,5,7,6,3,5],"swapped_pitches":[1,7,6,5,10,3,0,5,7,6,3,5],"shift_direction":-1,"question_num":101,"has_decoy":false},{"rt":4951.399999991059,"stimulus":"[A] option 1, [L] option 2, [G] neither","key_press":65,"name":"choice","trial_type":"html-keyboard-response","trial_index":131,"time_elapsed":312552,"internal_node_id":"0.0-131.0","subject":"S1C1251","sona":"41555","block":3,"time":"2021-09-22T02:04:52.480Z","response":"1st","certainty":"high","char":"A","transposition":-1,"order":["swapped","shifted"],"probe_pitches":[10,9,2,9,6,2,9,10,2,5,3,9],"shifted_pitches":[10,9,2,9,6,1,9,10,2,5,3,9],"swapped_pitches":[10,9,2,9,6,9,2,10,2,5,3,9],"shift_direction":-1,"question_num":111,"has_decoy":false},{"rt":1808.5,"stimulus":"[A] option 1, [L] option 2, [G] neither","key_press":76,"name":"choice","trial_type":"html-keyboard-response","trial_index":142,"time_elapsed":335232,"internal_node_id":"0.0-142.0","subject":"S1C1251","sona":"41555","block":3,"time":"2021-09-22T02:04:52.480Z","response":"2nd","certainty":"high","char":"L","transposition":-1,"order":["shifted","swapped"],"probe_pitches":[1,3,1,7,0,-1,7,10,8,4,9,8],"shifted_pitches":[1,3,1,7,0,-1,6,10,8,4,9,8],"swapped_pitches":[1,3,1,7,0,7,-1,10,8,4,9,8],"shift_direction":-1,"question_num":121,"has_decoy":false},{"rt":4725,"stimulus":"[A] option 1, [L] option 2, [G] neither","key_press":76,"name":"choice","trial_type":"html-keyboard-response","trial_index":153,"time_elapsed":359775,"internal_node_id":"0.0-153.0","subject":"S1C1251","sona":"41555","block":3,"time":"2021-09-22T02:04:52.480Z","response":"2nd","certainty":"high","char":"L","transposition":3,"order":["shifted","swapped"],"probe_pitches":[3,-2,0,3,8,5,10,-2,3,-2,8,5],"shifted_pitches":[3,-2,0,3,8,6,10,-2,3,-2,8,5],"swapped_pitches":[3,-2,0,3,8,10,5,-2,3,-2,8,5],"shift_direction":1,"question_num":131,"has_decoy":false},{"rt":1829,"stimulus":"[A] option 1, [L] option 2, [G] neither","key_press":71,"name":"choice","trial_type":"html-keyboard-response","trial_index":164,"time_elapsed":380942,"internal_node_id":"0.0-164.0","subject":"S1C1251","sona":"41555","block":3,"time":"2021-09-22T02:04:52.480Z","response":"neither","certainty":"high","char":"G","transposition":-2,"order":["shifted","swapped"],"probe_pitches":[-2,3,-2,3,0,5,3,8,5,10,8,-2],"shifted_pitches":[-2,3,-2,3,0,5,2,8,5,10,8,-2],"swapped_pitches":[-2,3,-2,3,0,3,5,8,5,10,8,-2],"shift_direction":-1,"question_num":141,"has_decoy":false},{"rt":4719.70000000298,"stimulus":"[A] option 1, [L] option 2, [G] neither","key_press":76,"name":"choice","trial_type":"html-keyboard-response","trial_index":175,"time_elapsed":404775,"internal_node_id":"0.0-175.0","subject":"S1C1251","sona":"41555","block":3,"time":"2021-09-22T02:04:52.480Z","response":"2nd","certainty":"high","char":"L","transposition":0,"order":["swapped","shifted"],"probe_pitches":[6,11,7,4,11,8,2,10,7,0,10,1],"shifted_pitches":[6,11,7,4,11,8,3,10,7,0,10,1],"swapped_pitches":[6,11,7,4,11,2,8,10,7,0,10,1],"shift_direction":1,"question_num":151,"has_decoy":false},{"rt":5565.29999999702,"stimulus":"[A] option 1, [L] option 2, [G] neither","key_press":76,"name":"choice","trial_type":"html-keyboard-response","trial_index":186,"time_elapsed":430345,"internal_node_id":"0.0-186.0","subject":"S1C1251","sona":"41555","block":3,"time":"2021-09-22T02:04:52.480Z","response":"2nd","certainty":"high","char":"L","transposition":-2,"order":["shifted","swapped"],"probe_pitches":[5,4,1,7,3,9,5,-1,7,4,9,3],"shifted_pitches":[5,4,1,7,3,8,5,-1,7,4,9,3],"swapped_pitches":[5,4,1,7,3,5,9,-1,7,4,9,3],"shift_direction":-1,"question_num":161,"has_decoy":false},{"rt":1873.2000000029802,"stimulus":"[A] option 1, [L] option 2, [G] neither","key_press":71,"name":"choice","trial_type":"html-keyboard-response","trial_index":197,"time_elapsed":452509,"internal_node_id":"0.0-197.0","subject":"S1C1251","sona":"41555","block":3,"time":"2021-09-22T02:04:52.480Z","response":"neither","certainty":"high","char":"G","transposition":3,"order":["shifted","swapped"],"probe_pitches":[6,2,0,5,1,4,9,1,9,2,8,9],"shifted_pitches":[6,2,0,5,1,4,10,1,9,2,8,9],"swapped_pitches":[6,2,0,5,1,9,4,1,9,2,8,9],"shift_direction":1,"question_num":171,"has_decoy":false},{"rt":3860.4000000059605,"stimulus":"[A] option 1, [L] option 2, [G] neither","key_press":71,"name":"choice","trial_type":"html-keyboard-response","trial_index":208,"time_elapsed":476117,"internal_node_id":"0.0-208.0","subject":"S1C1251","sona":"41555","block":3,"time":"2021-09-22T02:04:52.480Z","response":"neither","certainty":"high","char":"G","transposition":-1,"order":["swapped","shifted"],"probe_pitches":[10,7,5,2,10,5,0,-2,0,2,0,5],"shifted_pitches":[10,7,5,2,10,5,1,-2,0,2,0,5],"swapped_pitches":[10,7,5,2,10,0,5,-2,0,2,0,5],"shift_direction":1,"question_num":181,"has_decoy":false},{"rt":4731.20000000298,"stimulus":"[A] option 1, [L] option 2, [G] neither","key_press":71,"name":"choice","trial_type":"html-keyboard-response","trial_index":219,"time_elapsed":502267,"internal_node_id":"0.0-219.0","subject":"S1C1251","sona":"41555","block":3,"time":"2021-09-22T02:04:52.480Z","response":"neither","certainty":"high","char":"G","transposition":1,"order":["shifted","swapped"],"probe_pitches":[10,11,8,0,1,10,6,11,6,8,2,1],"shifted_pitches":[10,11,8,0,1,10,5,11,6,8,2,1],"swapped_pitches":[10,11,8,0,1,6,10,11,6,8,2,1],"shift_direction":-1,"question_num":191,"has_decoy":false}]