[{"rt":2170.5,"stimulus":"[A] option 1, [L] option 2, [G] neither","key_press":76,"name":"choice","trial_type":"html-keyboard-response","trial_index":10,"time_elapsed":20883,"internal_node_id":"0.0-10.0","subject":"S1C1251","sona":"41555","block":2,"time":"2021-09-22T01:56:24.585Z","response":"2nd","certainty":"high","char":"L","transposition":1,"order":["shifted","swapped"],"probe_pitches":[1,0,-1,7,8,9,1,6,4,9,8,1],"shifted_pitches":[1,0,-1,7,8,9,2,6,4,9,8,1],"swapped_pitches":[1,0,-1,7,8,1,9,6,4,9,8,1],"shift_direction":1,"question_num":1,"has_decoy":false},{"rt":3087.2999999970198,"stimulus":"[A] option 1, [L] option 2, [G] neither","key_press":76,"name":"choice","trial_type":"html-keyboard-response","trial_index":21,"time_elapsed":43363,"internal_node_id":"0.0-21.0","subject":"S1C1251","sona":"41555","block":2,"time":"2021-09-22T01:56:24.585Z","response":"2nd","certainty":"high","char":"L","transposition":0,"order":["shifted","swapped"],"probe_pitches":[7,4,11,4,7,11,9,14,11,4,14,9],"shifted_pitches":[7,4,11,4,7,11,10,14,11,4,14,9],"swapped_pitches":[7,4,11,4,7,9,11,14,11,4,14,9],"shift_direction":1,"question_num":11,"has_decoy":false},{"rt":1769.9000000059605,"stimulus":"[A] option 1, [L] option 2, [G] neither","key_press":71,"name":"choice","trial_type":"html-keyboard-response","trial_index":32,"time_elapsed":63497,"internal_node_id":"0.0-32.0","subject":"S1C1251","sona":"41555","block":2,"time":"2021-09-22T01:56:24.585Z","response":"neither","certainty":"high","char":"G","transposition":3,"order":["swapped","shifted"],"probe_pitches":[6,11,9,4,9,11,4,14,2,11,2,14],"shifted_pitches":[6,11,9,4,9,11,5,14,2,11,2,14],"swapped_pitches":[6,11,9,4,9,4,11,14,2,11,2,14],"shift_direction":1,"question_num":21,"has_decoy":false},{"rt":1701,"stimulus":"[A] option 1, [L] option 2, [G] neither","key_press":76,"name":"choice","trial_type":"html-keyboard-response","trial_index":43,"time_elapsed":83498,"internal_node_id":"0.0-43.0","subject":"S1C1251","sona":"41555","block":2,"time":"2021-09-22T01:56:24.585Z","response":"2nd","certainty":"high","char":"L","transposition":-3,"order":["shifted","swapped"],"probe_pitches":[0,4,5,10,3,11,9,3,11,2,4,10],"shifted_pitches":[0,4,5,10,3,11,8,3,11,2,4,10],"swapped_pitches":[0,4,5,10,3,9,11,3,11,2,4,10],"shift_direction":-1,"question_num":31,"has_decoy":false},{"rt":2931.2000000029802,"stimulus":"[A] option 1, [L] option 2, [G] neither","key_press":76,"name":"choice","trial_type":"html-keyboard-response","trial_index":54,"time_elapsed":106125,"internal_node_id":"0.0-54.0","subject":"S1C1251","sona":"41555","block":2,"time":"2021-09-22T01:56:24.585Z","response":"2nd","certainty":"high","char":"L","transposition":-3,"order":["swapped","shifted"],"probe_pitches":[4,7,4,2,9,2,12,9,12,9,2,9],"shifted_pitches":[4,7,4,2,9,2,11,9,12,9,2,9],"swapped_pitches":[4,7,4,2,9,12,2,9,12,9,2,9],"shift_direction":-1,"question_num":41,"has_decoy":false},{"rt":1680.3999999910593,"stimulus":"[A] option 1, [L] option 2, [G] neither","key_press":71,"name":"choice","trial_type":"html-keyboard-response","trial_index":65,"time_elapsed":130229,"internal_node_id":"0.0-65.0","subject":"S1C1251","sona":"41555","block":2,"time":"2021-09-22T01:56:24.585Z","response":"neither","certainty":"high","char":"G","transposition":0,"order":["shifted","swapped"],"probe_pitches":[6,11,5,10,1,3,9,10,1,11,8,9],"shifted_pitches":[6,11,5,10,1,4,9,10,1,11,8,9],"swapped_pitches":[6,11,5,10,1,9,3,10,1,11,8,9],"shift_direction":1,"question_num":51,"has_decoy":false},{"rt":2321.7000000029802,"stimulus":"[A] option 1, [L] option 2, [G] neither","key_press":76,"name":"choice","trial_type":"html-keyboard-response","trial_index":76,"time_elapsed":150828,"internal_node_id":"0.0-76.0","subject":"S1C1251","sona":"41555","block":2,"time":"2021-09-22T01:56:24.585Z","response":"2nd","certainty":"high","char":"L","transposition":-1,"order":["swapped","shifted"],"probe_pitches":[14,11,4,9,2,11,4,7,14,7,11,7],"shifted_pitches":[14,11,4,9,2,11,5,7,14,7,11,7],"swapped_pitches":[14,11,4,9,2,4,11,7,14,7,11,7],"shift_direction":1,"question_num":61,"has_decoy":false},{"rt":7555.70000000298,"stimulus":"[A] option 1, [L] option 2, [G] neither","key_press":71,"name":"choice","trial_type":"html-keyboard-response","trial_index":87,"time_elapsed":180142,"internal_node_id":"0.0-87.0","subject":"S1C1251","sona":"41555","block":2,"time":"2021-09-22T01:56:24.585Z","response":"neither","certainty":"high","char":"G","transposition":-2,"order":["swapped","shifted"],"probe_pitches":[6,0,4,2,5,4,8,0,5,7,11,2],"shifted_pitches":[6,0,4,2,5,3,8,0,5,7,11,2],"swapped_pitches":[6,0,4,2,5,8,4,0,5,7,11,2],"shift_direction":-1,"question_num":71,"has_decoy":false},{"rt":3938.7000000029802,"stimulus":"[A] option 1, [L] option 2, [G] neither","key_press":71,"name":"choice","trial_type":"html-keyboard-response","trial_index":98,"time_elapsed":203693,"internal_node_id":"0.0-98.0","subject":"S1C1251","sona":"41555","block":2,"time":"2021-09-22T01:56:24.585Z","response":"neither","certainty":"high","char":"G","transposition":-1,"order":["shifted","swapped"],"probe_pitches":[4,3,4,3,10,7,5,1,7,5,1,-1],"shifted_pitches":[4,3,4,3,10,7,6,1,7,5,1,-1],"swapped_pitches":[4,3,4,3,10,5,7,1,7,5,1,-1],"shift_direction":1,"question_num":81,"has_decoy":false},{"rt":3173.7000000029802,"stimulus":"[A] option 1, [L] option 2, [G] neither","key_press":76,"name":"choice","trial_type":"html-keyboard-response","trial_index":109,"time_elapsed":225712,"internal_node_id":"0.0-109.0","subject":"S1C1251","sona":"41555","block":2,"time":"2021-09-22T01:56:24.585Z","response":"2nd","certainty":"high","char":"L","transposition":-1,"order":["shifted","swapped"],"probe_pitches":[9,4,9,12,7,4,2,12,2,12,2,4],"shifted_pitches":[9,4,9,12,7,4,1,12,2,12,2,4],"swapped_pitches":[9,4,9,12,7,2,4,12,2,12,2,4],"shift_direction":-1,"question_num":91,"has_decoy":false},{"rt":2111.1000000089407,"stimulus":"[A] option 1, [L] option 2, [G] neither","key_press":76,"name":"choice","trial_type":"html-keyboard-response","trial_index":120,"time_elapsed":247413,"internal_node_id":"0.0-120.0","subject":"S1C1251","sona":"41555","block":2,"time":"2021-09-22T01:56:24.585Z","response":"2nd","certainty":"high","char":"L","transposition":2,"order":["shifted","swapped"],"probe_pitches":[2,8,3,4,9,6,-1,0,4,10,6,10],"shifted_pitches":[2,8,3,4,9,7,-1,0,4,10,6,10],"swapped_pitches":[2,8,3,4,9,-1,6,0,4,10,6,10],"shift_direction":1,"question_num":101,"has_decoy":false},{"rt":3764.5,"stimulus":"[A] option 1, [L] option 2, [G] neither","key_press":76,"name":"choice","trial_type":"html-keyboard-response","trial_index":131,"time_elapsed":271547,"internal_node_id":"0.0-131.0","subject":"S1C1251","sona":"41555","block":2,"time":"2021-09-22T01:56:24.585Z","response":"2nd","certainty":"high","char":"L","transposition":3,"order":["swapped","shifted"],"probe_pitches":[4,0,6,3,1,11,10,2,7,0,4,2],"shifted_pitches":[4,0,6,3,1,11,9,2,7,0,4,2],"swapped_pitches":[4,0,6,3,1,10,11,2,7,0,4,2],"shift_direction":-1,"question_num":111,"has_decoy":false},{"rt":3409.7999999970198,"stimulus":"[A] option 1, [L] option 2, [G] neither","key_press":76,"name":"choice","trial_type":"html-keyboard-response","trial_index":142,"time_elapsed":298094,"internal_node_id":"0.0-142.0","subject":"S1C1251","sona":"41555","block":2,"time":"2021-09-22T01:56:24.585Z","response":"2nd","certainty":"high","char":"L","transposition":1,"order":["shifted","swapped"],"probe_pitches":[5,7,9,2,9,5,12,14,2,7,5,2],"shifted_pitches":[5,7,9,2,9,4,12,14,2,7,5,2],"swapped_pitches":[5,7,9,2,9,12,5,14,2,7,5,2],"shift_direction":-1,"question_num":121,"has_decoy":false},{"rt":3999.4000000059605,"stimulus":"[A] option 1, [L] option 2, [G] neither","key_press":71,"name":"choice","trial_type":"html-keyboard-response","trial_index":153,"time_elapsed":321217,"internal_node_id":"0.0-153.0","subject":"S1C1251","sona":"41555","block":2,"time":"2021-09-22T01:56:24.585Z","response":"neither","certainty":"high","char":"G","transposition":-3,"order":["swapped","shifted"],"probe_pitches":[7,12,5,12,5,7,2,10,5,14,7,5],"shifted_pitches":[7,12,5,12,5,6,2,10,5,14,7,5],"swapped_pitches":[7,12,5,12,5,2,7,10,5,14,7,5],"shift_direction":-1,"question_num":131,"has_decoy":false},{"rt":3465,"stimulus":"[A] option 1, [L] option 2, [G] neither","key_press":76,"name":"choice","trial_type":"html-keyboard-response","trial_index":164,"time_elapsed":345093,"internal_node_id":"0.0-164.0","subject":"S1C1251","sona":"41555","block":2,"time":"2021-09-22T01:56:24.585Z","response":"2nd","certainty":"high","char":"L","transposition":-2,"order":["swapped","shifted"],"probe_pitches":[5,8,11,6,7,2,-1,10,6,8,0,6],"shifted_pitches":[5,8,11,6,7,1,-1,10,6,8,0,6],"swapped_pitches":[5,8,11,6,7,-1,2,10,6,8,0,6],"shift_direction":-1,"question_num":141,"has_decoy":false},{"rt":3152.1000000089407,"stimulus":"[A] option 1, [L] option 2, [G] neither","key_press":76,"name":"choice","trial_type":"html-keyboard-response","trial_index":175,"time_elapsed":369984,"internal_node_id":"0.0-175.0","subject":"S1C1251","sona":"41555","block":2,"time":"2021-09-22T01:56:24.585Z","response":"2nd","certainty":"high","char":"L","transposition":-3,"order":["swapped","shifted"],"probe_pitches":[-1,2,3,10,4,8,6,0,10,2,3,10],"shifted_pitches":[-1,2,3,10,4,8,5,0,10,2,3,10],"swapped_pitches":[-1,2,3,10,4,6,8,0,10,2,3,10],"shift_direction":-1,"question_num":151,"has_decoy":false},{"rt":3474.3999999910593,"stimulus":"[A] option 1, [L] option 2, [G] neither","key_press":76,"name":"choice","trial_type":"html-keyboard-response","trial_index":186,"time_elapsed":392092,"internal_node_id":"0.0-186.0","subject":"S1C1251","sona":"41555","block":2,"time":"2021-09-22T01:56:24.585Z","response":"2nd","certainty":"high","char":"L","transposition":-1,"order":["swapped","shifted"],"probe_pitches":[3,8,5,-1,6,9,8,11,8,5,8,9],"shifted_pitches":[3,8,5,-1,6,10,8,11,8,5,8,9],"swapped_pitches":[3,8,5,-1,6,8,9,11,8,5,8,9],"shift_direction":1,"question_num":161,"has_decoy":false},{"rt":4154.9000000059605,"stimulus":"[A] option 1, [L] option 2, [G] neither","key_press":76,"name":"choice","trial_type":"html-keyboard-response","trial_index":197,"time_elapsed":417215,"internal_node_id":"0.0-197.0","subject":"S1C1251","sona":"41555","block":2,"time":"2021-09-22T01:56:24.585Z","response":"2nd","certainty":"high","char":"L","transposition":-2,"order":["swapped","shifted"],"probe_pitches":[5,10,14,7,14,5,10,2,14,7,12,7],"shifted_pitches":[5,10,14,7,14,6,10,2,14,7,12,7],"swapped_pitches":[5,10,14,7,14,10,5,2,14,7,12,7],"shift_direction":1,"question_num":171,"has_decoy":false},{"rt":7796.0999999940395,"stimulus":"[A] option 1, [L] option 2, [G] neither","key_press":71,"name":"choice","trial_type":"html-keyboard-response","trial_index":208,"time_elapsed":446082,"internal_node_id":"0.0-208.0","subject":"S1C1251","sona":"41555","block":2,"time":"2021-09-22T01:56:24.585Z","response":"neither","certainty":"high","char":"G","transposition":-2,"order":["shifted","swapped"],"probe_pitches":[2,7,2,9,5,9,12,2,7,12,5,12],"shifted_pitches":[2,7,2,9,5,10,12,2,7,12,5,12],"swapped_pitches":[2,7,2,9,5,12,9,2,7,12,5,12],"shift_direction":1,"question_num":181,"has_decoy":false},{"rt":2963,"stimulus":"[A] option 1, [L] option 2, [G] neither","key_press":71,"name":"choice","trial_type":"html-keyboard-response","trial_index":219,"time_elapsed":469120,"internal_node_id":"0.0-219.0","subject":"S1C1251","sona":"41555","block":2,"time":"2021-09-22T01:56:24.585Z","response":"neither","certainty":"high","char":"G","transposition":2,"order":["shifted","swapped"],"probe_pitches":[6,9,14,6,9,11,6,2,11,6,4,2],"shifted_pitches":[6,9,14,6,9,10,6,2,11,6,4,2],"swapped_pitches":[6,9,14,6,9,6,11,2,11,6,4,2],"shift_direction":-1,"question_num":191,"has_decoy":false}]