[{"rt":3044.7000000029802,"stimulus":"[A] option 1, [L] option 2, [G] neither","key_press":71,"name":"choice","trial_type":"html-keyboard-response","trial_index":10,"time_elapsed":21394,"internal_node_id":"0.0-10.0","subject":"S1C1251","sona":"41555","block":6,"time":"2021-09-22T02:30:16.530Z","response":"neither","certainty":"high","char":"G","transposition":2,"order":["shifted","swapped"],"probe_pitches":[5,6,12,11,2,8,11,5,9,2,4,6],"shifted_pitches":[5,6,12,11,2,8,10,5,9,2,4,6],"swapped_pitches":[5,6,12,11,2,11,8,5,9,2,4,6],"shift_direction":-1,"question_num":1,"has_decoy":false},{"rt":3821.300000011921,"stimulus":"[A] option 1, [L] option 2, [G] neither","key_press":71,"name":"choice","trial_type":"html-keyboard-response","trial_index":21,"time_elapsed":45006,"internal_node_id":"0.0-21.0","subject":"S1C1251","sona":"41555","block":6,"time":"2021-09-22T02:30:16.530Z","response":"neither","certainty":"high","char":"G","transposition":0,"order":["swapped","shifted"],"probe_pitches":[6,2,8,5,10,7,3,8,3,2,3,12],"shifted_pitches":[6,2,8,5,10,7,4,8,3,2,3,12],"swapped_pitches":[6,2,8,5,10,3,7,8,3,2,3,12],"shift_direction":1,"question_num":11,"has_decoy":false},{"rt":4127.4000000059605,"stimulus":"[A] option 1, [L] option 2, [G] neither","key_press":71,"name":"choice","trial_type":"html-keyboard-response","trial_index":32,"time_elapsed":70226,"internal_node_id":"0.0-32.0","subject":"S1C1251","sona":"41555","block":6,"time":"2021-09-22T02:30:16.530Z","response":"neither","certainty":"high","char":"G","transposition":-3,"order":["shifted","swapped"],"probe_pitches":[11,6,2,9,8,14,10,7,12,6,9,4],"shifted_pitches":[11,6,2,9,8,13,10,7,12,6,9,4],"swapped_pitches":[11,6,2,9,8,10,14,7,12,6,9,4],"shift_direction":-1,"question_num":21,"has_decoy":false},{"rt":1784.5,"stimulus":"[A] option 1, [L] option 2, [G] neither","key_press":76,"name":"choice","trial_type":"html-keyboard-response","trial_index":43,"time_elapsed":90890,"internal_node_id":"0.0-43.0","subject":"S1C1251","sona":"41555","block":6,"time":"2021-09-22T02:30:16.530Z","response":"2nd","certainty":"high","char":"L","transposition":-3,"order":["swapped","shifted"],"probe_pitches":[2,7,10,2,0,10,7,2,0,5,10,2],"shifted_pitches":[2,7,10,2,0,11,7,2,0,5,10,2],"swapped_pitches":[2,7,10,2,0,7,10,2,0,5,10,2],"shift_direction":1,"question_num":31,"has_decoy":false},{"rt":5850.899999991059,"stimulus":"[A] option 1, [L] option 2, [G] neither","key_press":71,"name":"choice","trial_type":"html-keyboard-response","trial_index":54,"time_elapsed":115046,"internal_node_id":"0.0-54.0","subject":"S1C1251","sona":"41555","block":6,"time":"2021-09-22T02:30:16.530Z","response":"neither","certainty":"high","char":"G","transposition":-2,"order":["shifted","swapped"],"probe_pitches":[0,5,12,10,5,0,7,5,10,3,5,7],"shifted_pitches":[0,5,12,10,5,1,7,5,10,3,5,7],"swapped_pitches":[0,5,12,10,5,7,0,5,10,3,5,7],"shift_direction":1,"question_num":41,"has_decoy":false},{"rt":6040.199999988079,"stimulus":"[A] option 1, [L] option 2, [G] neither","key_press":71,"name":"choice","trial_type":"html-keyboard-response","trial_index":65,"time_elapsed":140500,"internal_node_id":"0.0-65.0","subject":"S1C1251","sona":"41555","block":6,"time":"2021-09-22T02:30:16.530Z","response":"neither","certainty":"high","char":"G","transposition":-3,"order":["swapped","shifted"],"probe_pitches":[9,12,7,2,5,9,0,5,7,12,9,5],"shifted_pitches":[9,12,7,2,5,9,-1,5,7,12,9,5],"swapped_pitches":[9,12,7,2,5,0,9,5,7,12,9,5],"shift_direction":-1,"question_num":51,"has_decoy":false},{"rt":2195.300000011921,"stimulus":"[A] option 1, [L] option 2, [G] neither","key_press":65,"name":"choice","trial_type":"html-keyboard-response","trial_index":76,"time_elapsed":163039,"internal_node_id":"0.0-76.0","subject":"S1C1251","sona":"41555","block":6,"time":"2021-09-22T02:30:16.530Z","response":"1st","certainty":"high","char":"A","transposition":1,"order":["shifted","swapped"],"probe_pitches":[4,8,4,2,9,6,8,2,4,6,13,6],"shifted_pitches":[4,8,4,2,9,7,8,2,4,6,13,6],"swapped_pitches":[4,8,4,2,9,8,6,2,4,6,13,6],"shift_direction":1,"question_num":61,"has_decoy":false},{"rt":7827.699999988079,"stimulus":"[A] option 1, [L] option 2, [G] neither","key_press":71,"name":"choice","trial_type":"html-keyboard-response","trial_index":87,"time_elapsed":189567,"internal_node_id":"0.0-87.0","subject":"S1C1251","sona":"41555","block":6,"time":"2021-09-22T02:30:16.530Z","response":"neither","certainty":"high","char":"G","transposition":3,"order":["swapped","shifted"],"probe_pitches":[0,5,10,8,0,3,12,5,0,12,8,0],"shifted_pitches":[0,5,10,8,0,2,12,5,0,12,8,0],"swapped_pitches":[0,5,10,8,0,12,3,5,0,12,8,0],"shift_direction":-1,"question_num":71,"has_decoy":false},{"rt":7581.20000000298,"stimulus":"[A] option 1, [L] option 2, [G] neither","key_press":71,"name":"choice","trial_type":"html-keyboard-response","trial_index":98,"time_elapsed":216285,"internal_node_id":"0.0-98.0","subject":"S1C1251","sona":"41555","block":6,"time":"2021-09-22T02:30:16.530Z","response":"neither","certainty":"high","char":"G","transposition":-1,"order":["swapped","shifted"],"probe_pitches":[9,12,9,7,0,9,2,4,9,2,9,4],"shifted_pitches":[9,12,9,7,0,8,2,4,9,2,9,4],"swapped_pitches":[9,12,9,7,0,2,9,4,9,2,9,4],"shift_direction":-1,"question_num":81,"has_decoy":false},{"rt":6407,"stimulus":"[A] option 1, [L] option 2, [G] neither","key_press":65,"name":"choice","trial_type":"html-keyboard-response","trial_index":109,"time_elapsed":244380,"internal_node_id":"0.0-109.0","subject":"S1C1251","sona":"41555","block":6,"time":"2021-09-22T02:30:16.530Z","response":"1st","certainty":"high","char":"A","transposition":-2,"order":["shifted","swapped"],"probe_pitches":[10,7,12,5,3,7,0,3,12,5,0,5],"shifted_pitches":[10,7,12,5,3,7,-1,3,12,5,0,5],"swapped_pitches":[10,7,12,5,3,0,7,3,12,5,0,5],"shift_direction":-1,"question_num":91,"has_decoy":false},{"rt":5139,"stimulus":"[A] option 1, [L] option 2, [G] neither","key_press":71,"name":"choice","trial_type":"html-keyboard-response","trial_index":120,"time_elapsed":268819,"internal_node_id":"0.0-120.0","subject":"S1C1251","sona":"41555","block":6,"time":"2021-09-22T02:30:16.530Z","response":"neither","certainty":"high","char":"G","transposition":-1,"order":["shifted","swapped"],"probe_pitches":[9,4,9,4,2,9,4,0,9,0,7,12],"shifted_pitches":[9,4,9,4,2,9,3,0,9,0,7,12],"swapped_pitches":[9,4,9,4,2,4,9,0,9,0,7,12],"shift_direction":-1,"question_num":101,"has_decoy":false},{"rt":3972,"stimulus":"[A] option 1, [L] option 2, [G] neither","key_press":71,"name":"choice","trial_type":"html-keyboard-response","trial_index":131,"time_elapsed":299023,"internal_node_id":"0.0-131.0","subject":"S1C1251","sona":"41555","block":6,"time":"2021-09-22T02:30:16.530Z","response":"neither","certainty":"high","char":"G","transposition":2,"order":["shifted","swapped"],"probe_pitches":[10,8,10,12,5,0,3,12,5,3,10,8],"shifted_pitches":[10,8,10,12,5,0,4,12,5,3,10,8],"swapped_pitches":[10,8,10,12,5,3,0,12,5,3,10,8],"shift_direction":1,"question_num":111,"has_decoy":false},{"rt":3790.0999999940395,"stimulus":"[A] option 1, [L] option 2, [G] neither","key_press":76,"name":"choice","trial_type":"html-keyboard-response","trial_index":142,"time_elapsed":321597,"internal_node_id":"0.0-142.0","subject":"S1C1251","sona":"41555","block":6,"time":"2021-09-22T02:30:16.530Z","response":"2nd","certainty":"high","char":"L","transposition":-3,"order":["shifted","swapped"],"probe_pitches":[10,12,13,6,10,9,7,4,14,3,12,10],"shifted_pitches":[10,12,13,6,10,9,8,4,14,3,12,10],"swapped_pitches":[10,12,13,6,10,7,9,4,14,3,12,10],"shift_direction":1,"question_num":121,"has_decoy":false},{"rt":7034.29999999702,"stimulus":"[A] option 1, [L] option 2, [G] neither","key_press":71,"name":"choice","trial_type":"html-keyboard-response","trial_index":153,"time_elapsed":347337,"internal_node_id":"0.0-153.0","subject":"S1C1251","sona":"41555","block":6,"time":"2021-09-22T02:30:16.530Z","response":"neither","certainty":"high","char":"G","transposition":-2,"order":["shifted","swapped"],"probe_pitches":[6,2,4,5,7,5,10,4,11,2,4,12],"shifted_pitches":[6,2,4,5,7,5,9,4,11,2,4,12],"swapped_pitches":[6,2,4,5,7,10,5,4,11,2,4,12],"shift_direction":-1,"question_num":131,"has_decoy":false},{"rt":3959,"stimulus":"[A] option 1, [L] option 2, [G] neither","key_press":76,"name":"choice","trial_type":"html-keyboard-response","trial_index":164,"time_elapsed":372848,"internal_node_id":"0.0-164.0","subject":"S1C1251","sona":"41555","block":6,"time":"2021-09-22T02:30:16.530Z","response":"2nd","certainty":"high","char":"L","transposition":-1,"order":["swapped","shifted"],"probe_pitches":[4,8,2,7,8,11,6,8,3,13,2,14],"shifted_pitches":[4,8,2,7,8,12,6,8,3,13,2,14],"swapped_pitches":[4,8,2,7,8,6,11,8,3,13,2,14],"shift_direction":1,"question_num":141,"has_decoy":false},{"rt":4679.600000008941,"stimulus":"[A] option 1, [L] option 2, [G] neither","key_press":76,"name":"choice","trial_type":"html-keyboard-response","trial_index":175,"time_elapsed":396242,"internal_node_id":"0.0-175.0","subject":"S1C1251","sona":"41555","block":6,"time":"2021-09-22T02:30:16.530Z","response":"2nd","certainty":"high","char":"L","transposition":0,"order":["shifted","swapped"],"probe_pitches":[12,9,12,5,2,12,7,9,2,0,9,2],"shifted_pitches":[12,9,12,5,2,13,7,9,2,0,9,2],"swapped_pitches":[12,9,12,5,2,7,12,9,2,0,9,2],"shift_direction":1,"question_num":151,"has_decoy":false},{"rt":3918.199999988079,"stimulus":"[A] option 1, [L] option 2, [G] neither","key_press":71,"name":"choice","trial_type":"html-keyboard-response","trial_index":186,"time_elapsed":419495,"internal_node_id":"0.0-186.0","subject":"S1C1251","sona":"41555","block":6,"time":"2021-09-22T02:30:16.530Z","response":"neither","certainty":"high","char":"G","transposition":1,"order":["swapped","shifted"],"probe_pitches":[5,0,2,10,7,12,2,0,7,2,12,0],"shifted_pitches":[5,0,2,10,7,12,3,0,7,2,12,0],"swapped_pitches":[5,0,2,10,7,2,12,0,7,2,12,0],"shift_direction":1,"question_num":161,"has_decoy":false},{"rt":3733.9000000059605,"stimulus":"[A] option 1, [L] option 2, [G] neither","key_press":65,"name":"choice","trial_type":"html-keyboard-response","trial_index":197,"time_elapsed":445194,"internal_node_id":"0.0-197.0","subject":"S1C1251","sona":"41555","block":6,"time":"2021-09-22T02:30:16.530Z","response":"1st","certainty":"high","char":"A","transposition":-1,"order":["swapped","shifted"],"probe_pitches":[12,14,13,14,9,6,4,12,6,4,13,2],"shifted_pitches":[12,14,13,14,9,5,4,12,6,4,13,2],"swapped_pitches":[12,14,13,14,9,4,6,12,6,4,13,2],"shift_direction":-1,"question_num":171,"has_decoy":false},{"rt":3613.7999999970198,"stimulus":"[A] option 1, [L] option 2, [G] neither","key_press":76,"name":"choice","trial_type":"html-keyboard-response","trial_index":208,"time_elapsed":467899,"internal_node_id":"0.0-208.0","subject":"S1C1251","sona":"41555","block":6,"time":"2021-09-22T02:30:16.530Z","response":"2nd","certainty":"high","char":"L","transposition":-2,"order":["swapped","shifted"],"probe_pitches":[5,10,7,10,9,5,13,2,3,7,12,7],"shifted_pitches":[5,10,7,10,9,6,13,2,3,7,12,7],"swapped_pitches":[5,10,7,10,9,13,5,2,3,7,12,7],"shift_direction":1,"question_num":181,"has_decoy":false},{"rt":1036.2000000029802,"stimulus":"[A] option 1, [L] option 2, [G] neither","key_press":76,"name":"choice","trial_type":"html-keyboard-response","trial_index":219,"time_elapsed":487392,"internal_node_id":"0.0-219.0","subject":"S1C1251","sona":"41555","block":6,"time":"2021-09-22T02:30:16.530Z","response":"2nd","certainty":"high","char":"L","transposition":3,"order":["swapped","shifted"],"probe_pitches":[8,7,5,7,3,5,12,14,9,8,2,12],"shifted_pitches":[8,7,5,7,3,5,11,14,9,8,2,12],"swapped_pitches":[8,7,5,7,3,12,5,14,9,8,2,12],"shift_direction":-1,"question_num":191,"has_decoy":false}]