[{"rt":5098.20000000298,"stimulus":"[A] option 1, [L] option 2, [G] neither","key_press":65,"name":"choice","trial_type":"html-keyboard-response","trial_index":10,"time_elapsed":25410,"internal_node_id":"0.0-10.0","subject":"S1C1251","sona":"41555","block":5,"time":"2021-09-22T02:22:00.059Z","response":"1st","certainty":"high","char":"A","transposition":0,"order":["shifted","swapped"],"probe_pitches":[11,8,9,4,5,11,6,8,5,0,-1,5],"shifted_pitches":[11,8,9,4,5,10,6,8,5,0,-1,5],"swapped_pitches":[11,8,9,4,5,6,11,8,5,0,-1,5],"shift_direction":-1,"question_num":1,"has_decoy":false},{"rt":6064.399999991059,"stimulus":"[A] option 1, [L] option 2, [G] neither","key_press":71,"name":"choice","trial_type":"html-keyboard-response","trial_index":21,"time_elapsed":51240,"internal_node_id":"0.0-21.0","subject":"S1C1251","sona":"41555","block":5,"time":"2021-09-22T02:22:00.059Z","response":"neither","certainty":"high","char":"G","transposition":-2,"order":["shifted","swapped"],"probe_pitches":[5,0,3,5,7,10,3,0,7,3,7,3],"shifted_pitches":[5,0,3,5,7,10,2,0,7,3,7,3],"swapped_pitches":[5,0,3,5,7,3,10,0,7,3,7,3],"shift_direction":-1,"question_num":11,"has_decoy":false},{"rt":7622,"stimulus":"[A] option 1, [L] option 2, [G] neither","key_press":71,"name":"choice","trial_type":"html-keyboard-response","trial_index":32,"time_elapsed":78088,"internal_node_id":"0.0-32.0","subject":"S1C1251","sona":"41555","block":5,"time":"2021-09-22T02:22:00.059Z","response":"neither","certainty":"high","char":"G","transposition":-3,"order":["swapped","shifted"],"probe_pitches":[10,8,3,5,0,-2,8,10,0,-2,8,-2],"shifted_pitches":[10,8,3,5,0,-2,7,10,0,-2,8,-2],"swapped_pitches":[10,8,3,5,0,8,-2,10,0,-2,8,-2],"shift_direction":-1,"question_num":21,"has_decoy":false},{"rt":6096.20000000298,"stimulus":"[A] option 1, [L] option 2, [G] neither","key_press":71,"name":"choice","trial_type":"html-keyboard-response","trial_index":43,"time_elapsed":105507,"internal_node_id":"0.0-43.0","subject":"S1C1251","sona":"41555","block":5,"time":"2021-09-22T02:22:00.059Z","response":"neither","certainty":"high","char":"G","transposition":0,"order":["shifted","swapped"],"probe_pitches":[-2,2,-2,5,-2,7,2,10,0,7,0,2],"shifted_pitches":[-2,2,-2,5,-2,7,3,10,0,7,0,2],"swapped_pitches":[-2,2,-2,5,-2,2,7,10,0,7,0,2],"shift_direction":1,"question_num":31,"has_decoy":false},{"rt":7597.5,"stimulus":"[A] option 1, [L] option 2, [G] neither","key_press":71,"name":"choice","trial_type":"html-keyboard-response","trial_index":54,"time_elapsed":132635,"internal_node_id":"0.0-54.0","subject":"S1C1251","sona":"41555","block":5,"time":"2021-09-22T02:22:00.059Z","response":"neither","certainty":"high","char":"G","transposition":2,"order":["shifted","swapped"],"probe_pitches":[1,6,8,1,6,1,10,6,-2,8,3,8],"shifted_pitches":[1,6,8,1,6,1,9,6,-2,8,3,8],"swapped_pitches":[1,6,8,1,6,10,1,6,-2,8,3,8],"shift_direction":-1,"question_num":41,"has_decoy":false},{"rt":1989.7000000029802,"stimulus":"[A] option 1, [L] option 2, [G] neither","key_press":76,"name":"choice","trial_type":"html-keyboard-response","trial_index":65,"time_elapsed":155677,"internal_node_id":"0.0-65.0","subject":"S1C1251","sona":"41555","block":5,"time":"2021-09-22T02:22:00.059Z","response":"2nd","certainty":"high","char":"L","transposition":-1,"order":["swapped","shifted"],"probe_pitches":[7,5,0,6,10,8,2,7,9,-1,10,6],"shifted_pitches":[7,5,0,6,10,8,3,7,9,-1,10,6],"swapped_pitches":[7,5,0,6,10,2,8,7,9,-1,10,6],"shift_direction":1,"question_num":51,"has_decoy":false},{"rt":6903.79999999702,"stimulus":"[A] option 1, [L] option 2, [G] neither","key_press":71,"name":"choice","trial_type":"html-keyboard-response","trial_index":76,"time_elapsed":187669,"internal_node_id":"0.0-76.0","subject":"S1C1251","sona":"41555","block":5,"time":"2021-09-22T02:22:00.059Z","response":"neither","certainty":"high","char":"G","transposition":-3,"order":["shifted","swapped"],"probe_pitches":[11,7,3,10,11,5,0,8,7,2,-1,9],"shifted_pitches":[11,7,3,10,11,5,1,8,7,2,-1,9],"swapped_pitches":[11,7,3,10,11,0,5,8,7,2,-1,9],"shift_direction":1,"question_num":61,"has_decoy":false},{"rt":7497.29999999702,"stimulus":"[A] option 1, [L] option 2, [G] neither","key_press":76,"name":"choice","trial_type":"html-keyboard-response","trial_index":87,"time_elapsed":213675,"internal_node_id":"0.0-87.0","subject":"S1C1251","sona":"41555","block":5,"time":"2021-09-22T02:22:00.059Z","response":"2nd","certainty":"high","char":"L","transposition":-2,"order":["swapped","shifted"],"probe_pitches":[8,5,8,1,3,10,5,8,10,3,5,1],"shifted_pitches":[8,5,8,1,3,10,4,8,10,3,5,1],"swapped_pitches":[8,5,8,1,3,5,10,8,10,3,5,1],"shift_direction":-1,"question_num":71,"has_decoy":false},{"rt":8890.90000000596,"stimulus":"[A] option 1, [L] option 2, [G] neither","key_press":71,"name":"choice","trial_type":"html-keyboard-response","trial_index":98,"time_elapsed":242141,"internal_node_id":"0.0-98.0","subject":"S1C1251","sona":"41555","block":5,"time":"2021-09-22T02:22:00.059Z","response":"neither","certainty":"high","char":"G","transposition":-1,"order":["shifted","swapped"],"probe_pitches":[8,2,4,10,4,8,5,9,7,5,0,11],"shifted_pitches":[8,2,4,10,4,8,6,9,7,5,0,11],"swapped_pitches":[8,2,4,10,4,5,8,9,7,5,0,11],"shift_direction":1,"question_num":81,"has_decoy":false},{"rt":4224.5999999940395,"stimulus":"[A] option 1, [L] option 2, [G] neither","key_press":71,"name":"choice","trial_type":"html-keyboard-response","trial_index":109,"time_elapsed":267580,"internal_node_id":"0.0-109.0","subject":"S1C1251","sona":"41555","block":5,"time":"2021-09-22T02:22:00.059Z","response":"neither","certainty":"high","char":"G","transposition":-2,"order":["shifted","swapped"],"probe_pitches":[4,6,-1,3,7,4,6,10,7,11,8,11],"shifted_pitches":[4,6,-1,3,7,5,6,10,7,11,8,11],"swapped_pitches":[4,6,-1,3,7,6,4,10,7,11,8,11],"shift_direction":1,"question_num":91,"has_decoy":false},{"rt":4828,"stimulus":"[A] option 1, [L] option 2, [G] neither","key_press":71,"name":"choice","trial_type":"html-keyboard-response","trial_index":120,"time_elapsed":295123,"internal_node_id":"0.0-120.0","subject":"S1C1251","sona":"41555","block":5,"time":"2021-09-22T02:22:00.059Z","response":"neither","certainty":"high","char":"G","transposition":-1,"order":["swapped","shifted"],"probe_pitches":[-2,3,1,-2,3,5,10,-2,1,8,1,8],"shifted_pitches":[-2,3,1,-2,3,6,10,-2,1,8,1,8],"swapped_pitches":[-2,3,1,-2,3,10,5,-2,1,8,1,8],"shift_direction":1,"question_num":101,"has_decoy":false},{"rt":2053,"stimulus":"[A] option 1, [L] option 2, [G] neither","key_press":71,"name":"choice","trial_type":"html-keyboard-response","trial_index":131,"time_elapsed":318118,"internal_node_id":"0.0-131.0","subject":"S1C1251","sona":"41555","block":5,"time":"2021-09-22T02:22:00.059Z","response":"neither","certainty":"high","char":"G","transposition":1,"order":["shifted","swapped"],"probe_pitches":[3,0,7,0,-2,3,0,5,0,10,3,5],"shifted_pitches":[3,0,7,0,-2,4,0,5,0,10,3,5],"swapped_pitches":[3,0,7,0,-2,0,3,5,0,10,3,5],"shift_direction":1,"question_num":111,"has_decoy":false},{"rt":11903.79999999702,"stimulus":"[A] option 1, [L] option 2, [G] neither","key_press":71,"name":"choice","trial_type":"html-keyboard-response","trial_index":142,"time_elapsed":349884,"internal_node_id":"0.0-142.0","subject":"S1C1251","sona":"41555","block":5,"time":"2021-09-22T02:22:00.059Z","response":"neither","certainty":"high","char":"G","transposition":-1,"order":["shifted","swapped"],"probe_pitches":[6,8,6,8,1,6,10,3,-2,3,1,10],"shifted_pitches":[6,8,6,8,1,5,10,3,-2,3,1,10],"swapped_pitches":[6,8,6,8,1,10,6,3,-2,3,1,10],"shift_direction":-1,"question_num":121,"has_decoy":false},{"rt":4075.0999999940395,"stimulus":"[A] option 1, [L] option 2, [G] neither","key_press":76,"name":"choice","trial_type":"html-keyboard-response","trial_index":153,"time_elapsed":374524,"internal_node_id":"0.0-153.0","subject":"S1C1251","sona":"41555","block":5,"time":"2021-09-22T02:22:00.059Z","response":"2nd","certainty":"high","char":"L","transposition":3,"order":["swapped","shifted"],"probe_pitches":[8,3,7,1,5,3,0,5,1,8,9,1],"shifted_pitches":[8,3,7,1,5,2,0,5,1,8,9,1],"swapped_pitches":[8,3,7,1,5,0,3,5,1,8,9,1],"shift_direction":-1,"question_num":131,"has_decoy":false},{"rt":6532.29999999702,"stimulus":"[A] option 1, [L] option 2, [G] neither","key_press":76,"name":"choice","trial_type":"html-keyboard-response","trial_index":164,"time_elapsed":399567,"internal_node_id":"0.0-164.0","subject":"S1C1251","sona":"41555","block":5,"time":"2021-09-22T02:22:00.059Z","response":"2nd","certainty":"high","char":"L","transposition":2,"order":["shifted","swapped"],"probe_pitches":[2,3,1,5,10,2,9,-1,7,3,7,-1],"shifted_pitches":[2,3,1,5,10,2,8,-1,7,3,7,-1],"swapped_pitches":[2,3,1,5,10,9,2,-1,7,3,7,-1],"shift_direction":-1,"question_num":141,"has_decoy":false},{"rt":8677.79999999702,"stimulus":"[A] option 1, [L] option 2, [G] neither","key_press":71,"name":"choice","trial_type":"html-keyboard-response","trial_index":175,"time_elapsed":433591,"internal_node_id":"0.0-175.0","subject":"S1C1251","sona":"41555","block":5,"time":"2021-09-22T02:22:00.059Z","response":"neither","certainty":"high","char":"G","transposition":3,"order":["swapped","shifted"],"probe_pitches":[-2,3,-2,0,5,-2,3,8,0,3,10,-2],"shifted_pitches":[-2,3,-2,0,5,-1,3,8,0,3,10,-2],"swapped_pitches":[-2,3,-2,0,5,3,-2,8,0,3,10,-2],"shift_direction":1,"question_num":151,"has_decoy":false},{"rt":4029.0999999940395,"stimulus":"[A] option 1, [L] option 2, [G] neither","key_press":71,"name":"choice","trial_type":"html-keyboard-response","trial_index":186,"time_elapsed":455976,"internal_node_id":"0.0-186.0","subject":"S1C1251","sona":"41555","block":5,"time":"2021-09-22T02:22:00.059Z","response":"neither","certainty":"high","char":"G","transposition":-3,"order":["swapped","shifted"],"probe_pitches":[10,5,7,5,10,0,7,10,7,5,2,7],"shifted_pitches":[10,5,7,5,10,1,7,10,7,5,2,7],"swapped_pitches":[10,5,7,5,10,7,0,10,7,5,2,7],"shift_direction":1,"question_num":161,"has_decoy":false},{"rt":957.2000000029802,"stimulus":"[A] option 1, [L] option 2, [G] neither","key_press":76,"name":"choice","trial_type":"html-keyboard-response","trial_index":197,"time_elapsed":476051,"internal_node_id":"0.0-197.0","subject":"S1C1251","sona":"41555","block":5,"time":"2021-09-22T02:22:00.059Z","response":"2nd","certainty":"high","char":"L","transposition":1,"order":["swapped","shifted"],"probe_pitches":[6,1,6,-1,5,3,1,11,-1,10,3,1],"shifted_pitches":[6,1,6,-1,5,4,1,11,-1,10,3,1],"swapped_pitches":[6,1,6,-1,5,1,3,11,-1,10,3,1],"shift_direction":1,"question_num":171,"has_decoy":false},{"rt":3231.7000000029802,"stimulus":"[A] option 1, [L] option 2, [G] neither","key_press":71,"name":"choice","trial_type":"html-keyboard-response","trial_index":208,"time_elapsed":498016,"internal_node_id":"0.0-208.0","subject":"S1C1251","sona":"41555","block":5,"time":"2021-09-22T02:22:00.059Z","response":"neither","certainty":"high","char":"G","transposition":-2,"order":["swapped","shifted"],"probe_pitches":[6,1,2,7,4,10,11,1,-1,11,4,8],"shifted_pitches":[6,1,2,7,4,9,11,1,-1,11,4,8],"swapped_pitches":[6,1,2,7,4,11,10,1,-1,11,4,8],"shift_direction":-1,"question_num":181,"has_decoy":false},{"rt":3675.300000011921,"stimulus":"[A] option 1, [L] option 2, [G] neither","key_press":71,"name":"choice","trial_type":"html-keyboard-response","trial_index":219,"time_elapsed":526540,"internal_node_id":"0.0-219.0","subject":"S1C1251","sona":"41555","block":5,"time":"2021-09-22T02:22:00.059Z","response":"neither","certainty":"high","char":"G","transposition":-3,"order":["swapped","shifted"],"probe_pitches":[-1,1,6,-1,6,10,8,0,10,5,11,8],"shifted_pitches":[-1,1,6,-1,6,10,7,0,10,5,11,8],"swapped_pitches":[-1,1,6,-1,6,8,10,0,10,5,11,8],"shift_direction":-1,"question_num":191,"has_decoy":false}]