[{"rt":8367.90000000596,"stimulus":"[A] option 1, [L] option 2, [G] neither","key_press":65,"name":"choice","trial_type":"html-keyboard-response","trial_index":15,"time_elapsed":72533,"internal_node_id":"0.0-15.0","response":"1st","certainty":"high","char":"A","transposition":2,"order":["swapped","shifted"],"probe_pitches":[-1,3,9,1,-2,1,5,-2,7,-2,-3,7],"shifted_pitches":[-1,3,9,1,-2,2,5,-2,7,-2,-3,7],"swapped_pitches":[-1,3,9,1,-2,5,1,-2,7,-2,-3,7],"shift_direction":1,"question_num":1,"has_decoy":false,"subject":"S1C1251","sona":"41555","block":1,"time":"2021-09-22T01:47:38.262Z"},{"rt":5807.20000000298,"stimulus":"[A] option 1, [L] option 2, [G] neither","key_press":76,"name":"choice","trial_type":"html-keyboard-response","trial_index":26,"time_elapsed":102026,"internal_node_id":"0.0-26.0","response":"2nd","certainty":"high","char":"L","transposition":1,"order":["shifted","swapped"],"probe_pitches":[2,3,4,6,3,-2,7,-3,6,7,6,9],"shifted_pitches":[2,3,4,6,3,-2,8,-3,6,7,6,9],"swapped_pitches":[2,3,4,6,3,7,-2,-3,6,7,6,9],"shift_direction":1,"question_num":11,"has_decoy":false,"subject":"S1C1251","sona":"41555","block":1,"time":"2021-09-22T01:47:38.262Z"},{"rt":7355.70000000298,"stimulus":"[A] option 1, [L] option 2, [G] neither","key_press":76,"name":"choice","trial_type":"html-keyboard-response","trial_index":37,"time_elapsed":129980,"internal_node_id":"0.0-37.0","response":"2nd","certainty":"high","char":"L","transposition":-3,"order":["shifted","swapped"],"probe_pitches":[8,2,9,2,-2,6,9,3,8,-1,7,6],"shifted_pitches":[8,2,9,2,-2,5,9,3,8,-1,7,6],"swapped_pitches":[8,2,9,2,-2,9,6,3,8,-1,7,6],"shift_direction":-1,"question_num":21,"has_decoy":false,"subject":"S1C1251","sona":"41555","block":1,"time":"2021-09-22T01:47:38.262Z"},{"rt":556.6000000089407,"stimulus":"[A] option 1, [L] option 2, [G] neither","key_press":71,"name":"choice","trial_type":"html-keyboard-response","trial_index":48,"time_elapsed":150594,"internal_node_id":"0.0-48.0","response":"neither","certainty":"high","char":"G","transposition":3,"order":["shifted","swapped"],"probe_pitches":[6,4,-3,2,-1,2,8,9,3,1,4,8],"shifted_pitches":[6,4,-3,2,-1,2,7,9,3,1,4,8],"swapped_pitches":[6,4,-3,2,-1,8,2,9,3,1,4,8],"shift_direction":-1,"question_num":31,"has_decoy":false,"subject":"S1C1251","sona":"41555","block":1,"time":"2021-09-22T01:47:38.262Z"},{"rt":2844.9000000059605,"stimulus":"[A] option 1, [L] option 2, [G] neither","key_press":76,"name":"choice","trial_type":"html-keyboard-response","trial_index":59,"time_elapsed":176477,"internal_node_id":"0.0-59.0","response":"2nd","certainty":"high","char":"L","transposition":-3,"order":["swapped","shifted"],"probe_pitches":[6,9,3,6,9,7,3,6,-2,8,9,0],"shifted_pitches":[6,9,3,6,9,7,4,6,-2,8,9,0],"swapped_pitches":[6,9,3,6,9,3,7,6,-2,8,9,0],"shift_direction":1,"question_num":41,"has_decoy":false,"subject":"S1C1251","sona":"41555","block":1,"time":"2021-09-22T01:47:38.262Z"},{"rt":1247.9000000059605,"stimulus":"[A] option 1, [L] option 2, [G] neither","key_press":76,"name":"choice","trial_type":"html-keyboard-response","trial_index":70,"time_elapsed":199656,"internal_node_id":"0.0-70.0","response":"2nd","certainty":"high","char":"L","transposition":-1,"order":["shifted","swapped"],"probe_pitches":[2,-2,4,6,8,-2,2,3,-3,6,-2,6],"shifted_pitches":[2,-2,4,6,8,-1,2,3,-3,6,-2,6],"swapped_pitches":[2,-2,4,6,8,2,-2,3,-3,6,-2,6],"shift_direction":1,"question_num":51,"has_decoy":false,"subject":"S1C1251","sona":"41555","block":1,"time":"2021-09-22T01:47:38.262Z"},{"rt":274.79999999701977,"stimulus":"[A] option 1, [L] option 2, [G] neither","key_press":65,"name":"choice","trial_type":"html-keyboard-response","trial_index":81,"time_elapsed":227769,"internal_node_id":"0.0-81.0","response":"1st","certainty":"high","char":"A","transposition":-3,"order":["swapped","shifted"],"probe_pitches":[13,9,6,1,6,11,4,9,4,6,1,13],"shifted_pitches":[13,9,6,1,6,11,3,9,4,6,1,13],"swapped_pitches":[13,9,6,1,6,4,11,9,4,6,1,13],"shift_direction":-1,"question_num":61,"has_decoy":false,"subject":"S1C1251","sona":"41555","block":1,"time":"2021-09-22T01:47:38.262Z"},{"rt":1382,"stimulus":"[A] option 1, [L] option 2, [G] neither","key_press":71,"name":"choice","trial_type":"html-keyboard-response","trial_index":92,"time_elapsed":248796,"internal_node_id":"0.0-92.0","response":"neither","certainty":"high","char":"G","transposition":-1,"order":["swapped","shifted"],"probe_pitches":[10,5,3,10,5,3,1,13,8,3,8,5],"shifted_pitches":[10,5,3,10,5,3,0,13,8,3,8,5],"swapped_pitches":[10,5,3,10,5,1,3,13,8,3,8,5],"shift_direction":-1,"question_num":71,"has_decoy":false,"subject":"S1C1251","sona":"41555","block":1,"time":"2021-09-22T01:47:38.262Z"},{"rt":1434.7000000029802,"stimulus":"[A] option 1, [L] option 2, [G] neither","key_press":71,"name":"choice","trial_type":"html-keyboard-response","trial_index":103,"time_elapsed":270539,"internal_node_id":"0.0-103.0","response":"neither","certainty":"high","char":"G","transposition":-2,"order":["shifted","swapped"],"probe_pitches":[13,8,11,3,8,3,11,1,6,8,1,6],"shifted_pitches":[13,8,11,3,8,3,12,1,6,8,1,6],"swapped_pitches":[13,8,11,3,8,11,3,1,6,8,1,6],"shift_direction":1,"question_num":81,"has_decoy":false,"subject":"S1C1251","sona":"41555","block":1,"time":"2021-09-22T01:47:38.262Z"},{"rt":1258,"stimulus":"[A] option 1, [L] option 2, [G] neither","key_press":76,"name":"choice","trial_type":"html-keyboard-response","trial_index":114,"time_elapsed":290971,"internal_node_id":"0.0-114.0","response":"2nd","certainty":"high","char":"L","transposition":1,"order":["swapped","shifted"],"probe_pitches":[1,4,1,8,11,4,6,8,11,13,1,4],"shifted_pitches":[1,4,1,8,11,4,7,8,11,13,1,4],"swapped_pitches":[1,4,1,8,11,6,4,8,11,13,1,4],"shift_direction":1,"question_num":91,"has_decoy":false,"subject":"S1C1251","sona":"41555","block":1,"time":"2021-09-22T01:47:38.262Z"},{"rt":2309.0999999940395,"stimulus":"[A] option 1, [L] option 2, [G] neither","key_press":76,"name":"choice","trial_type":"html-keyboard-response","trial_index":125,"time_elapsed":314546,"internal_node_id":"0.0-125.0","response":"2nd","certainty":"high","char":"L","transposition":-2,"order":["shifted","swapped"],"probe_pitches":[5,2,3,8,0,2,-2,6,4,7,0,2],"shifted_pitches":[5,2,3,8,0,1,-2,6,4,7,0,2],"swapped_pitches":[5,2,3,8,0,-2,2,6,4,7,0,2],"shift_direction":-1,"question_num":101,"has_decoy":false,"subject":"S1C1251","sona":"41555","block":1,"time":"2021-09-22T01:47:38.262Z"},{"rt":5531.100000008941,"stimulus":"[A] option 1, [L] option 2, [G] neither","key_press":76,"name":"choice","trial_type":"html-keyboard-response","trial_index":136,"time_elapsed":341832,"internal_node_id":"0.0-136.0","response":"2nd","certainty":"high","char":"L","transposition":0,"order":["swapped","shifted"],"probe_pitches":[-3,1,4,-2,4,-2,1,2,1,6,-1,4],"shifted_pitches":[-3,1,4,-2,4,-2,0,2,1,6,-1,4],"swapped_pitches":[-3,1,4,-2,4,1,-2,2,1,6,-1,4],"shift_direction":-1,"question_num":111,"has_decoy":false,"subject":"S1C1251","sona":"41555","block":1,"time":"2021-09-22T01:47:38.262Z"},{"rt":2526.7999999970198,"stimulus":"[A] option 1, [L] option 2, [G] neither","key_press":76,"name":"choice","trial_type":"html-keyboard-response","trial_index":147,"time_elapsed":367532,"internal_node_id":"0.0-147.0","response":"2nd","certainty":"high","char":"L","transposition":0,"order":["shifted","swapped"],"probe_pitches":[6,3,8,6,1,8,3,11,6,13,8,1],"shifted_pitches":[6,3,8,6,1,9,3,11,6,13,8,1],"swapped_pitches":[6,3,8,6,1,3,8,11,6,13,8,1],"shift_direction":1,"question_num":121,"has_decoy":false,"subject":"S1C1251","sona":"41555","block":1,"time":"2021-09-22T01:47:38.262Z"},{"rt":1124.9000000059605,"stimulus":"[A] option 1, [L] option 2, [G] neither","key_press":65,"name":"choice","trial_type":"html-keyboard-response","trial_index":158,"time_elapsed":388375,"internal_node_id":"0.0-158.0","response":"1st","certainty":"high","char":"A","transposition":3,"order":["shifted","swapped"],"probe_pitches":[6,1,4,8,13,6,4,13,4,11,6,8],"shifted_pitches":[6,1,4,8,13,7,4,13,4,11,6,8],"swapped_pitches":[6,1,4,8,13,4,6,13,4,11,6,8],"shift_direction":1,"question_num":131,"has_decoy":false,"subject":"S1C1251","sona":"41555","block":1,"time":"2021-09-22T01:47:38.262Z"},{"rt":2750,"stimulus":"[A] option 1, [L] option 2, [G] neither","key_press":76,"name":"choice","trial_type":"html-keyboard-response","trial_index":169,"time_elapsed":410246,"internal_node_id":"0.0-169.0","response":"2nd","certainty":"high","char":"L","transposition":2,"order":["swapped","shifted"],"probe_pitches":[10,13,10,3,8,5,10,3,1,10,13,5],"shifted_pitches":[10,13,10,3,8,5,9,3,1,10,13,5],"swapped_pitches":[10,13,10,3,8,10,5,3,1,10,13,5],"shift_direction":-1,"question_num":141,"has_decoy":false,"subject":"S1C1251","sona":"41555","block":1,"time":"2021-09-22T01:47:38.262Z"},{"rt":2131.300000011921,"stimulus":"[A] option 1, [L] option 2, [G] neither","key_press":65,"name":"choice","trial_type":"html-keyboard-response","trial_index":180,"time_elapsed":431547,"internal_node_id":"0.0-180.0","response":"1st","certainty":"high","char":"A","transposition":-3,"order":["shifted","swapped"],"probe_pitches":[1,6,3,8,1,10,8,13,6,13,3,8],"shifted_pitches":[1,6,3,8,1,11,8,13,6,13,3,8],"swapped_pitches":[1,6,3,8,1,8,10,13,6,13,3,8],"shift_direction":1,"question_num":151,"has_decoy":false,"subject":"S1C1251","sona":"41555","block":1,"time":"2021-09-22T01:47:38.262Z"},{"rt":3619.2000000029802,"stimulus":"[A] option 1, [L] option 2, [G] neither","key_press":76,"name":"choice","trial_type":"html-keyboard-response","trial_index":191,"time_elapsed":456171,"internal_node_id":"0.0-191.0","response":"2nd","certainty":"high","char":"L","transposition":-2,"order":["shifted","swapped"],"probe_pitches":[6,8,3,8,1,10,6,13,6,10,13,8],"shifted_pitches":[6,8,3,8,1,9,6,13,6,10,13,8],"swapped_pitches":[6,8,3,8,1,6,10,13,6,10,13,8],"shift_direction":-1,"question_num":161,"has_decoy":false,"subject":"S1C1251","sona":"41555","block":1,"time":"2021-09-22T01:47:38.262Z"},{"rt":1852.2999999970198,"stimulus":"[A] option 1, [L] option 2, [G] neither","key_press":76,"name":"choice","trial_type":"html-keyboard-response","trial_index":202,"time_elapsed":479637,"internal_node_id":"0.0-202.0","response":"2nd","certainty":"high","char":"L","transposition":-2,"order":["swapped","shifted"],"probe_pitches":[6,0,-3,2,-3,1,2,-2,7,8,5,6],"shifted_pitches":[6,0,-3,2,-3,1,3,-2,7,8,5,6],"swapped_pitches":[6,0,-3,2,-3,2,1,-2,7,8,5,6],"shift_direction":1,"question_num":171,"has_decoy":false,"subject":"S1C1251","sona":"41555","block":1,"time":"2021-09-22T01:47:38.262Z"},{"rt":2239.5999999940395,"stimulus":"[A] option 1, [L] option 2, [G] neither","key_press":71,"name":"choice","trial_type":"html-keyboard-response","trial_index":213,"time_elapsed":503283,"internal_node_id":"0.0-213.0","response":"neither","certainty":"high","char":"G","transposition":-1,"order":["swapped","shifted"],"probe_pitches":[9,11,6,11,13,9,1,4,13,4,11,9],"shifted_pitches":[9,11,6,11,13,8,1,4,13,4,11,9],"swapped_pitches":[9,11,6,11,13,1,9,4,13,4,11,9],"shift_direction":-1,"question_num":181,"has_decoy":false,"subject":"S1C1251","sona":"41555","block":1,"time":"2021-09-22T01:47:38.262Z"},{"rt":4675.5,"stimulus":"[A] option 1, [L] option 2, [G] neither","key_press":76,"name":"choice","trial_type":"html-keyboard-response","trial_index":224,"time_elapsed":530487,"internal_node_id":"0.0-224.0","response":"2nd","certainty":"high","char":"L","transposition":-1,"order":["swapped","shifted"],"probe_pitches":[7,9,2,-2,0,7,4,5,0,1,-3,0],"shifted_pitches":[7,9,2,-2,0,6,4,5,0,1,-3,0],"swapped_pitches":[7,9,2,-2,0,4,7,5,0,1,-3,0],"shift_direction":-1,"question_num":191,"has_decoy":false,"subject":"S1C1251","sona":"41555","block":1,"time":"2021-09-22T01:47:38.262Z"}]