[{"rt":8512.5,"stimulus":"[A] option 1, [L] option 2, [G] neither","key_press":76,"name":"choice","trial_type":"html-keyboard-response","trial_index":15,"time_elapsed":67025,"internal_node_id":"0.0-15.0","response":"2nd","certainty":"high","char":"L","transposition":-3,"order":["shifted","swapped"],"probe_pitches":[2,5,2,7,12,10,7,14,2,10,7,14,12,7,5,10],"shifted_pitches":[2,5,2,7,12,10,7,14,3,10,7,14,12,7,5,10],"swapped_pitches":[2,5,2,7,12,10,7,2,14,10,7,14,12,7,5,10],"shift_direction":1,"question_num":1,"has_decoy":false,"subject":"S1C1656","sona":"41661","block":1,"time":"2021-09-21T21:21:06.320Z"},{"rt":2225.100000143051,"stimulus":"[A] option 1, [L] option 2, [G] neither","key_press":76,"name":"choice","trial_type":"html-keyboard-response","trial_index":26,"time_elapsed":93697,"internal_node_id":"0.0-26.0","response":"2nd","certainty":"high","char":"L","transposition":-1,"order":["swapped","shifted"],"probe_pitches":[7,11,4,7,4,14,11,2,14,11,4,9,2,9,2,4],"shifted_pitches":[7,11,4,7,4,14,11,1,14,11,4,9,2,9,2,4],"swapped_pitches":[7,11,4,7,4,14,11,14,2,11,4,9,2,9,2,4],"shift_direction":-1,"question_num":11,"has_decoy":false,"subject":"S1C1656","sona":"41661","block":1,"time":"2021-09-21T21:21:06.320Z"},{"rt":2736.699999809265,"stimulus":"[A] option 1, [L] option 2, [G] neither","key_press":76,"name":"choice","trial_type":"html-keyboard-response","trial_index":37,"time_elapsed":119488,"internal_node_id":"0.0-37.0","response":"2nd","certainty":"high","char":"L","transposition":-2,"order":["swapped","shifted"],"probe_pitches":[4,9,11,7,4,9,4,2,11,7,2,14,2,7,9,11],"shifted_pitches":[4,9,11,7,4,9,4,1,11,7,2,14,2,7,9,11],"swapped_pitches":[4,9,11,7,4,9,4,11,2,7,2,14,2,7,9,11],"shift_direction":-1,"question_num":21,"has_decoy":false,"subject":"S1C1656","sona":"41661","block":1,"time":"2021-09-21T21:21:06.320Z"},{"rt":996.2000000476837,"stimulus":"[A] option 1, [L] option 2, [G] neither","key_press":76,"name":"choice","trial_type":"html-keyboard-response","trial_index":48,"time_elapsed":143678,"internal_node_id":"0.0-48.0","response":"2nd","certainty":"high","char":"L","transposition":1,"order":["swapped","shifted"],"probe_pitches":[-2,-1,6,1,-3,7,-1,1,4,0,5,4,5,-2,-1,-3],"shifted_pitches":[-2,-1,6,1,-3,7,-1,1,3,0,5,4,5,-2,-1,-3],"swapped_pitches":[-2,-1,6,1,-3,7,-1,4,1,0,5,4,5,-2,-1,-3],"shift_direction":-1,"question_num":31,"has_decoy":false,"subject":"S1C1656","sona":"41661","block":1,"time":"2021-09-21T21:21:06.320Z"},{"rt":2507.5999999046326,"stimulus":"[A] option 1, [L] option 2, [G] neither","key_press":65,"name":"choice","trial_type":"html-keyboard-response","trial_index":59,"time_elapsed":169119,"internal_node_id":"0.0-59.0","response":"1st","certainty":"high","char":"A","transposition":-3,"order":["swapped","shifted"],"probe_pitches":[5,8,9,8,4,-3,7,0,2,8,2,-2,-1,0,8,9],"shifted_pitches":[5,8,9,8,4,-3,7,1,2,8,2,-2,-1,0,8,9],"swapped_pitches":[5,8,9,8,4,-3,7,2,0,8,2,-2,-1,0,8,9],"shift_direction":1,"question_num":41,"has_decoy":false,"subject":"S1C1656","sona":"41661","block":1,"time":"2021-09-21T21:21:06.320Z"},{"rt":6957.700000047684,"stimulus":"[A] option 1, [L] option 2, [G] neither","key_press":76,"name":"choice","trial_type":"html-keyboard-response","trial_index":70,"time_elapsed":198892,"internal_node_id":"0.0-70.0","response":"2nd","certainty":"high","char":"L","transposition":3,"order":["shifted","swapped"],"probe_pitches":[2,6,4,11,4,14,6,11,14,6,11,9,6,14,2,14],"shifted_pitches":[2,6,4,11,4,14,6,10,14,6,11,9,6,14,2,14],"swapped_pitches":[2,6,4,11,4,14,6,14,11,6,11,9,6,14,2,14],"shift_direction":-1,"question_num":51,"has_decoy":false,"subject":"S1C1656","sona":"41661","block":1,"time":"2021-09-21T21:21:06.320Z"},{"rt":3306.2000000476837,"stimulus":"[A] option 1, [L] option 2, [G] neither","key_press":65,"name":"choice","trial_type":"html-keyboard-response","trial_index":81,"time_elapsed":225137,"internal_node_id":"0.0-81.0","response":"1st","certainty":"high","char":"A","transposition":0,"order":["shifted","swapped"],"probe_pitches":[2,4,7,-1,7,1,4,7,2,-1,1,4,2,-2,5,9],"shifted_pitches":[2,4,7,-1,7,1,4,6,2,-1,1,4,2,-2,5,9],"swapped_pitches":[2,4,7,-1,7,1,4,2,7,-1,1,4,2,-2,5,9],"shift_direction":-1,"question_num":61,"has_decoy":false,"subject":"S1C1656","sona":"41661","block":1,"time":"2021-09-21T21:21:06.320Z"},{"rt":1278.5,"stimulus":"[A] option 1, [L] option 2, [G] neither","key_press":76,"name":"choice","trial_type":"html-keyboard-response","trial_index":92,"time_elapsed":249599,"internal_node_id":"0.0-92.0","response":"2nd","certainty":"high","char":"L","transposition":3,"order":["shifted","swapped"],"probe_pitches":[5,2,-2,1,-1,2,1,6,3,0,9,8,-1,4,2,-2],"shifted_pitches":[5,2,-2,1,-1,2,1,7,3,0,9,8,-1,4,2,-2],"swapped_pitches":[5,2,-2,1,-1,2,1,3,6,0,9,8,-1,4,2,-2],"shift_direction":1,"question_num":71,"has_decoy":false,"subject":"S1C1656","sona":"41661","block":1,"time":"2021-09-21T21:21:06.320Z"},{"rt":6508.599999904633,"stimulus":"[A] option 1, [L] option 2, [G] neither","key_press":76,"name":"choice","trial_type":"html-keyboard-response","trial_index":103,"time_elapsed":279659,"internal_node_id":"0.0-103.0","response":"2nd","certainty":"high","char":"L","transposition":2,"order":["shifted","swapped"],"probe_pitches":[7,12,14,9,4,14,7,2,12,7,14,2,14,12,2,7],"shifted_pitches":[7,12,14,9,4,14,7,2,11,7,14,2,14,12,2,7],"swapped_pitches":[7,12,14,9,4,14,7,12,2,7,14,2,14,12,2,7],"shift_direction":-1,"question_num":81,"has_decoy":false,"subject":"S1C1656","sona":"41661","block":1,"time":"2021-09-21T21:21:06.320Z"},{"rt":509.7999999523163,"stimulus":"[A] option 1, [L] option 2, [G] neither","key_press":76,"name":"choice","trial_type":"html-keyboard-response","trial_index":114,"time_elapsed":302911,"internal_node_id":"0.0-114.0","response":"2nd","certainty":"high","char":"L","transposition":-1,"order":["shifted","swapped"],"probe_pitches":[1,3,7,-1,5,2,4,1,3,9,6,-3,8,2,1,5],"shifted_pitches":[1,3,7,-1,5,2,4,0,3,9,6,-3,8,2,1,5],"swapped_pitches":[1,3,7,-1,5,2,4,3,1,9,6,-3,8,2,1,5],"shift_direction":-1,"question_num":91,"has_decoy":false,"subject":"S1C1656","sona":"41661","block":1,"time":"2021-09-21T21:21:06.320Z"},{"rt":433.39999985694885,"stimulus":"[A] option 1, [L] option 2, [G] neither","key_press":76,"name":"choice","trial_type":"html-keyboard-response","trial_index":125,"time_elapsed":327095,"internal_node_id":"0.0-125.0","response":"2nd","certainty":"high","char":"L","transposition":-2,"order":["swapped","shifted"],"probe_pitches":[0,5,9,3,-3,3,9,-1,3,7,8,2,6,0,-1,-3],"shifted_pitches":[0,5,9,3,-3,3,9,-1,4,7,8,2,6,0,-1,-3],"swapped_pitches":[0,5,9,3,-3,3,9,3,-1,7,8,2,6,0,-1,-3],"shift_direction":1,"question_num":101,"has_decoy":false,"subject":"S1C1656","sona":"41661","block":1,"time":"2021-09-21T21:21:06.320Z"},{"rt":440.5,"stimulus":"[A] option 1, [L] option 2, [G] neither","key_press":76,"name":"choice","trial_type":"html-keyboard-response","trial_index":136,"time_elapsed":350321,"internal_node_id":"0.0-136.0","response":"2nd","certainty":"high","char":"L","transposition":-2,"order":["swapped","shifted"],"probe_pitches":[2,7,10,12,7,10,5,14,7,12,5,2,14,10,2,10],"shifted_pitches":[2,7,10,12,7,10,5,15,7,12,5,2,14,10,2,10],"swapped_pitches":[2,7,10,12,7,10,5,7,14,12,5,2,14,10,2,10],"shift_direction":1,"question_num":111,"has_decoy":false,"subject":"S1C1656","sona":"41661","block":1,"time":"2021-09-21T21:21:06.320Z"},{"rt":992.2999999523163,"stimulus":"[A] option 1, [L] option 2, [G] neither","key_press":76,"name":"choice","trial_type":"html-keyboard-response","trial_index":147,"time_elapsed":373713,"internal_node_id":"0.0-147.0","response":"2nd","certainty":"high","char":"L","transposition":-3,"order":["swapped","shifted"],"probe_pitches":[8,6,3,-3,6,7,-3,3,0,9,8,9,3,-3,4,5],"shifted_pitches":[8,6,3,-3,6,7,-3,3,-1,9,8,9,3,-3,4,5],"swapped_pitches":[8,6,3,-3,6,7,-3,0,3,9,8,9,3,-3,4,5],"shift_direction":-1,"question_num":121,"has_decoy":false,"subject":"S1C1656","sona":"41661","block":1,"time":"2021-09-21T21:21:06.320Z"},{"rt":518.7000000476837,"stimulus":"[A] option 1, [L] option 2, [G] neither","key_press":65,"name":"choice","trial_type":"html-keyboard-response","trial_index":158,"time_elapsed":396830,"internal_node_id":"0.0-158.0","response":"1st","certainty":"high","char":"A","transposition":-1,"order":["shifted","swapped"],"probe_pitches":[14,9,6,11,4,9,4,14,9,11,6,9,14,9,11,14],"shifted_pitches":[14,9,6,11,4,9,4,15,9,11,6,9,14,9,11,14],"swapped_pitches":[14,9,6,11,4,9,4,9,14,11,6,9,14,9,11,14],"shift_direction":1,"question_num":131,"has_decoy":false,"subject":"S1C1656","sona":"41661","block":1,"time":"2021-09-21T21:21:06.320Z"},{"rt":563.9000000953674,"stimulus":"[A] option 1, [L] option 2, [G] neither","key_press":65,"name":"choice","trial_type":"html-keyboard-response","trial_index":169,"time_elapsed":420454,"internal_node_id":"0.0-169.0","response":"1st","certainty":"high","char":"A","transposition":0,"order":["shifted","swapped"],"probe_pitches":[9,5,7,9,2,9,2,9,7,5,12,5,9,5,7,5],"shifted_pitches":[9,5,7,9,2,9,2,9,8,5,12,5,9,5,7,5],"swapped_pitches":[9,5,7,9,2,9,2,7,9,5,12,5,9,5,7,5],"shift_direction":1,"question_num":141,"has_decoy":false,"subject":"S1C1656","sona":"41661","block":1,"time":"2021-09-21T21:21:06.320Z"},{"rt":496.2999999523163,"stimulus":"[A] option 1, [L] option 2, [G] neither","key_press":76,"name":"choice","trial_type":"html-keyboard-response","trial_index":180,"time_elapsed":443316,"internal_node_id":"0.0-180.0","response":"2nd","certainty":"high","char":"L","transposition":1,"order":["swapped","shifted"],"probe_pitches":[5,9,5,2,5,9,12,14,9,2,12,5,7,9,5,7],"shifted_pitches":[5,9,5,2,5,9,12,14,10,2,12,5,7,9,5,7],"swapped_pitches":[5,9,5,2,5,9,12,9,14,2,12,5,7,9,5,7],"shift_direction":1,"question_num":151,"has_decoy":false,"subject":"S1C1656","sona":"41661","block":1,"time":"2021-09-21T21:21:06.320Z"},{"rt":984.4000000953674,"stimulus":"[A] option 1, [L] option 2, [G] neither","key_press":65,"name":"choice","trial_type":"html-keyboard-response","trial_index":191,"time_elapsed":467289,"internal_node_id":"0.0-191.0","response":"1st","certainty":"high","char":"A","transposition":2,"order":["swapped","shifted"],"probe_pitches":[3,8,4,-2,2,0,-1,2,6,-2,3,-2,3,8,2,8],"shifted_pitches":[3,8,4,-2,2,0,-1,2,5,-2,3,-2,3,8,2,8],"swapped_pitches":[3,8,4,-2,2,0,-1,6,2,-2,3,-2,3,8,2,8],"shift_direction":-1,"question_num":161,"has_decoy":false,"subject":"S1C1656","sona":"41661","block":1,"time":"2021-09-21T21:21:06.320Z"},{"rt":499.39999985694885,"stimulus":"[A] option 1, [L] option 2, [G] neither","key_press":76,"name":"choice","trial_type":"html-keyboard-response","trial_index":202,"time_elapsed":490604,"internal_node_id":"0.0-202.0","response":"2nd","certainty":"high","char":"L","transposition":-3,"order":["swapped","shifted"],"probe_pitches":[2,4,9,4,12,9,7,14,4,9,2,4,14,12,14,4],"shifted_pitches":[2,4,9,4,12,9,7,14,3,9,2,4,14,12,14,4],"swapped_pitches":[2,4,9,4,12,9,7,4,14,9,2,4,14,12,14,4],"shift_direction":-1,"question_num":171,"has_decoy":false,"subject":"S1C1656","sona":"41661","block":1,"time":"2021-09-21T21:21:06.320Z"},{"rt":653.2999999523163,"stimulus":"[A] option 1, [L] option 2, [G] neither","key_press":76,"name":"choice","trial_type":"html-keyboard-response","trial_index":213,"time_elapsed":513598,"internal_node_id":"0.0-213.0","response":"2nd","certainty":"high","char":"L","transposition":-2,"order":["shifted","swapped"],"probe_pitches":[6,0,4,5,7,4,-1,7,1,0,5,7,0,4,5,7],"shifted_pitches":[6,0,4,5,7,4,-1,8,1,0,5,7,0,4,5,7],"swapped_pitches":[6,0,4,5,7,4,-1,1,7,0,5,7,0,4,5,7],"shift_direction":1,"question_num":181,"has_decoy":false,"subject":"S1C1656","sona":"41661","block":1,"time":"2021-09-21T21:21:06.320Z"},{"rt":752.0999999046326,"stimulus":"[A] option 1, [L] option 2, [G] neither","key_press":76,"name":"choice","trial_type":"html-keyboard-response","trial_index":224,"time_elapsed":536993,"internal_node_id":"0.0-224.0","response":"2nd","certainty":"high","char":"L","transposition":-1,"order":["shifted","swapped"],"probe_pitches":[6,3,-2,4,1,-3,0,-3,1,8,4,0,7,0,5,0],"shifted_pitches":[6,3,-2,4,1,-3,0,-3,2,8,4,0,7,0,5,0],"swapped_pitches":[6,3,-2,4,1,-3,0,1,-3,8,4,0,7,0,5,0],"shift_direction":1,"question_num":191,"has_decoy":false,"subject":"S1C1656","sona":"41661","block":1,"time":"2021-09-21T21:21:06.320Z"}]