[{"rt":2210,"stimulus":"[A] option 1, [L] option 2, [G] neither","key_press":76,"name":"choice","trial_type":"html-keyboard-response","trial_index":10,"time_elapsed":34763,"internal_node_id":"0.0-10.0","subject":"S1C1656","sona":"41661","block":5,"time":"2021-09-21T21:57:25.975Z","response":"2nd","certainty":"high","char":"L","transposition":1,"order":["swapped","shifted"],"probe_pitches":[10,6,1,4,12,5,13,8,5,12,4,6,3,6,8,10],"shifted_pitches":[10,6,1,4,12,5,13,9,5,12,4,6,3,6,8,10],"swapped_pitches":[10,6,1,4,12,5,13,5,8,12,4,6,3,6,8,10],"shift_direction":1,"question_num":1,"has_decoy":false},{"rt":5080.400000095367,"stimulus":"[A] option 1, [L] option 2, [G] neither","key_press":76,"name":"choice","trial_type":"html-keyboard-response","trial_index":21,"time_elapsed":64417,"internal_node_id":"0.0-21.0","subject":"S1C1656","sona":"41661","block":5,"time":"2021-09-21T21:57:25.975Z","response":"2nd","certainty":"high","char":"L","transposition":-1,"order":["swapped","shifted"],"probe_pitches":[5,2,8,10,5,11,2,1,6,13,4,11,3,2,10,12],"shifted_pitches":[5,2,8,10,5,11,2,1,7,13,4,11,3,2,10,12],"swapped_pitches":[5,2,8,10,5,11,2,6,1,13,4,11,3,2,10,12],"shift_direction":1,"question_num":11,"has_decoy":false},{"rt":1432,"stimulus":"[A] option 1, [L] option 2, [G] neither","key_press":76,"name":"choice","trial_type":"html-keyboard-response","trial_index":32,"time_elapsed":89498,"internal_node_id":"0.0-32.0","subject":"S1C1656","sona":"41661","block":5,"time":"2021-09-21T21:57:25.975Z","response":"2nd","certainty":"high","char":"L","transposition":1,"order":["shifted","swapped"],"probe_pitches":[4,1,8,1,4,1,8,-1,6,8,-1,4,1,8,4,-1],"shifted_pitches":[4,1,8,1,4,1,8,0,6,8,-1,4,1,8,4,-1],"swapped_pitches":[4,1,8,1,4,1,8,6,-1,8,-1,4,1,8,4,-1],"shift_direction":1,"question_num":21,"has_decoy":false},{"rt":5118,"stimulus":"[A] option 1, [L] option 2, [G] neither","key_press":76,"name":"choice","trial_type":"html-keyboard-response","trial_index":43,"time_elapsed":117124,"internal_node_id":"0.0-43.0","subject":"S1C1656","sona":"41661","block":5,"time":"2021-09-21T21:57:25.975Z","response":"2nd","certainty":"high","char":"L","transposition":-1,"order":["shifted","swapped"],"probe_pitches":[2,4,2,4,6,11,6,9,-1,4,11,9,4,9,6,11],"shifted_pitches":[2,4,2,4,6,11,6,10,-1,4,11,9,4,9,6,11],"swapped_pitches":[2,4,2,4,6,11,6,-1,9,4,11,9,4,9,6,11],"shift_direction":1,"question_num":31,"has_decoy":false},{"rt":2098,"stimulus":"[A] option 1, [L] option 2, [G] neither","key_press":76,"name":"choice","trial_type":"html-keyboard-response","trial_index":54,"time_elapsed":144602,"internal_node_id":"0.0-54.0","subject":"S1C1656","sona":"41661","block":5,"time":"2021-09-21T21:57:25.975Z","response":"2nd","certainty":"high","char":"L","transposition":3,"order":["swapped","shifted"],"probe_pitches":[4,6,2,4,9,2,11,2,6,11,4,6,-1,2,9,11],"shifted_pitches":[4,6,2,4,9,2,11,2,5,11,4,6,-1,2,9,11],"swapped_pitches":[4,6,2,4,9,2,11,6,2,11,4,6,-1,2,9,11],"shift_direction":-1,"question_num":41,"has_decoy":false},{"rt":1864.3999998569489,"stimulus":"[A] option 1, [L] option 2, [G] neither","key_press":65,"name":"choice","trial_type":"html-keyboard-response","trial_index":65,"time_elapsed":170991,"internal_node_id":"0.0-65.0","subject":"S1C1656","sona":"41661","block":5,"time":"2021-09-21T21:57:25.975Z","response":"1st","certainty":"high","char":"A","transposition":-3,"order":["swapped","shifted"],"probe_pitches":[12,9,8,1,10,6,10,12,2,4,6,1,2,1,4,8],"shifted_pitches":[12,9,8,1,10,6,10,11,2,4,6,1,2,1,4,8],"swapped_pitches":[12,9,8,1,10,6,10,2,12,4,6,1,2,1,4,8],"shift_direction":-1,"question_num":51,"has_decoy":false},{"rt":313.90000009536743,"stimulus":"[A] option 1, [L] option 2, [G] neither","key_press":76,"name":"choice","trial_type":"html-keyboard-response","trial_index":76,"time_elapsed":193721,"internal_node_id":"0.0-76.0","subject":"S1C1656","sona":"41661","block":5,"time":"2021-09-21T21:57:25.975Z","response":"2nd","certainty":"high","char":"L","transposition":-2,"order":["swapped","shifted"],"probe_pitches":[1,6,-1,6,8,1,11,8,4,11,1,4,1,8,1,6],"shifted_pitches":[1,6,-1,6,8,1,11,8,5,11,1,4,1,8,1,6],"swapped_pitches":[1,6,-1,6,8,1,11,4,8,11,1,4,1,8,1,6],"shift_direction":1,"question_num":61,"has_decoy":false},{"rt":289.40000009536743,"stimulus":"[A] option 1, [L] option 2, [G] neither","key_press":76,"name":"choice","trial_type":"html-keyboard-response","trial_index":87,"time_elapsed":217405,"internal_node_id":"0.0-87.0","subject":"S1C1656","sona":"41661","block":5,"time":"2021-09-21T21:57:25.975Z","response":"2nd","certainty":"high","char":"L","transposition":-3,"order":["swapped","shifted"],"probe_pitches":[6,1,-1,1,8,6,11,8,6,3,11,-1,1,-1,6,-1],"shifted_pitches":[6,1,-1,1,8,6,11,8,5,3,11,-1,1,-1,6,-1],"swapped_pitches":[6,1,-1,1,8,6,11,6,8,3,11,-1,1,-1,6,-1],"shift_direction":-1,"question_num":71,"has_decoy":false},{"rt":934.5,"stimulus":"[A] option 1, [L] option 2, [G] neither","key_press":65,"name":"choice","trial_type":"html-keyboard-response","trial_index":98,"time_elapsed":240881,"internal_node_id":"0.0-98.0","subject":"S1C1656","sona":"41661","block":5,"time":"2021-09-21T21:57:25.975Z","response":"1st","certainty":"high","char":"A","transposition":-1,"order":["shifted","swapped"],"probe_pitches":[2,4,11,7,-1,9,2,9,7,-1,2,4,2,-1,7,11],"shifted_pitches":[2,4,11,7,-1,9,2,9,6,-1,2,4,2,-1,7,11],"swapped_pitches":[2,4,11,7,-1,9,2,7,9,-1,2,4,2,-1,7,11],"shift_direction":-1,"question_num":81,"has_decoy":false},{"rt":2068.7000000476837,"stimulus":"[A] option 1, [L] option 2, [G] neither","key_press":65,"name":"choice","trial_type":"html-keyboard-response","trial_index":109,"time_elapsed":265774,"internal_node_id":"0.0-109.0","subject":"S1C1656","sona":"41661","block":5,"time":"2021-09-21T21:57:25.975Z","response":"1st","certainty":"high","char":"A","transposition":-2,"order":["shifted","swapped"],"probe_pitches":[2,7,2,9,2,4,-1,4,2,11,9,4,2,11,4,2],"shifted_pitches":[2,7,2,9,2,4,-1,5,2,11,9,4,2,11,4,2],"swapped_pitches":[2,7,2,9,2,4,-1,2,4,11,9,4,2,11,4,2],"shift_direction":1,"question_num":91,"has_decoy":false},{"rt":1977.5,"stimulus":"[A] option 1, [L] option 2, [G] neither","key_press":65,"name":"choice","trial_type":"html-keyboard-response","trial_index":120,"time_elapsed":290234,"internal_node_id":"0.0-120.0","subject":"S1C1656","sona":"41661","block":5,"time":"2021-09-21T21:57:25.975Z","response":"1st","certainty":"high","char":"A","transposition":-2,"order":["shifted","swapped"],"probe_pitches":[1,5,8,10,11,6,3,1,11,7,13,6,2,4,6,8],"shifted_pitches":[1,5,8,10,11,6,3,0,11,7,13,6,2,4,6,8],"swapped_pitches":[1,5,8,10,11,6,3,11,1,7,13,6,2,4,6,8],"shift_direction":-1,"question_num":101,"has_decoy":false},{"rt":386.09999990463257,"stimulus":"[A] option 1, [L] option 2, [G] neither","key_press":76,"name":"choice","trial_type":"html-keyboard-response","trial_index":131,"time_elapsed":313392,"internal_node_id":"0.0-131.0","subject":"S1C1656","sona":"41661","block":5,"time":"2021-09-21T21:57:25.975Z","response":"2nd","certainty":"high","char":"L","transposition":-3,"order":["swapped","shifted"],"probe_pitches":[6,11,9,4,9,11,1,4,6,-1,4,6,4,1,9,4],"shifted_pitches":[6,11,9,4,9,11,1,4,5,-1,4,6,4,1,9,4],"swapped_pitches":[6,11,9,4,9,11,1,6,4,-1,4,6,4,1,9,4],"shift_direction":-1,"question_num":111,"has_decoy":false},{"rt":2494.7999999523163,"stimulus":"[A] option 1, [L] option 2, [G] neither","key_press":76,"name":"choice","trial_type":"html-keyboard-response","trial_index":142,"time_elapsed":338459,"internal_node_id":"0.0-142.0","subject":"S1C1656","sona":"41661","block":5,"time":"2021-09-21T21:57:25.975Z","response":"2nd","certainty":"high","char":"L","transposition":-1,"order":["shifted","swapped"],"probe_pitches":[7,5,7,4,13,9,13,10,7,12,2,3,11,4,2,3],"shifted_pitches":[7,5,7,4,13,9,13,10,6,12,2,3,11,4,2,3],"swapped_pitches":[7,5,7,4,13,9,13,7,10,12,2,3,11,4,2,3],"shift_direction":-1,"question_num":121,"has_decoy":false},{"rt":561.2999999523163,"stimulus":"[A] option 1, [L] option 2, [G] neither","key_press":65,"name":"choice","trial_type":"html-keyboard-response","trial_index":153,"time_elapsed":367497,"internal_node_id":"0.0-153.0","subject":"S1C1656","sona":"41661","block":5,"time":"2021-09-21T21:57:25.975Z","response":"1st","certainty":"high","char":"A","transposition":0,"order":["shifted","swapped"],"probe_pitches":[2,5,11,7,3,2,3,7,11,5,7,5,12,13,8,11],"shifted_pitches":[2,5,11,7,3,2,3,7,10,5,7,5,12,13,8,11],"swapped_pitches":[2,5,11,7,3,2,3,11,7,5,7,5,12,13,8,11],"shift_direction":-1,"question_num":131,"has_decoy":false},{"rt":1633.5,"stimulus":"[A] option 1, [L] option 2, [G] neither","key_press":76,"name":"choice","trial_type":"html-keyboard-response","trial_index":164,"time_elapsed":395119,"internal_node_id":"0.0-164.0","subject":"S1C1656","sona":"41661","block":5,"time":"2021-09-21T21:57:25.975Z","response":"2nd","certainty":"high","char":"L","transposition":-3,"order":["swapped","shifted"],"probe_pitches":[12,11,13,12,13,8,12,3,10,7,5,8,2,12,6,7],"shifted_pitches":[12,11,13,12,13,8,12,4,10,7,5,8,2,12,6,7],"swapped_pitches":[12,11,13,12,13,8,12,10,3,7,5,8,2,12,6,7],"shift_direction":1,"question_num":141,"has_decoy":false},{"rt":3567.4000000953674,"stimulus":"[A] option 1, [L] option 2, [G] neither","key_press":65,"name":"choice","trial_type":"html-keyboard-response","trial_index":175,"time_elapsed":423953,"internal_node_id":"0.0-175.0","subject":"S1C1656","sona":"41661","block":5,"time":"2021-09-21T21:57:25.975Z","response":"1st","certainty":"high","char":"A","transposition":2,"order":["swapped","shifted"],"probe_pitches":[11,9,4,-1,6,9,11,1,9,11,6,9,-1,4,-1,9],"shifted_pitches":[11,9,4,-1,6,9,11,2,9,11,6,9,-1,4,-1,9],"swapped_pitches":[11,9,4,-1,6,9,11,9,1,11,6,9,-1,4,-1,9],"shift_direction":1,"question_num":151,"has_decoy":false},{"rt":5224.099999904633,"stimulus":"[A] option 1, [L] option 2, [G] neither","key_press":65,"name":"choice","trial_type":"html-keyboard-response","trial_index":186,"time_elapsed":455703,"internal_node_id":"0.0-186.0","subject":"S1C1656","sona":"41661","block":5,"time":"2021-09-21T21:57:25.975Z","response":"1st","certainty":"high","char":"A","transposition":3,"order":["swapped","shifted"],"probe_pitches":[6,11,7,5,6,12,2,4,9,2,3,2,1,7,11,2],"shifted_pitches":[6,11,7,5,6,12,2,4,8,2,3,2,1,7,11,2],"swapped_pitches":[6,11,7,5,6,12,2,9,4,2,3,2,1,7,11,2],"shift_direction":-1,"question_num":161,"has_decoy":false},{"rt":3436.100000143051,"stimulus":"[A] option 1, [L] option 2, [G] neither","key_press":65,"name":"choice","trial_type":"html-keyboard-response","trial_index":197,"time_elapsed":484496,"internal_node_id":"0.0-197.0","subject":"S1C1656","sona":"41661","block":5,"time":"2021-09-21T21:57:25.975Z","response":"1st","certainty":"high","char":"A","transposition":2,"order":["shifted","swapped"],"probe_pitches":[9,12,13,8,1,7,1,2,6,1,8,7,13,1,2,9],"shifted_pitches":[9,12,13,8,1,7,1,3,6,1,8,7,13,1,2,9],"swapped_pitches":[9,12,13,8,1,7,1,6,2,1,8,7,13,1,2,9],"shift_direction":1,"question_num":171,"has_decoy":false},{"rt":563.7000000476837,"stimulus":"[A] option 1, [L] option 2, [G] neither","key_press":65,"name":"choice","trial_type":"html-keyboard-response","trial_index":208,"time_elapsed":507930,"internal_node_id":"0.0-208.0","subject":"S1C1656","sona":"41661","block":5,"time":"2021-09-21T21:57:25.975Z","response":"1st","certainty":"high","char":"A","transposition":-2,"order":["shifted","swapped"],"probe_pitches":[11,10,6,11,7,3,2,11,4,1,12,11,9,4,9,12],"shifted_pitches":[11,10,6,11,7,3,2,11,5,1,12,11,9,4,9,12],"swapped_pitches":[11,10,6,11,7,3,2,4,11,1,12,11,9,4,9,12],"shift_direction":1,"question_num":181,"has_decoy":false},{"rt":5898,"stimulus":"[A] option 1, [L] option 2, [G] neither","key_press":76,"name":"choice","trial_type":"html-keyboard-response","trial_index":219,"time_elapsed":536674,"internal_node_id":"0.0-219.0","subject":"S1C1656","sona":"41661","block":5,"time":"2021-09-21T21:57:25.975Z","response":"2nd","certainty":"high","char":"L","transposition":0,"order":["shifted","swapped"],"probe_pitches":[3,-1,6,8,6,-1,8,6,-1,1,8,-1,11,8,6,3],"shifted_pitches":[3,-1,6,8,6,-1,8,5,-1,1,8,-1,11,8,6,3],"swapped_pitches":[3,-1,6,8,6,-1,8,-1,6,1,8,-1,11,8,6,3],"shift_direction":-1,"question_num":191,"has_decoy":false}]