[{"rt":1035,"stimulus":"[A] option 1, [L] option 2, [G] neither","key_press":76,"name":"choice","trial_type":"html-keyboard-response","trial_index":10,"time_elapsed":25838,"internal_node_id":"0.0-10.0","subject":"S1C1656","sona":"41661","block":2,"time":"2021-09-21T21:29:26.796Z","response":"2nd","certainty":"high","char":"L","transposition":-2,"order":["swapped","shifted"],"probe_pitches":[-1,1,4,8,0,7,-2,10,2,5,10,6,8,-2,5,7],"shifted_pitches":[-1,1,4,8,0,7,-2,10,3,5,10,6,8,-2,5,7],"swapped_pitches":[-1,1,4,8,0,7,-2,2,10,5,10,6,8,-2,5,7],"shift_direction":1,"question_num":1,"has_decoy":false},{"rt":1374.9000000953674,"stimulus":"[A] option 1, [L] option 2, [G] neither","key_press":76,"name":"choice","trial_type":"html-keyboard-response","trial_index":21,"time_elapsed":50887,"internal_node_id":"0.0-21.0","subject":"S1C1656","sona":"41661","block":2,"time":"2021-09-21T21:29:26.796Z","response":"2nd","certainty":"high","char":"L","transposition":-2,"order":["swapped","shifted"],"probe_pitches":[3,7,0,5,12,5,3,12,7,5,10,12,3,5,7,12],"shifted_pitches":[3,7,0,5,12,5,3,13,7,5,10,12,3,5,7,12],"swapped_pitches":[3,7,0,5,12,5,3,7,12,5,10,12,3,5,7,12],"shift_direction":1,"question_num":11,"has_decoy":false},{"rt":558.4000000953674,"stimulus":"[A] option 1, [L] option 2, [G] neither","key_press":76,"name":"choice","trial_type":"html-keyboard-response","trial_index":32,"time_elapsed":75821,"internal_node_id":"0.0-32.0","subject":"S1C1656","sona":"41661","block":2,"time":"2021-09-21T21:29:26.796Z","response":"2nd","certainty":"high","char":"L","transposition":-3,"order":["swapped","shifted"],"probe_pitches":[3,2,7,-1,7,2,1,6,8,-1,1,6,8,1,3,10],"shifted_pitches":[3,2,7,-1,7,2,1,5,8,-1,1,6,8,1,3,10],"swapped_pitches":[3,2,7,-1,7,2,1,8,6,-1,1,6,8,1,3,10],"shift_direction":-1,"question_num":21,"has_decoy":false},{"rt":3005.2999999523163,"stimulus":"[A] option 1, [L] option 2, [G] neither","key_press":76,"name":"choice","trial_type":"html-keyboard-response","trial_index":43,"time_elapsed":101277,"internal_node_id":"0.0-43.0","subject":"S1C1656","sona":"41661","block":2,"time":"2021-09-21T21:29:26.796Z","response":"2nd","certainty":"high","char":"L","transposition":-3,"order":["shifted","swapped"],"probe_pitches":[12,9,2,9,2,5,7,5,9,0,12,7,9,2,12,7],"shifted_pitches":[12,9,2,9,2,5,7,6,9,0,12,7,9,2,12,7],"swapped_pitches":[12,9,2,9,2,5,7,9,5,0,12,7,9,2,12,7],"shift_direction":1,"question_num":31,"has_decoy":false},{"rt":481.7000000476837,"stimulus":"[A] option 1, [L] option 2, [G] neither","key_press":76,"name":"choice","trial_type":"html-keyboard-response","trial_index":54,"time_elapsed":124484,"internal_node_id":"0.0-54.0","subject":"S1C1656","sona":"41661","block":2,"time":"2021-09-21T21:29:26.796Z","response":"2nd","certainty":"high","char":"L","transposition":0,"order":["shifted","swapped"],"probe_pitches":[9,7,1,0,1,9,4,1,5,2,7,-1,8,7,-2,7],"shifted_pitches":[9,7,1,0,1,9,4,1,6,2,7,-1,8,7,-2,7],"swapped_pitches":[9,7,1,0,1,9,4,5,1,2,7,-1,8,7,-2,7],"shift_direction":1,"question_num":41,"has_decoy":false},{"rt":449.7000000476837,"stimulus":"[A] option 1, [L] option 2, [G] neither","key_press":76,"name":"choice","trial_type":"html-keyboard-response","trial_index":65,"time_elapsed":147456,"internal_node_id":"0.0-65.0","subject":"S1C1656","sona":"41661","block":2,"time":"2021-09-21T21:29:26.796Z","response":"2nd","certainty":"high","char":"L","transposition":-3,"order":["swapped","shifted"],"probe_pitches":[12,10,5,2,10,12,10,7,0,2,7,0,5,2,10,0],"shifted_pitches":[12,10,5,2,10,12,10,8,0,2,7,0,5,2,10,0],"swapped_pitches":[12,10,5,2,10,12,10,0,7,2,7,0,5,2,10,0],"shift_direction":1,"question_num":51,"has_decoy":false},{"rt":1406.8000001907349,"stimulus":"[A] option 1, [L] option 2, [G] neither","key_press":65,"name":"choice","trial_type":"html-keyboard-response","trial_index":76,"time_elapsed":171810,"internal_node_id":"0.0-76.0","subject":"S1C1656","sona":"41661","block":2,"time":"2021-09-21T21:29:26.796Z","response":"1st","certainty":"high","char":"A","transposition":-3,"order":["swapped","shifted"],"probe_pitches":[-1,1,2,0,4,9,8,-2,6,8,3,8,4,5,-1,-2],"shifted_pitches":[-1,1,2,0,4,9,8,-2,7,8,3,8,4,5,-1,-2],"swapped_pitches":[-1,1,2,0,4,9,8,6,-2,8,3,8,4,5,-1,-2],"shift_direction":1,"question_num":61,"has_decoy":false},{"rt":1993.2000000476837,"stimulus":"[A] option 1, [L] option 2, [G] neither","key_press":65,"name":"choice","trial_type":"html-keyboard-response","trial_index":87,"time_elapsed":196407,"internal_node_id":"0.0-87.0","subject":"S1C1656","sona":"41661","block":2,"time":"2021-09-21T21:29:26.796Z","response":"1st","certainty":"high","char":"A","transposition":1,"order":["shifted","swapped"],"probe_pitches":[1,0,7,8,-1,0,10,5,8,-1,2,1,6,10,-1,2],"shifted_pitches":[1,0,7,8,-1,0,10,4,8,-1,2,1,6,10,-1,2],"swapped_pitches":[1,0,7,8,-1,0,10,8,5,-1,2,1,6,10,-1,2],"shift_direction":-1,"question_num":71,"has_decoy":false},{"rt":4566.400000095367,"stimulus":"[A] option 1, [L] option 2, [G] neither","key_press":76,"name":"choice","trial_type":"html-keyboard-response","trial_index":98,"time_elapsed":224278,"internal_node_id":"0.0-98.0","subject":"S1C1656","sona":"41661","block":2,"time":"2021-09-21T21:29:26.796Z","response":"2nd","certainty":"high","char":"L","transposition":3,"order":["shifted","swapped"],"probe_pitches":[-1,0,-1,5,10,8,7,1,0,-2,6,8,10,5,10,8],"shifted_pitches":[-1,0,-1,5,10,8,7,2,0,-2,6,8,10,5,10,8],"swapped_pitches":[-1,0,-1,5,10,8,7,0,1,-2,6,8,10,5,10,8],"shift_direction":1,"question_num":81,"has_decoy":false},{"rt":1500.5,"stimulus":"[A] option 1, [L] option 2, [G] neither","key_press":65,"name":"choice","trial_type":"html-keyboard-response","trial_index":109,"time_elapsed":248403,"internal_node_id":"0.0-109.0","subject":"S1C1656","sona":"41661","block":2,"time":"2021-09-21T21:29:26.796Z","response":"1st","certainty":"high","char":"A","transposition":0,"order":["shifted","swapped"],"probe_pitches":[12,7,0,7,9,0,9,0,4,2,4,9,12,9,7,9],"shifted_pitches":[12,7,0,7,9,0,9,0,3,2,4,9,12,9,7,9],"swapped_pitches":[12,7,0,7,9,0,9,4,0,2,4,9,12,9,7,9],"shift_direction":-1,"question_num":91,"has_decoy":false},{"rt":742.1999998092651,"stimulus":"[A] option 1, [L] option 2, [G] neither","key_press":76,"name":"choice","trial_type":"html-keyboard-response","trial_index":120,"time_elapsed":271594,"internal_node_id":"0.0-120.0","subject":"S1C1656","sona":"41661","block":2,"time":"2021-09-21T21:29:26.796Z","response":"2nd","certainty":"high","char":"L","transposition":-1,"order":["swapped","shifted"],"probe_pitches":[5,7,5,0,5,12,3,5,7,12,0,7,10,7,5,7],"shifted_pitches":[5,7,5,0,5,12,3,4,7,12,0,7,10,7,5,7],"swapped_pitches":[5,7,5,0,5,12,3,7,5,12,0,7,10,7,5,7],"shift_direction":-1,"question_num":101,"has_decoy":false},{"rt":654.8999998569489,"stimulus":"[A] option 1, [L] option 2, [G] neither","key_press":76,"name":"choice","trial_type":"html-keyboard-response","trial_index":131,"time_elapsed":294800,"internal_node_id":"0.0-131.0","subject":"S1C1656","sona":"41661","block":2,"time":"2021-09-21T21:29:26.796Z","response":"2nd","certainty":"high","char":"L","transposition":2,"order":["swapped","shifted"],"probe_pitches":[5,0,2,5,7,9,5,9,0,7,0,2,0,5,12,7],"shifted_pitches":[5,0,2,5,7,9,5,9,1,7,0,2,0,5,12,7],"swapped_pitches":[5,0,2,5,7,9,5,0,9,7,0,2,0,5,12,7],"shift_direction":1,"question_num":111,"has_decoy":false},{"rt":650.7000000476837,"stimulus":"[A] option 1, [L] option 2, [G] neither","key_press":65,"name":"choice","trial_type":"html-keyboard-response","trial_index":142,"time_elapsed":317788,"internal_node_id":"0.0-142.0","subject":"S1C1656","sona":"41661","block":2,"time":"2021-09-21T21:29:26.796Z","response":"1st","certainty":"high","char":"A","transposition":-1,"order":["shifted","swapped"],"probe_pitches":[12,10,12,7,5,10,12,0,10,5,2,5,2,0,7,0],"shifted_pitches":[12,10,12,7,5,10,12,0,11,5,2,5,2,0,7,0],"swapped_pitches":[12,10,12,7,5,10,12,10,0,5,2,5,2,0,7,0],"shift_direction":1,"question_num":121,"has_decoy":false},{"rt":1278.7000000476837,"stimulus":"[A] option 1, [L] option 2, [G] neither","key_press":65,"name":"choice","trial_type":"html-keyboard-response","trial_index":153,"time_elapsed":341466,"internal_node_id":"0.0-153.0","subject":"S1C1656","sona":"41661","block":2,"time":"2021-09-21T21:29:26.796Z","response":"1st","certainty":"high","char":"A","transposition":2,"order":["swapped","shifted"],"probe_pitches":[6,10,9,10,7,6,2,-1,7,3,-1,10,3,6,3,10],"shifted_pitches":[6,10,9,10,7,6,2,0,7,3,-1,10,3,6,3,10],"swapped_pitches":[6,10,9,10,7,6,2,7,-1,3,-1,10,3,6,3,10],"shift_direction":1,"question_num":131,"has_decoy":false},{"rt":7291.399999856949,"stimulus":"[A] option 1, [L] option 2, [G] neither","key_press":76,"name":"choice","trial_type":"html-keyboard-response","trial_index":164,"time_elapsed":371233,"internal_node_id":"0.0-164.0","subject":"S1C1656","sona":"41661","block":2,"time":"2021-09-21T21:29:26.796Z","response":"2nd","certainty":"high","char":"L","transposition":3,"order":["shifted","swapped"],"probe_pitches":[5,8,5,10,5,0,5,10,0,8,12,5,0,10,5,3],"shifted_pitches":[5,8,5,10,5,0,5,10,-1,8,12,5,0,10,5,3],"swapped_pitches":[5,8,5,10,5,0,5,0,10,8,12,5,0,10,5,3],"shift_direction":-1,"question_num":141,"has_decoy":false},{"rt":870.5,"stimulus":"[A] option 1, [L] option 2, [G] neither","key_press":76,"name":"choice","trial_type":"html-keyboard-response","trial_index":175,"time_elapsed":394713,"internal_node_id":"0.0-175.0","subject":"S1C1656","sona":"41661","block":2,"time":"2021-09-21T21:29:26.796Z","response":"2nd","certainty":"high","char":"L","transposition":-1,"order":["shifted","swapped"],"probe_pitches":[0,5,8,9,8,10,5,6,2,7,-1,0,-1,4,0,7],"shifted_pitches":[0,5,8,9,8,10,5,6,1,7,-1,0,-1,4,0,7],"swapped_pitches":[0,5,8,9,8,10,5,2,6,7,-1,0,-1,4,0,7],"shift_direction":-1,"question_num":151,"has_decoy":false},{"rt":3050.5999999046326,"stimulus":"[A] option 1, [L] option 2, [G] neither","key_press":65,"name":"choice","trial_type":"html-keyboard-response","trial_index":186,"time_elapsed":420973,"internal_node_id":"0.0-186.0","subject":"S1C1656","sona":"41661","block":2,"time":"2021-09-21T21:29:26.796Z","response":"1st","certainty":"high","char":"A","transposition":-1,"order":["swapped","shifted"],"probe_pitches":[7,8,10,2,3,7,10,-2,0,10,-2,1,5,10,-1,3],"shifted_pitches":[7,8,10,2,3,7,10,-3,0,10,-2,1,5,10,-1,3],"swapped_pitches":[7,8,10,2,3,7,10,0,-2,10,-2,1,5,10,-1,3],"shift_direction":-1,"question_num":161,"has_decoy":false},{"rt":422.7000000476837,"stimulus":"[A] option 1, [L] option 2, [G] neither","key_press":76,"name":"choice","trial_type":"html-keyboard-response","trial_index":197,"time_elapsed":444565,"internal_node_id":"0.0-197.0","subject":"S1C1656","sona":"41661","block":2,"time":"2021-09-21T21:29:26.796Z","response":"2nd","certainty":"high","char":"L","transposition":1,"order":["swapped","shifted"],"probe_pitches":[12,7,2,9,7,2,7,2,0,9,7,12,2,4,9,12],"shifted_pitches":[12,7,2,9,7,2,7,2,-1,9,7,12,2,4,9,12],"swapped_pitches":[12,7,2,9,7,2,7,0,2,9,7,12,2,4,9,12],"shift_direction":-1,"question_num":171,"has_decoy":false},{"rt":3731.699999809265,"stimulus":"[A] option 1, [L] option 2, [G] neither","key_press":65,"name":"choice","trial_type":"html-keyboard-response","trial_index":208,"time_elapsed":470694,"internal_node_id":"0.0-208.0","subject":"S1C1656","sona":"41661","block":2,"time":"2021-09-21T21:29:26.796Z","response":"1st","certainty":"high","char":"A","transposition":-2,"order":["shifted","swapped"],"probe_pitches":[1,7,0,2,6,9,7,1,9,3,9,10,5,9,3,4],"shifted_pitches":[1,7,0,2,6,9,7,1,8,3,9,10,5,9,3,4],"swapped_pitches":[1,7,0,2,6,9,7,9,1,3,9,10,5,9,3,4],"shift_direction":-1,"question_num":181,"has_decoy":false},{"rt":1484.5999999046326,"stimulus":"[A] option 1, [L] option 2, [G] neither","key_press":65,"name":"choice","trial_type":"html-keyboard-response","trial_index":219,"time_elapsed":494817,"internal_node_id":"0.0-219.0","subject":"S1C1656","sona":"41661","block":2,"time":"2021-09-21T21:29:26.796Z","response":"1st","certainty":"high","char":"A","transposition":-2,"order":["shifted","swapped"],"probe_pitches":[8,5,3,8,12,8,10,3,0,5,8,10,0,10,0,5],"shifted_pitches":[8,5,3,8,12,8,10,2,0,5,8,10,0,10,0,5],"swapped_pitches":[8,5,3,8,12,8,10,0,3,5,8,10,0,10,0,5],"shift_direction":-1,"question_num":191,"has_decoy":false}]