[{"rt":5592.200000047684,"stimulus":"[A] option 1, [L] option 2, [G] neither","key_press":76,"name":"choice","trial_type":"html-keyboard-response","trial_index":10,"time_elapsed":29866,"internal_node_id":"0.0-10.0","subject":"S1C1656","sona":"41661","block":6,"time":"2021-09-21T22:05:49.333Z","response":"2nd","certainty":"high","char":"L","transposition":-2,"order":["shifted","swapped"],"probe_pitches":[2,6,3,2,6,13,9,3,8,1,11,1,3,9,2,1],"shifted_pitches":[2,6,3,2,6,13,9,3,7,1,11,1,3,9,2,1],"swapped_pitches":[2,6,3,2,6,13,9,8,3,1,11,1,3,9,2,1],"shift_direction":-1,"question_num":1,"has_decoy":false},{"rt":6723,"stimulus":"[A] option 1, [L] option 2, [G] neither","key_press":65,"name":"choice","trial_type":"html-keyboard-response","trial_index":21,"time_elapsed":62537,"internal_node_id":"0.0-21.0","subject":"S1C1656","sona":"41661","block":6,"time":"2021-09-21T22:05:49.333Z","response":"1st","certainty":"high","char":"A","transposition":0,"order":["swapped","shifted"],"probe_pitches":[10,7,4,6,10,4,11,7,1,4,11,4,11,8,5,13],"shifted_pitches":[10,7,4,6,10,4,11,7,0,4,11,4,11,8,5,13],"swapped_pitches":[10,7,4,6,10,4,11,1,7,4,11,4,11,8,5,13],"shift_direction":-1,"question_num":11,"has_decoy":false},{"rt":326.09999990463257,"stimulus":"[A] option 1, [L] option 2, [G] neither","key_press":65,"name":"choice","trial_type":"html-keyboard-response","trial_index":32,"time_elapsed":85500,"internal_node_id":"0.0-32.0","subject":"S1C1656","sona":"41661","block":6,"time":"2021-09-21T22:05:49.333Z","response":"1st","certainty":"high","char":"A","transposition":-3,"order":["swapped","shifted"],"probe_pitches":[13,7,6,7,5,2,13,4,7,13,5,1,6,12,5,1],"shifted_pitches":[13,7,6,7,5,2,13,4,8,13,5,1,6,12,5,1],"swapped_pitches":[13,7,6,7,5,2,13,7,4,13,5,1,6,12,5,1],"shift_direction":1,"question_num":21,"has_decoy":false},{"rt":1235.9000000953674,"stimulus":"[A] option 1, [L] option 2, [G] neither","key_press":76,"name":"choice","trial_type":"html-keyboard-response","trial_index":43,"time_elapsed":109910,"internal_node_id":"0.0-43.0","subject":"S1C1656","sona":"41661","block":6,"time":"2021-09-21T22:05:49.333Z","response":"2nd","certainty":"high","char":"L","transposition":-2,"order":["shifted","swapped"],"probe_pitches":[10,15,8,13,6,10,3,8,15,10,13,3,6,13,8,6],"shifted_pitches":[10,15,8,13,6,10,3,8,16,10,13,3,6,13,8,6],"swapped_pitches":[10,15,8,13,6,10,3,15,8,10,13,3,6,13,8,6],"shift_direction":1,"question_num":31,"has_decoy":false},{"rt":2077.5,"stimulus":"[A] option 1, [L] option 2, [G] neither","key_press":65,"name":"choice","trial_type":"html-keyboard-response","trial_index":54,"time_elapsed":135530,"internal_node_id":"0.0-54.0","subject":"S1C1656","sona":"41661","block":6,"time":"2021-09-21T22:05:49.333Z","response":"1st","certainty":"high","char":"A","transposition":-3,"order":["swapped","shifted"],"probe_pitches":[13,9,2,10,12,6,9,2,5,10,8,10,12,4,8,10],"shifted_pitches":[13,9,2,10,12,6,9,3,5,10,8,10,12,4,8,10],"swapped_pitches":[13,9,2,10,12,6,9,5,2,10,8,10,12,4,8,10],"shift_direction":1,"question_num":41,"has_decoy":false},{"rt":296.7999999523163,"stimulus":"[A] option 1, [L] option 2, [G] neither","key_press":76,"name":"choice","trial_type":"html-keyboard-response","trial_index":65,"time_elapsed":160251,"internal_node_id":"0.0-65.0","subject":"S1C1656","sona":"41661","block":6,"time":"2021-09-21T22:05:49.333Z","response":"2nd","certainty":"high","char":"L","transposition":-3,"order":["swapped","shifted"],"probe_pitches":[10,8,15,8,3,5,15,5,3,15,8,15,3,12,5,8],"shifted_pitches":[10,8,15,8,3,5,15,4,3,15,8,15,3,12,5,8],"swapped_pitches":[10,8,15,8,3,5,15,3,5,15,8,15,3,12,5,8],"shift_direction":-1,"question_num":51,"has_decoy":false},{"rt":958.2000000476837,"stimulus":"[A] option 1, [L] option 2, [G] neither","key_press":76,"name":"choice","trial_type":"html-keyboard-response","trial_index":76,"time_elapsed":183802,"internal_node_id":"0.0-76.0","subject":"S1C1656","sona":"41661","block":6,"time":"2021-09-21T22:05:49.333Z","response":"2nd","certainty":"high","char":"L","transposition":-2,"order":["swapped","shifted"],"probe_pitches":[11,15,13,15,6,3,8,11,3,13,11,8,11,8,11,15],"shifted_pitches":[11,15,13,15,6,3,8,11,4,13,11,8,11,8,11,15],"swapped_pitches":[11,15,13,15,6,3,8,3,11,13,11,8,11,8,11,15],"shift_direction":1,"question_num":61,"has_decoy":false},{"rt":4834.699999809265,"stimulus":"[A] option 1, [L] option 2, [G] neither","key_press":65,"name":"choice","trial_type":"html-keyboard-response","trial_index":87,"time_elapsed":211037,"internal_node_id":"0.0-87.0","subject":"S1C1656","sona":"41661","block":6,"time":"2021-09-21T22:05:49.333Z","response":"1st","certainty":"high","char":"A","transposition":-1,"order":["swapped","shifted"],"probe_pitches":[13,7,13,6,2,3,9,3,13,10,3,11,5,11,7,9],"shifted_pitches":[13,7,13,6,2,3,9,4,13,10,3,11,5,11,7,9],"swapped_pitches":[13,7,13,6,2,3,9,13,3,10,3,11,5,11,7,9],"shift_direction":1,"question_num":71,"has_decoy":false},{"rt":2306,"stimulus":"[A] option 1, [L] option 2, [G] neither","key_press":65,"name":"choice","trial_type":"html-keyboard-response","trial_index":98,"time_elapsed":235980,"internal_node_id":"0.0-98.0","subject":"S1C1656","sona":"41661","block":6,"time":"2021-09-21T22:05:49.333Z","response":"1st","certainty":"high","char":"A","transposition":-3,"order":["shifted","swapped"],"probe_pitches":[15,13,10,13,10,13,15,8,3,15,10,13,6,8,15,10],"shifted_pitches":[15,13,10,13,10,13,15,9,3,15,10,13,6,8,15,10],"swapped_pitches":[15,13,10,13,10,13,15,3,8,15,10,13,6,8,15,10],"shift_direction":1,"question_num":81,"has_decoy":false},{"rt":3691.4000000953674,"stimulus":"[A] option 1, [L] option 2, [G] neither","key_press":65,"name":"choice","trial_type":"html-keyboard-response","trial_index":109,"time_elapsed":261894,"internal_node_id":"0.0-109.0","subject":"S1C1656","sona":"41661","block":6,"time":"2021-09-21T22:05:49.333Z","response":"1st","certainty":"high","char":"A","transposition":-1,"order":["shifted","swapped"],"probe_pitches":[11,8,13,8,6,8,13,8,15,6,11,15,13,11,6,11],"shifted_pitches":[11,8,13,8,6,8,13,8,14,6,11,15,13,11,6,11],"swapped_pitches":[11,8,13,8,6,8,13,15,8,6,11,15,13,11,6,11],"shift_direction":-1,"question_num":91,"has_decoy":false},{"rt":1658.2000000476837,"stimulus":"[A] option 1, [L] option 2, [G] neither","key_press":65,"name":"choice","trial_type":"html-keyboard-response","trial_index":120,"time_elapsed":287351,"internal_node_id":"0.0-120.0","subject":"S1C1656","sona":"41661","block":6,"time":"2021-09-21T22:05:49.333Z","response":"1st","certainty":"high","char":"A","transposition":-2,"order":["swapped","shifted"],"probe_pitches":[10,8,5,3,8,4,2,5,1,4,7,11,4,1,4,13],"shifted_pitches":[10,8,5,3,8,4,2,6,1,4,7,11,4,1,4,13],"swapped_pitches":[10,8,5,3,8,4,2,1,5,4,7,11,4,1,4,13],"shift_direction":1,"question_num":101,"has_decoy":false},{"rt":2191,"stimulus":"[A] option 1, [L] option 2, [G] neither","key_press":76,"name":"choice","trial_type":"html-keyboard-response","trial_index":131,"time_elapsed":312255,"internal_node_id":"0.0-131.0","subject":"S1C1656","sona":"41661","block":6,"time":"2021-09-21T22:05:49.333Z","response":"2nd","certainty":"high","char":"L","transposition":1,"order":["shifted","swapped"],"probe_pitches":[10,5,10,12,10,15,7,10,15,5,3,15,12,5,15,5],"shifted_pitches":[10,5,10,12,10,15,7,10,16,5,3,15,12,5,15,5],"swapped_pitches":[10,5,10,12,10,15,7,15,10,5,3,15,12,5,15,5],"shift_direction":1,"question_num":111,"has_decoy":false},{"rt":673.2000000476837,"stimulus":"[A] option 1, [L] option 2, [G] neither","key_press":65,"name":"choice","trial_type":"html-keyboard-response","trial_index":142,"time_elapsed":335147,"internal_node_id":"0.0-142.0","subject":"S1C1656","sona":"41661","block":6,"time":"2021-09-21T22:05:49.333Z","response":"1st","certainty":"high","char":"A","transposition":1,"order":["shifted","swapped"],"probe_pitches":[3,8,13,10,12,4,10,6,2,8,2,11,1,11,7,4],"shifted_pitches":[3,8,13,10,12,4,10,5,2,8,2,11,1,11,7,4],"swapped_pitches":[3,8,13,10,12,4,10,2,6,8,2,11,1,11,7,4],"shift_direction":-1,"question_num":121,"has_decoy":false},{"rt":597.2999999523163,"stimulus":"[A] option 1, [L] option 2, [G] neither","key_press":76,"name":"choice","trial_type":"html-keyboard-response","trial_index":153,"time_elapsed":358172,"internal_node_id":"0.0-153.0","subject":"S1C1656","sona":"41661","block":6,"time":"2021-09-21T22:05:49.333Z","response":"2nd","certainty":"high","char":"L","transposition":3,"order":["shifted","swapped"],"probe_pitches":[1,3,2,1,10,9,8,2,12,7,10,7,4,7,3,9],"shifted_pitches":[1,3,2,1,10,9,8,2,11,7,10,7,4,7,3,9],"swapped_pitches":[1,3,2,1,10,9,8,12,2,7,10,7,4,7,3,9],"shift_direction":-1,"question_num":131,"has_decoy":false},{"rt":775.9000000953674,"stimulus":"[A] option 1, [L] option 2, [G] neither","key_press":65,"name":"choice","trial_type":"html-keyboard-response","trial_index":164,"time_elapsed":382028,"internal_node_id":"0.0-164.0","subject":"S1C1656","sona":"41661","block":6,"time":"2021-09-21T22:05:49.333Z","response":"1st","certainty":"high","char":"A","transposition":-1,"order":["shifted","swapped"],"probe_pitches":[6,10,13,7,1,8,5,8,10,7,11,7,4,6,12,5],"shifted_pitches":[6,10,13,7,1,8,5,8,9,7,11,7,4,6,12,5],"swapped_pitches":[6,10,13,7,1,8,5,10,8,7,11,7,4,6,12,5],"shift_direction":-1,"question_num":141,"has_decoy":false},{"rt":369.7000000476837,"stimulus":"[A] option 1, [L] option 2, [G] neither","key_press":65,"name":"choice","trial_type":"html-keyboard-response","trial_index":175,"time_elapsed":404802,"internal_node_id":"0.0-175.0","subject":"S1C1656","sona":"41661","block":6,"time":"2021-09-21T22:05:49.333Z","response":"1st","certainty":"high","char":"A","transposition":2,"order":["shifted","swapped"],"probe_pitches":[3,5,10,7,10,3,12,5,10,12,7,10,5,12,15,12],"shifted_pitches":[3,5,10,7,10,3,12,5,11,12,7,10,5,12,15,12],"swapped_pitches":[3,5,10,7,10,3,12,10,5,12,7,10,5,12,15,12],"shift_direction":1,"question_num":151,"has_decoy":false},{"rt":414.09999990463257,"stimulus":"[A] option 1, [L] option 2, [G] neither","key_press":76,"name":"choice","trial_type":"html-keyboard-response","trial_index":186,"time_elapsed":428006,"internal_node_id":"0.0-186.0","subject":"S1C1656","sona":"41661","block":6,"time":"2021-09-21T22:05:49.333Z","response":"2nd","certainty":"high","char":"L","transposition":0,"order":["swapped","shifted"],"probe_pitches":[13,8,15,13,10,8,13,10,5,8,13,5,13,5,10,3],"shifted_pitches":[13,8,15,13,10,8,13,9,5,8,13,5,13,5,10,3],"swapped_pitches":[13,8,15,13,10,8,13,5,10,8,13,5,13,5,10,3],"shift_direction":-1,"question_num":161,"has_decoy":false},{"rt":1991,"stimulus":"[A] option 1, [L] option 2, [G] neither","key_press":76,"name":"choice","trial_type":"html-keyboard-response","trial_index":197,"time_elapsed":452395,"internal_node_id":"0.0-197.0","subject":"S1C1656","sona":"41661","block":6,"time":"2021-09-21T22:05:49.333Z","response":"2nd","certainty":"high","char":"L","transposition":2,"order":["shifted","swapped"],"probe_pitches":[2,4,2,1,5,1,4,9,1,2,8,5,3,6,8,3],"shifted_pitches":[2,4,2,1,5,1,4,10,1,2,8,5,3,6,8,3],"swapped_pitches":[2,4,2,1,5,1,4,1,9,2,8,5,3,6,8,3],"shift_direction":1,"question_num":171,"has_decoy":false},{"rt":319.7000000476837,"stimulus":"[A] option 1, [L] option 2, [G] neither","key_press":76,"name":"choice","trial_type":"html-keyboard-response","trial_index":208,"time_elapsed":475214,"internal_node_id":"0.0-208.0","subject":"S1C1656","sona":"41661","block":6,"time":"2021-09-21T22:05:49.333Z","response":"2nd","certainty":"high","char":"L","transposition":3,"order":["swapped","shifted"],"probe_pitches":[15,12,8,5,12,5,10,3,8,15,5,10,3,8,5,8],"shifted_pitches":[15,12,8,5,12,5,10,2,8,15,5,10,3,8,5,8],"swapped_pitches":[15,12,8,5,12,5,10,8,3,15,5,10,3,8,5,8],"shift_direction":-1,"question_num":181,"has_decoy":false},{"rt":701.8000001907349,"stimulus":"[A] option 1, [L] option 2, [G] neither","key_press":76,"name":"choice","trial_type":"html-keyboard-response","trial_index":219,"time_elapsed":498361,"internal_node_id":"0.0-219.0","subject":"S1C1656","sona":"41661","block":6,"time":"2021-09-21T22:05:49.333Z","response":"2nd","certainty":"high","char":"L","transposition":-1,"order":["swapped","shifted"],"probe_pitches":[15,13,15,8,15,13,15,10,13,3,5,3,8,10,13,15],"shifted_pitches":[15,13,15,8,15,13,15,9,13,3,5,3,8,10,13,15],"swapped_pitches":[15,13,15,8,15,13,15,13,10,3,5,3,8,10,13,15],"shift_direction":-1,"question_num":191,"has_decoy":false}]