[{"rt":2898.100000143051,"stimulus":"[A] option 1, [L] option 2, [G] neither","key_press":65,"name":"choice","trial_type":"html-keyboard-response","trial_index":10,"time_elapsed":34547,"internal_node_id":"0.0-10.0","subject":"S1C1656","sona":"41661","block":3,"time":"2021-09-21T21:38:52.665Z","response":"1st","certainty":"high","char":"A","transposition":-2,"order":["shifted","swapped"],"probe_pitches":[11,15,13,15,8,13,11,15,13,6,8,3,6,15,6,8],"shifted_pitches":[11,15,13,15,8,13,11,15,14,6,8,3,6,15,6,8],"swapped_pitches":[11,15,13,15,8,13,11,13,15,6,8,3,6,15,6,8],"shift_direction":1,"question_num":1,"has_decoy":false},{"rt":2240.0999999046326,"stimulus":"[A] option 1, [L] option 2, [G] neither","key_press":76,"name":"choice","trial_type":"html-keyboard-response","trial_index":21,"time_elapsed":59199,"internal_node_id":"0.0-21.0","subject":"S1C1656","sona":"41661","block":3,"time":"2021-09-21T21:38:52.665Z","response":"2nd","certainty":"high","char":"L","transposition":-3,"order":["swapped","shifted"],"probe_pitches":[12,15,10,5,10,3,8,3,15,5,3,10,5,3,10,5],"shifted_pitches":[12,15,10,5,10,3,8,2,15,5,3,10,5,3,10,5],"swapped_pitches":[12,15,10,5,10,3,8,15,3,5,3,10,5,3,10,5],"shift_direction":-1,"question_num":11,"has_decoy":false},{"rt":3265.5,"stimulus":"[A] option 1, [L] option 2, [G] neither","key_press":65,"name":"choice","trial_type":"html-keyboard-response","trial_index":32,"time_elapsed":84814,"internal_node_id":"0.0-32.0","subject":"S1C1656","sona":"41661","block":3,"time":"2021-09-21T21:38:52.665Z","response":"1st","certainty":"high","char":"A","transposition":3,"order":["shifted","swapped"],"probe_pitches":[5,7,3,10,12,5,15,3,5,10,3,15,12,15,5,3],"shifted_pitches":[5,7,3,10,12,5,15,3,6,10,3,15,12,15,5,3],"swapped_pitches":[5,7,3,10,12,5,15,5,3,10,3,15,12,15,5,3],"shift_direction":1,"question_num":21,"has_decoy":false},{"rt":1168.1000001430511,"stimulus":"[A] option 1, [L] option 2, [G] neither","key_press":76,"name":"choice","trial_type":"html-keyboard-response","trial_index":43,"time_elapsed":108429,"internal_node_id":"0.0-43.0","subject":"S1C1656","sona":"41661","block":3,"time":"2021-09-21T21:38:52.665Z","response":"2nd","certainty":"high","char":"L","transposition":-3,"order":["swapped","shifted"],"probe_pitches":[6,10,8,1,7,10,11,10,6,11,12,2,9,1,12,1],"shifted_pitches":[6,10,8,1,7,10,11,10,5,11,12,2,9,1,12,1],"swapped_pitches":[6,10,8,1,7,10,11,6,10,11,12,2,9,1,12,1],"shift_direction":-1,"question_num":31,"has_decoy":false},{"rt":2078.600000143051,"stimulus":"[A] option 1, [L] option 2, [G] neither","key_press":65,"name":"choice","trial_type":"html-keyboard-response","trial_index":54,"time_elapsed":133279,"internal_node_id":"0.0-54.0","subject":"S1C1656","sona":"41661","block":3,"time":"2021-09-21T21:38:52.665Z","response":"1st","certainty":"high","char":"A","transposition":0,"order":["swapped","shifted"],"probe_pitches":[8,6,8,3,8,6,8,10,6,3,10,6,3,10,6,13],"shifted_pitches":[8,6,8,3,8,6,8,10,5,3,10,6,3,10,6,13],"swapped_pitches":[8,6,8,3,8,6,8,6,10,3,10,6,3,10,6,13],"shift_direction":-1,"question_num":41,"has_decoy":false},{"rt":1487.3999998569489,"stimulus":"[A] option 1, [L] option 2, [G] neither","key_press":76,"name":"choice","trial_type":"html-keyboard-response","trial_index":65,"time_elapsed":157238,"internal_node_id":"0.0-65.0","subject":"S1C1656","sona":"41661","block":3,"time":"2021-09-21T21:38:52.665Z","response":"2nd","certainty":"high","char":"L","transposition":-3,"order":["swapped","shifted"],"probe_pitches":[3,5,7,5,3,5,7,5,10,12,7,15,10,12,5,15],"shifted_pitches":[3,5,7,5,3,5,7,5,11,12,7,15,10,12,5,15],"swapped_pitches":[3,5,7,5,3,5,7,10,5,12,7,15,10,12,5,15],"shift_direction":1,"question_num":51,"has_decoy":false},{"rt":4466.5,"stimulus":"[A] option 1, [L] option 2, [G] neither","key_press":76,"name":"choice","trial_type":"html-keyboard-response","trial_index":76,"time_elapsed":184287,"internal_node_id":"0.0-76.0","subject":"S1C1656","sona":"41661","block":3,"time":"2021-09-21T21:38:52.665Z","response":"2nd","certainty":"high","char":"L","transposition":2,"order":["shifted","swapped"],"probe_pitches":[5,6,5,11,13,7,4,7,10,5,4,3,12,10,4,5],"shifted_pitches":[5,6,5,11,13,7,4,8,10,5,4,3,12,10,4,5],"swapped_pitches":[5,6,5,11,13,7,4,10,7,5,4,3,12,10,4,5],"shift_direction":1,"question_num":61,"has_decoy":false},{"rt":2290.5999999046326,"stimulus":"[A] option 1, [L] option 2, [G] neither","key_press":65,"name":"choice","trial_type":"html-keyboard-response","trial_index":87,"time_elapsed":210171,"internal_node_id":"0.0-87.0","subject":"S1C1656","sona":"41661","block":3,"time":"2021-09-21T21:38:52.665Z","response":"1st","certainty":"high","char":"A","transposition":-1,"order":["swapped","shifted"],"probe_pitches":[11,8,6,2,7,1,9,7,4,13,9,11,13,11,7,11],"shifted_pitches":[11,8,6,2,7,1,9,7,3,13,9,11,13,11,7,11],"swapped_pitches":[11,8,6,2,7,1,9,4,7,13,9,11,13,11,7,11],"shift_direction":-1,"question_num":71,"has_decoy":false},{"rt":4464,"stimulus":"[A] option 1, [L] option 2, [G] neither","key_press":76,"name":"choice","trial_type":"html-keyboard-response","trial_index":98,"time_elapsed":237145,"internal_node_id":"0.0-98.0","subject":"S1C1656","sona":"41661","block":3,"time":"2021-09-21T21:38:52.665Z","response":"2nd","certainty":"high","char":"L","transposition":-2,"order":["swapped","shifted"],"probe_pitches":[6,8,10,15,13,3,13,3,8,10,15,10,15,6,13,3],"shifted_pitches":[6,8,10,15,13,3,13,2,8,10,15,10,15,6,13,3],"swapped_pitches":[6,8,10,15,13,3,13,8,3,10,15,10,15,6,13,3],"shift_direction":-1,"question_num":81,"has_decoy":false},{"rt":1282.5,"stimulus":"[A] option 1, [L] option 2, [G] neither","key_press":65,"name":"choice","trial_type":"html-keyboard-response","trial_index":109,"time_elapsed":261051,"internal_node_id":"0.0-109.0","subject":"S1C1656","sona":"41661","block":3,"time":"2021-09-21T21:38:52.665Z","response":"1st","certainty":"high","char":"A","transposition":-1,"order":["shifted","swapped"],"probe_pitches":[5,8,5,12,3,5,10,3,15,8,3,8,15,10,5,15],"shifted_pitches":[5,8,5,12,3,5,10,4,15,8,3,8,15,10,5,15],"swapped_pitches":[5,8,5,12,3,5,10,15,3,8,3,8,15,10,5,15],"shift_direction":1,"question_num":91,"has_decoy":false},{"rt":4681.699999809265,"stimulus":"[A] option 1, [L] option 2, [G] neither","key_press":65,"name":"choice","trial_type":"html-keyboard-response","trial_index":120,"time_elapsed":288922,"internal_node_id":"0.0-120.0","subject":"S1C1656","sona":"41661","block":3,"time":"2021-09-21T21:38:52.665Z","response":"1st","certainty":"high","char":"A","transposition":-3,"order":["swapped","shifted"],"probe_pitches":[9,7,11,6,10,8,3,9,5,8,6,1,6,10,5,11],"shifted_pitches":[9,7,11,6,10,8,3,9,4,8,6,1,6,10,5,11],"swapped_pitches":[9,7,11,6,10,8,3,5,9,8,6,1,6,10,5,11],"shift_direction":-1,"question_num":101,"has_decoy":false},{"rt":1543.9000000953674,"stimulus":"[A] option 1, [L] option 2, [G] neither","key_press":76,"name":"choice","trial_type":"html-keyboard-response","trial_index":131,"time_elapsed":313634,"internal_node_id":"0.0-131.0","subject":"S1C1656","sona":"41661","block":3,"time":"2021-09-21T21:38:52.665Z","response":"2nd","certainty":"high","char":"L","transposition":-1,"order":["shifted","swapped"],"probe_pitches":[10,13,10,8,5,10,5,15,3,13,15,5,8,5,15,10],"shifted_pitches":[10,13,10,8,5,10,5,15,2,13,15,5,8,5,15,10],"swapped_pitches":[10,13,10,8,5,10,5,3,15,13,15,5,8,5,15,10],"shift_direction":-1,"question_num":111,"has_decoy":false},{"rt":3470.0999999046326,"stimulus":"[A] option 1, [L] option 2, [G] neither","key_press":65,"name":"choice","trial_type":"html-keyboard-response","trial_index":142,"time_elapsed":340220,"internal_node_id":"0.0-142.0","subject":"S1C1656","sona":"41661","block":3,"time":"2021-09-21T21:38:52.665Z","response":"1st","certainty":"high","char":"A","transposition":3,"order":["shifted","swapped"],"probe_pitches":[8,2,8,10,12,13,11,5,12,11,3,12,5,13,8,3],"shifted_pitches":[8,2,8,10,12,13,11,6,12,11,3,12,5,13,8,3],"swapped_pitches":[8,2,8,10,12,13,11,12,5,11,3,12,5,13,8,3],"shift_direction":1,"question_num":121,"has_decoy":false},{"rt":1219.7999999523163,"stimulus":"[A] option 1, [L] option 2, [G] neither","key_press":76,"name":"choice","trial_type":"html-keyboard-response","trial_index":153,"time_elapsed":371920,"internal_node_id":"0.0-153.0","subject":"S1C1656","sona":"41661","block":3,"time":"2021-09-21T21:38:52.665Z","response":"2nd","certainty":"high","char":"L","transposition":2,"order":["swapped","shifted"],"probe_pitches":[11,15,8,15,8,13,11,8,6,15,8,6,13,3,6,13],"shifted_pitches":[11,15,8,15,8,13,11,7,6,15,8,6,13,3,6,13],"swapped_pitches":[11,15,8,15,8,13,11,6,8,15,8,6,13,3,6,13],"shift_direction":-1,"question_num":131,"has_decoy":false},{"rt":4003,"stimulus":"[A] option 1, [L] option 2, [G] neither","key_press":76,"name":"choice","trial_type":"html-keyboard-response","trial_index":164,"time_elapsed":399724,"internal_node_id":"0.0-164.0","subject":"S1C1656","sona":"41661","block":3,"time":"2021-09-21T21:38:52.665Z","response":"2nd","certainty":"high","char":"L","transposition":-2,"order":["swapped","shifted"],"probe_pitches":[5,4,8,11,13,12,5,11,8,9,4,6,11,13,3,6],"shifted_pitches":[5,4,8,11,13,12,5,10,8,9,4,6,11,13,3,6],"swapped_pitches":[5,4,8,11,13,12,5,8,11,9,4,6,11,13,3,6],"shift_direction":-1,"question_num":141,"has_decoy":false},{"rt":5857.299999952316,"stimulus":"[A] option 1, [L] option 2, [G] neither","key_press":76,"name":"choice","trial_type":"html-keyboard-response","trial_index":175,"time_elapsed":428617,"internal_node_id":"0.0-175.0","subject":"S1C1656","sona":"41661","block":3,"time":"2021-09-21T21:38:52.665Z","response":"2nd","certainty":"high","char":"L","transposition":1,"order":["swapped","shifted"],"probe_pitches":[7,10,12,5,3,8,3,5,10,4,5,10,13,3,8,10],"shifted_pitches":[7,10,12,5,3,8,3,5,11,4,5,10,13,3,8,10],"swapped_pitches":[7,10,12,5,3,8,3,10,5,4,5,10,13,3,8,10],"shift_direction":1,"question_num":151,"has_decoy":false},{"rt":3794.0999999046326,"stimulus":"[A] option 1, [L] option 2, [G] neither","key_press":76,"name":"choice","trial_type":"html-keyboard-response","trial_index":186,"time_elapsed":454494,"internal_node_id":"0.0-186.0","subject":"S1C1656","sona":"41661","block":3,"time":"2021-09-21T21:38:52.665Z","response":"2nd","certainty":"high","char":"L","transposition":0,"order":["shifted","swapped"],"probe_pitches":[1,6,3,2,1,9,11,13,6,8,4,3,9,1,9,7],"shifted_pitches":[1,6,3,2,1,9,11,12,6,8,4,3,9,1,9,7],"swapped_pitches":[1,6,3,2,1,9,11,6,13,8,4,3,9,1,9,7],"shift_direction":-1,"question_num":161,"has_decoy":false},{"rt":626.7000000476837,"stimulus":"[A] option 1, [L] option 2, [G] neither","key_press":76,"name":"choice","trial_type":"html-keyboard-response","trial_index":197,"time_elapsed":477576,"internal_node_id":"0.0-197.0","subject":"S1C1656","sona":"41661","block":3,"time":"2021-09-21T21:38:52.665Z","response":"2nd","certainty":"high","char":"L","transposition":-2,"order":["shifted","swapped"],"probe_pitches":[13,10,7,5,1,6,2,13,8,1,7,10,8,3,1,10],"shifted_pitches":[13,10,7,5,1,6,2,13,9,1,7,10,8,3,1,10],"swapped_pitches":[13,10,7,5,1,6,2,8,13,1,7,10,8,3,1,10],"shift_direction":1,"question_num":171,"has_decoy":false},{"rt":4782.5,"stimulus":"[A] option 1, [L] option 2, [G] neither","key_press":76,"name":"choice","trial_type":"html-keyboard-response","trial_index":208,"time_elapsed":510480,"internal_node_id":"0.0-208.0","subject":"S1C1656","sona":"41661","block":3,"time":"2021-09-21T21:38:52.665Z","response":"2nd","certainty":"high","char":"L","transposition":-1,"order":["shifted","swapped"],"probe_pitches":[3,9,10,13,6,1,8,6,13,10,13,3,1,5,1,9],"shifted_pitches":[3,9,10,13,6,1,8,7,13,10,13,3,1,5,1,9],"swapped_pitches":[3,9,10,13,6,1,8,13,6,10,13,3,1,5,1,9],"shift_direction":1,"question_num":181,"has_decoy":false},{"rt":1947.5,"stimulus":"[A] option 1, [L] option 2, [G] neither","key_press":65,"name":"choice","trial_type":"html-keyboard-response","trial_index":219,"time_elapsed":539677,"internal_node_id":"0.0-219.0","subject":"S1C1656","sona":"41661","block":3,"time":"2021-09-21T21:38:52.665Z","response":"1st","certainty":"high","char":"A","transposition":1,"order":["shifted","swapped"],"probe_pitches":[10,13,10,3,8,3,5,3,15,10,5,3,13,10,13,5],"shifted_pitches":[10,13,10,3,8,3,5,4,15,10,5,3,13,10,13,5],"swapped_pitches":[10,13,10,3,8,3,5,15,3,10,5,3,13,10,13,5],"shift_direction":1,"question_num":191,"has_decoy":false}]