[{"rt":761.7999999523163,"stimulus":"[A] option 1, [L] option 2, [G] neither","key_press":65,"name":"choice","trial_type":"html-keyboard-response","trial_index":10,"time_elapsed":31337,"internal_node_id":"0.0-10.0","subject":"S1C1656","sona":"41661","block":4,"time":"2021-09-21T21:48:16.687Z","response":"1st","certainty":"high","char":"A","transposition":3,"order":["shifted","swapped"],"probe_pitches":[11,13,6,9,4,9,6,9,4,6,1,9,13,4,9,11],"shifted_pitches":[11,13,6,9,4,9,6,8,4,6,1,9,13,4,9,11],"swapped_pitches":[11,13,6,9,4,9,6,4,9,6,1,9,13,4,9,11],"shift_direction":-1,"question_num":1,"has_decoy":false},{"rt":7769.099999904633,"stimulus":"[A] option 1, [L] option 2, [G] neither","key_press":76,"name":"choice","trial_type":"html-keyboard-response","trial_index":21,"time_elapsed":61536,"internal_node_id":"0.0-21.0","subject":"S1C1656","sona":"41661","block":4,"time":"2021-09-21T21:48:16.687Z","response":"2nd","certainty":"high","char":"L","transposition":-3,"order":["shifted","swapped"],"probe_pitches":[4,6,0,4,8,4,8,2,5,0,9,7,1,6,7,8],"shifted_pitches":[4,6,0,4,8,4,8,3,5,0,9,7,1,6,7,8],"swapped_pitches":[4,6,0,4,8,4,8,5,2,0,9,7,1,6,7,8],"shift_direction":1,"question_num":11,"has_decoy":false},{"rt":1825.7999999523163,"stimulus":"[A] option 1, [L] option 2, [G] neither","key_press":76,"name":"choice","trial_type":"html-keyboard-response","trial_index":32,"time_elapsed":102752,"internal_node_id":"0.0-32.0","subject":"S1C1656","sona":"41661","block":4,"time":"2021-09-21T21:48:16.687Z","response":"2nd","certainty":"high","char":"L","transposition":-2,"order":["shifted","swapped"],"probe_pitches":[8,10,6,1,8,6,8,1,3,8,10,6,1,6,3,10],"shifted_pitches":[8,10,6,1,8,6,8,1,4,8,10,6,1,6,3,10],"swapped_pitches":[8,10,6,1,8,6,8,3,1,8,10,6,1,6,3,10],"shift_direction":1,"question_num":21,"has_decoy":false},{"rt":1854.2999999523163,"stimulus":"[A] option 1, [L] option 2, [G] neither","key_press":65,"name":"choice","trial_type":"html-keyboard-response","trial_index":43,"time_elapsed":128481,"internal_node_id":"0.0-43.0","subject":"S1C1656","sona":"41661","block":4,"time":"2021-09-21T21:48:16.687Z","response":"1st","certainty":"high","char":"A","transposition":-1,"order":["shifted","swapped"],"probe_pitches":[11,13,6,8,1,8,3,1,8,13,6,11,13,3,13,3],"shifted_pitches":[11,13,6,8,1,8,3,1,9,13,6,11,13,3,13,3],"swapped_pitches":[11,13,6,8,1,8,3,8,1,13,6,11,13,3,13,3],"shift_direction":1,"question_num":31,"has_decoy":false},{"rt":503.40000009536743,"stimulus":"[A] option 1, [L] option 2, [G] neither","key_press":76,"name":"choice","trial_type":"html-keyboard-response","trial_index":54,"time_elapsed":152538,"internal_node_id":"0.0-54.0","subject":"S1C1656","sona":"41661","block":4,"time":"2021-09-21T21:48:16.687Z","response":"2nd","certainty":"high","char":"L","transposition":-3,"order":["swapped","shifted"],"probe_pitches":[6,1,8,3,10,3,6,3,13,1,8,6,8,13,8,13],"shifted_pitches":[6,1,8,3,10,3,6,3,12,1,8,6,8,13,8,13],"swapped_pitches":[6,1,8,3,10,3,6,13,3,1,8,6,8,13,8,13],"shift_direction":-1,"question_num":41,"has_decoy":false},{"rt":470.59999990463257,"stimulus":"[A] option 1, [L] option 2, [G] neither","key_press":65,"name":"choice","trial_type":"html-keyboard-response","trial_index":65,"time_elapsed":175387,"internal_node_id":"0.0-65.0","subject":"S1C1656","sona":"41661","block":4,"time":"2021-09-21T21:48:16.687Z","response":"1st","certainty":"high","char":"A","transposition":-2,"order":["shifted","swapped"],"probe_pitches":[8,9,3,10,2,10,7,-1,3,1,9,5,10,8,3,-2],"shifted_pitches":[8,9,3,10,2,10,7,-1,4,1,9,5,10,8,3,-2],"swapped_pitches":[8,9,3,10,2,10,7,3,-1,1,9,5,10,8,3,-2],"shift_direction":1,"question_num":51,"has_decoy":false},{"rt":270.39999985694885,"stimulus":"[A] option 1, [L] option 2, [G] neither","key_press":76,"name":"choice","trial_type":"html-keyboard-response","trial_index":76,"time_elapsed":199306,"internal_node_id":"0.0-76.0","subject":"S1C1656","sona":"41661","block":4,"time":"2021-09-21T21:48:16.687Z","response":"2nd","certainty":"high","char":"L","transposition":1,"order":["swapped","shifted"],"probe_pitches":[11,8,6,4,11,6,4,6,8,1,13,11,8,11,1,6],"shifted_pitches":[11,8,6,4,11,6,4,5,8,1,13,11,8,11,1,6],"swapped_pitches":[11,8,6,4,11,6,4,8,6,1,13,11,8,11,1,6],"shift_direction":-1,"question_num":61,"has_decoy":false},{"rt":2769.0999999046326,"stimulus":"[A] option 1, [L] option 2, [G] neither","key_press":76,"name":"choice","trial_type":"html-keyboard-response","trial_index":87,"time_elapsed":224435,"internal_node_id":"0.0-87.0","subject":"S1C1656","sona":"41661","block":4,"time":"2021-09-21T21:48:16.687Z","response":"2nd","certainty":"high","char":"L","transposition":0,"order":["swapped","shifted"],"probe_pitches":[1,3,8,5,10,1,10,1,8,10,8,1,8,1,10,3],"shifted_pitches":[1,3,8,5,10,1,10,2,8,10,8,1,8,1,10,3],"swapped_pitches":[1,3,8,5,10,1,10,8,1,10,8,1,8,1,10,3],"shift_direction":1,"question_num":71,"has_decoy":false},{"rt":2646.699999809265,"stimulus":"[A] option 1, [L] option 2, [G] neither","key_press":76,"name":"choice","trial_type":"html-keyboard-response","trial_index":98,"time_elapsed":249852,"internal_node_id":"0.0-98.0","subject":"S1C1656","sona":"41661","block":4,"time":"2021-09-21T21:48:16.687Z","response":"2nd","certainty":"high","char":"L","transposition":-1,"order":["swapped","shifted"],"probe_pitches":[6,8,3,8,13,3,13,11,1,3,8,1,13,8,11,1],"shifted_pitches":[6,8,3,8,13,3,13,11,0,3,8,1,13,8,11,1],"swapped_pitches":[6,8,3,8,13,3,13,1,11,3,8,1,13,8,11,1],"shift_direction":-1,"question_num":81,"has_decoy":false},{"rt":1270.7000000476837,"stimulus":"[A] option 1, [L] option 2, [G] neither","key_press":65,"name":"choice","trial_type":"html-keyboard-response","trial_index":109,"time_elapsed":273626,"internal_node_id":"0.0-109.0","subject":"S1C1656","sona":"41661","block":4,"time":"2021-09-21T21:48:16.687Z","response":"1st","certainty":"high","char":"A","transposition":1,"order":["shifted","swapped"],"probe_pitches":[9,5,2,-2,7,-2,2,-2,1,8,3,5,9,-1,6,4],"shifted_pitches":[9,5,2,-2,7,-2,2,-2,0,8,3,5,9,-1,6,4],"swapped_pitches":[9,5,2,-2,7,-2,2,1,-2,8,3,5,9,-1,6,4],"shift_direction":-1,"question_num":91,"has_decoy":false},{"rt":3003,"stimulus":"[A] option 1, [L] option 2, [G] neither","key_press":76,"name":"choice","trial_type":"html-keyboard-response","trial_index":120,"time_elapsed":299798,"internal_node_id":"0.0-120.0","subject":"S1C1656","sona":"41661","block":4,"time":"2021-09-21T21:48:16.687Z","response":"2nd","certainty":"high","char":"L","transposition":3,"order":["swapped","shifted"],"probe_pitches":[9,7,2,-2,3,10,7,4,9,2,1,-1,-2,7,10,-2],"shifted_pitches":[9,7,2,-2,3,10,7,5,9,2,1,-1,-2,7,10,-2],"swapped_pitches":[9,7,2,-2,3,10,7,9,4,2,1,-1,-2,7,10,-2],"shift_direction":1,"question_num":101,"has_decoy":false},{"rt":1023.8999998569489,"stimulus":"[A] option 1, [L] option 2, [G] neither","key_press":76,"name":"choice","trial_type":"html-keyboard-response","trial_index":131,"time_elapsed":332694,"internal_node_id":"0.0-131.0","subject":"S1C1656","sona":"41661","block":4,"time":"2021-09-21T21:48:16.687Z","response":"2nd","certainty":"high","char":"L","transposition":2,"order":["swapped","shifted"],"probe_pitches":[3,4,9,3,4,6,9,6,3,10,7,9,6,0,9,3],"shifted_pitches":[3,4,9,3,4,6,9,6,2,10,7,9,6,0,9,3],"swapped_pitches":[3,4,9,3,4,6,9,3,6,10,7,9,6,0,9,3],"shift_direction":-1,"question_num":111,"has_decoy":false},{"rt":2134.899999856949,"stimulus":"[A] option 1, [L] option 2, [G] neither","key_press":76,"name":"choice","trial_type":"html-keyboard-response","trial_index":142,"time_elapsed":357526,"internal_node_id":"0.0-142.0","subject":"S1C1656","sona":"41661","block":4,"time":"2021-09-21T21:48:16.687Z","response":"2nd","certainty":"high","char":"L","transposition":-3,"order":["swapped","shifted"],"probe_pitches":[5,2,7,10,8,9,5,2,6,8,7,-2,0,9,0,-2],"shifted_pitches":[5,2,7,10,8,9,5,1,6,8,7,-2,0,9,0,-2],"swapped_pitches":[5,2,7,10,8,9,5,6,2,8,7,-2,0,9,0,-2],"shift_direction":-1,"question_num":121,"has_decoy":false},{"rt":2037.5,"stimulus":"[A] option 1, [L] option 2, [G] neither","key_press":65,"name":"choice","trial_type":"html-keyboard-response","trial_index":153,"time_elapsed":391544,"internal_node_id":"0.0-153.0","subject":"S1C1656","sona":"41661","block":4,"time":"2021-09-21T21:48:16.687Z","response":"1st","certainty":"high","char":"A","transposition":0,"order":["swapped","shifted"],"probe_pitches":[2,7,8,10,6,-1,0,4,-2,2,6,-1,4,10,2,10],"shifted_pitches":[2,7,8,10,6,-1,0,4,-3,2,6,-1,4,10,2,10],"swapped_pitches":[2,7,8,10,6,-1,0,-2,4,2,6,-1,4,10,2,10],"shift_direction":-1,"question_num":131,"has_decoy":false},{"rt":1896.8999998569489,"stimulus":"[A] option 1, [L] option 2, [G] neither","key_press":76,"name":"choice","trial_type":"html-keyboard-response","trial_index":164,"time_elapsed":416633,"internal_node_id":"0.0-164.0","subject":"S1C1656","sona":"41661","block":4,"time":"2021-09-21T21:48:16.687Z","response":"2nd","certainty":"high","char":"L","transposition":-2,"order":["shifted","swapped"],"probe_pitches":[2,7,10,5,6,1,-1,9,-2,4,7,0,7,2,9,2],"shifted_pitches":[2,7,10,5,6,1,-1,8,-2,4,7,0,7,2,9,2],"swapped_pitches":[2,7,10,5,6,1,-1,-2,9,4,7,0,7,2,9,2],"shift_direction":-1,"question_num":141,"has_decoy":false},{"rt":1101.1000001430511,"stimulus":"[A] option 1, [L] option 2, [G] neither","key_press":65,"name":"choice","trial_type":"html-keyboard-response","trial_index":175,"time_elapsed":441077,"internal_node_id":"0.0-175.0","subject":"S1C1656","sona":"41661","block":4,"time":"2021-09-21T21:48:16.687Z","response":"1st","certainty":"high","char":"A","transposition":-2,"order":["shifted","swapped"],"probe_pitches":[9,11,4,9,11,13,4,11,9,1,11,4,13,9,11,6],"shifted_pitches":[9,11,4,9,11,13,4,10,9,1,11,4,13,9,11,6],"swapped_pitches":[9,11,4,9,11,13,4,9,11,1,11,4,13,9,11,6],"shift_direction":-1,"question_num":151,"has_decoy":false},{"rt":1071,"stimulus":"[A] option 1, [L] option 2, [G] neither","key_press":76,"name":"choice","trial_type":"html-keyboard-response","trial_index":186,"time_elapsed":465507,"internal_node_id":"0.0-186.0","subject":"S1C1656","sona":"41661","block":4,"time":"2021-09-21T21:48:16.687Z","response":"2nd","certainty":"high","char":"L","transposition":-1,"order":["shifted","swapped"],"probe_pitches":[9,4,9,6,0,6,4,5,6,8,-2,10,2,9,2,4],"shifted_pitches":[9,4,9,6,0,6,4,5,7,8,-2,10,2,9,2,4],"swapped_pitches":[9,4,9,6,0,6,4,6,5,8,-2,10,2,9,2,4],"shift_direction":1,"question_num":161,"has_decoy":false},{"rt":2222.5,"stimulus":"[A] option 1, [L] option 2, [G] neither","key_press":76,"name":"choice","trial_type":"html-keyboard-response","trial_index":197,"time_elapsed":492169,"internal_node_id":"0.0-197.0","subject":"S1C1656","sona":"41661","block":4,"time":"2021-09-21T21:48:16.687Z","response":"2nd","certainty":"high","char":"L","transposition":-3,"order":["shifted","swapped"],"probe_pitches":[10,13,8,13,10,8,3,8,13,5,13,5,1,10,8,10],"shifted_pitches":[10,13,8,13,10,8,3,9,13,5,13,5,1,10,8,10],"swapped_pitches":[10,13,8,13,10,8,3,13,8,5,13,5,1,10,8,10],"shift_direction":1,"question_num":171,"has_decoy":false},{"rt":527.7999999523163,"stimulus":"[A] option 1, [L] option 2, [G] neither","key_press":76,"name":"choice","trial_type":"html-keyboard-response","trial_index":208,"time_elapsed":524196,"internal_node_id":"0.0-208.0","subject":"S1C1656","sona":"41661","block":4,"time":"2021-09-21T21:48:16.687Z","response":"2nd","certainty":"high","char":"L","transposition":2,"order":["swapped","shifted"],"probe_pitches":[4,6,1,8,11,6,13,11,4,8,6,11,8,6,1,4],"shifted_pitches":[4,6,1,8,11,6,13,11,5,8,6,11,8,6,1,4],"swapped_pitches":[4,6,1,8,11,6,13,4,11,8,6,11,8,6,1,4],"shift_direction":1,"question_num":181,"has_decoy":false},{"rt":1241.5,"stimulus":"[A] option 1, [L] option 2, [G] neither","key_press":76,"name":"choice","trial_type":"html-keyboard-response","trial_index":219,"time_elapsed":549219,"internal_node_id":"0.0-219.0","subject":"S1C1656","sona":"41661","block":4,"time":"2021-09-21T21:48:16.687Z","response":"2nd","certainty":"high","char":"L","transposition":-1,"order":["swapped","shifted"],"probe_pitches":[-2,2,-2,-1,-2,8,-2,5,4,9,-1,4,7,0,3,-1],"shifted_pitches":[-2,2,-2,-1,-2,8,-2,6,4,9,-1,4,7,0,3,-1],"swapped_pitches":[-2,2,-2,-1,-2,8,-2,4,5,9,-1,4,7,0,3,-1],"shift_direction":1,"question_num":191,"has_decoy":false}]