[{"rt":6872,"stimulus":"[A] option 1, [L] option 2, [G] neither","key_press":71,"name":"choice","trial_type":"html-keyboard-response","trial_index":10,"time_elapsed":349183,"internal_node_id":"0.0-10.0","subject":"S1C1605","sona":"41406","block":5,"time":"2021-09-09T08:10:41.814Z","response":"neither","certainty":"high","char":"G","transposition":-2,"order":["swapped","shifted"],"probe_pitches":[7,8,7,9,8,-2,4,7,0,-3,9,8,0,7,8,-1],"shifted_pitches":[7,8,7,9,8,-2,4,6,0,-3,9,8,0,7,8,-1],"swapped_pitches":[7,8,7,9,8,-2,4,0,7,-3,9,8,0,7,8,-1],"shift_direction":-1,"question_num":1,"has_decoy":false},{"rt":3083.5,"stimulus":"[A] option 1, [L] option 2, [G] neither","key_press":76,"name":"choice","trial_type":"html-keyboard-response","trial_index":21,"time_elapsed":374954,"internal_node_id":"0.0-21.0","subject":"S1C1605","sona":"41406","block":5,"time":"2021-09-09T08:10:41.814Z","response":"2nd","certainty":"high","char":"L","transposition":-2,"order":["swapped","shifted"],"probe_pitches":[8,7,9,7,6,-2,4,3,1,6,-3,5,3,-2,3,-3],"shifted_pitches":[8,7,9,7,6,-2,4,3,0,6,-3,5,3,-2,3,-3],"swapped_pitches":[8,7,9,7,6,-2,4,1,3,6,-3,5,3,-2,3,-3],"shift_direction":-1,"question_num":11,"has_decoy":false},{"rt":2077.6000000089407,"stimulus":"[A] option 1, [L] option 2, [G] neither","key_press":76,"name":"choice","trial_type":"html-keyboard-response","trial_index":32,"time_elapsed":399458,"internal_node_id":"0.0-32.0","subject":"S1C1605","sona":"41406","block":5,"time":"2021-09-09T08:10:41.814Z","response":"2nd","certainty":"high","char":"L","transposition":3,"order":["swapped","shifted"],"probe_pitches":[5,10,7,5,7,0,2,5,10,7,10,-2,2,7,5,0],"shifted_pitches":[5,10,7,5,7,0,2,6,10,7,10,-2,2,7,5,0],"swapped_pitches":[5,10,7,5,7,0,2,10,5,7,10,-2,2,7,5,0],"shift_direction":1,"question_num":21,"has_decoy":false},{"rt":14175.20000000298,"stimulus":"[A] option 1, [L] option 2, [G] neither","key_press":76,"name":"choice","trial_type":"html-keyboard-response","trial_index":43,"time_elapsed":442566,"internal_node_id":"0.0-43.0","subject":"S1C1605","sona":"41406","block":5,"time":"2021-09-09T08:10:41.814Z","response":"2nd","certainty":"high","char":"L","transposition":2,"order":["shifted","swapped"],"probe_pitches":[2,-2,2,5,0,5,10,2,0,5,-2,7,5,7,2,10],"shifted_pitches":[2,-2,2,5,0,5,10,2,-1,5,-2,7,5,7,2,10],"swapped_pitches":[2,-2,2,5,0,5,10,0,2,5,-2,7,5,7,2,10],"shift_direction":-1,"question_num":31,"has_decoy":false},{"rt":2228.800000011921,"stimulus":"[A] option 1, [L] option 2, [G] neither","key_press":65,"name":"choice","trial_type":"html-keyboard-response","trial_index":54,"time_elapsed":469290,"internal_node_id":"0.0-54.0","subject":"S1C1605","sona":"41406","block":5,"time":"2021-09-09T08:10:41.814Z","response":"1st","certainty":"high","char":"A","transposition":-2,"order":["swapped","shifted"],"probe_pitches":[8,10,8,5,1,8,1,8,5,-2,5,1,10,5,3,-2],"shifted_pitches":[8,10,8,5,1,8,1,7,5,-2,5,1,10,5,3,-2],"swapped_pitches":[8,10,8,5,1,8,1,5,8,-2,5,1,10,5,3,-2],"shift_direction":-1,"question_num":41,"has_decoy":false},{"rt":371.59999999403954,"stimulus":"[A] option 1, [L] option 2, [G] neither","key_press":76,"name":"choice","trial_type":"html-keyboard-response","trial_index":65,"time_elapsed":493193,"internal_node_id":"0.0-65.0","subject":"S1C1605","sona":"41406","block":5,"time":"2021-09-09T08:10:41.814Z","response":"2nd","certainty":"high","char":"L","transposition":-3,"order":["swapped","shifted"],"probe_pitches":[5,0,7,0,6,3,7,-1,-3,9,4,-3,-2,1,-2,7],"shifted_pitches":[5,0,7,0,6,3,7,-1,-4,9,4,-3,-2,1,-2,7],"swapped_pitches":[5,0,7,0,6,3,7,-3,-1,9,4,-3,-2,1,-2,7],"shift_direction":-1,"question_num":51,"has_decoy":false},{"rt":10674.5,"stimulus":"[A] option 1, [L] option 2, [G] neither","key_press":65,"name":"choice","trial_type":"html-keyboard-response","trial_index":76,"time_elapsed":526275,"internal_node_id":"0.0-76.0","subject":"S1C1605","sona":"41406","block":5,"time":"2021-09-09T08:10:41.814Z","response":"1st","certainty":"high","char":"A","transposition":0,"order":["swapped","shifted"],"probe_pitches":[-2,-3,2,4,8,0,1,-2,8,4,1,8,6,-3,0,2],"shifted_pitches":[-2,-3,2,4,8,0,1,-1,8,4,1,8,6,-3,0,2],"swapped_pitches":[-2,-3,2,4,8,0,1,8,-2,4,1,8,6,-3,0,2],"shift_direction":1,"question_num":61,"has_decoy":false},{"rt":18872,"stimulus":"[A] option 1, [L] option 2, [G] neither","key_press":76,"name":"choice","trial_type":"html-keyboard-response","trial_index":87,"time_elapsed":567502,"internal_node_id":"0.0-87.0","subject":"S1C1605","sona":"41406","block":5,"time":"2021-09-09T08:10:41.814Z","response":"2nd","certainty":"high","char":"L","transposition":1,"order":["shifted","swapped"],"probe_pitches":[0,5,0,-1,1,-1,0,3,-1,6,5,8,2,-2,0,2],"shifted_pitches":[0,5,0,-1,1,-1,0,4,-1,6,5,8,2,-2,0,2],"swapped_pitches":[0,5,0,-1,1,-1,0,-1,3,6,5,8,2,-2,0,2],"shift_direction":1,"question_num":71,"has_decoy":false},{"rt":3109.2999999970198,"stimulus":"[A] option 1, [L] option 2, [G] neither","key_press":65,"name":"choice","trial_type":"html-keyboard-response","trial_index":98,"time_elapsed":593221,"internal_node_id":"0.0-98.0","subject":"S1C1605","sona":"41406","block":5,"time":"2021-09-09T08:10:41.814Z","response":"1st","certainty":"high","char":"A","transposition":0,"order":["swapped","shifted"],"probe_pitches":[-2,1,8,6,3,8,1,8,10,1,6,-2,1,10,-2,8],"shifted_pitches":[-2,1,8,6,3,8,1,8,9,1,6,-2,1,10,-2,8],"swapped_pitches":[-2,1,8,6,3,8,1,10,8,1,6,-2,1,10,-2,8],"shift_direction":-1,"question_num":81,"has_decoy":false},{"rt":5957.29999999702,"stimulus":"[A] option 1, [L] option 2, [G] neither","key_press":76,"name":"choice","trial_type":"html-keyboard-response","trial_index":109,"time_elapsed":621558,"internal_node_id":"0.0-109.0","subject":"S1C1605","sona":"41406","block":5,"time":"2021-09-09T08:10:41.814Z","response":"2nd","certainty":"high","char":"L","transposition":-1,"order":["shifted","swapped"],"probe_pitches":[5,2,-3,-1,0,3,8,0,9,6,0,4,8,-1,5,6],"shifted_pitches":[5,2,-3,-1,0,3,8,1,9,6,0,4,8,-1,5,6],"swapped_pitches":[5,2,-3,-1,0,3,8,9,0,6,0,4,8,-1,5,6],"shift_direction":1,"question_num":91,"has_decoy":false},{"rt":6094.4000000059605,"stimulus":"[A] option 1, [L] option 2, [G] neither","key_press":76,"name":"choice","trial_type":"html-keyboard-response","trial_index":120,"time_elapsed":650085,"internal_node_id":"0.0-120.0","subject":"S1C1605","sona":"41406","block":5,"time":"2021-09-09T08:10:41.814Z","response":"2nd","certainty":"high","char":"L","transposition":-3,"order":["shifted","swapped"],"probe_pitches":[8,9,2,-2,3,2,3,7,4,-2,8,-3,3,-1,-3,1],"shifted_pitches":[8,9,2,-2,3,2,3,7,5,-2,8,-3,3,-1,-3,1],"swapped_pitches":[8,9,2,-2,3,2,3,4,7,-2,8,-3,3,-1,-3,1],"shift_direction":1,"question_num":101,"has_decoy":false},{"rt":527.3999999910593,"stimulus":"[A] option 1, [L] option 2, [G] neither","key_press":76,"name":"choice","trial_type":"html-keyboard-response","trial_index":131,"time_elapsed":673129,"internal_node_id":"0.0-131.0","subject":"S1C1605","sona":"41406","block":5,"time":"2021-09-09T08:10:41.814Z","response":"2nd","certainty":"high","char":"L","transposition":-3,"order":["shifted","swapped"],"probe_pitches":[7,3,5,7,5,3,10,3,-2,0,5,10,3,-2,5,0],"shifted_pitches":[7,3,5,7,5,3,10,3,-1,0,5,10,3,-2,5,0],"swapped_pitches":[7,3,5,7,5,3,10,-2,3,0,5,10,3,-2,5,0],"shift_direction":1,"question_num":111,"has_decoy":false},{"rt":1217,"stimulus":"[A] option 1, [L] option 2, [G] neither","key_press":65,"name":"choice","trial_type":"html-keyboard-response","trial_index":142,"time_elapsed":696718,"internal_node_id":"0.0-142.0","subject":"S1C1605","sona":"41406","block":5,"time":"2021-09-09T08:10:41.814Z","response":"1st","certainty":"high","char":"A","transposition":-1,"order":["swapped","shifted"],"probe_pitches":[8,3,8,3,8,1,10,-2,1,6,10,6,1,6,3,8],"shifted_pitches":[8,3,8,3,8,1,10,-1,1,6,10,6,1,6,3,8],"swapped_pitches":[8,3,8,3,8,1,10,1,-2,6,10,6,1,6,3,8],"shift_direction":1,"question_num":121,"has_decoy":false},{"rt":3670.699999988079,"stimulus":"[A] option 1, [L] option 2, [G] neither","key_press":65,"name":"choice","trial_type":"html-keyboard-response","trial_index":153,"time_elapsed":722812,"internal_node_id":"0.0-153.0","subject":"S1C1605","sona":"41406","block":5,"time":"2021-09-09T08:10:41.814Z","response":"1st","certainty":"high","char":"A","transposition":1,"order":["shifted","swapped"],"probe_pitches":[10,5,-2,0,5,-2,5,10,0,3,10,-2,7,3,10,7],"shifted_pitches":[10,5,-2,0,5,-2,5,9,0,3,10,-2,7,3,10,7],"swapped_pitches":[10,5,-2,0,5,-2,5,0,10,3,10,-2,7,3,10,7],"shift_direction":-1,"question_num":131,"has_decoy":false},{"rt":1884.7999999970198,"stimulus":"[A] option 1, [L] option 2, [G] neither","key_press":76,"name":"choice","trial_type":"html-keyboard-response","trial_index":164,"time_elapsed":748256,"internal_node_id":"0.0-164.0","subject":"S1C1605","sona":"41406","block":5,"time":"2021-09-09T08:10:41.814Z","response":"2nd","certainty":"high","char":"L","transposition":-3,"order":["shifted","swapped"],"probe_pitches":[8,10,8,5,0,8,10,5,-2,3,8,10,8,10,8,10],"shifted_pitches":[8,10,8,5,0,8,10,5,-1,3,8,10,8,10,8,10],"swapped_pitches":[8,10,8,5,0,8,10,-2,5,3,8,10,8,10,8,10],"shift_direction":1,"question_num":141,"has_decoy":false},{"rt":15064,"stimulus":"[A] option 1, [L] option 2, [G] neither","key_press":71,"name":"choice","trial_type":"html-keyboard-response","trial_index":175,"time_elapsed":785955,"internal_node_id":"0.0-175.0","subject":"S1C1605","sona":"41406","block":5,"time":"2021-09-09T08:10:41.814Z","response":"neither","certainty":"high","char":"G","transposition":3,"order":["shifted","swapped"],"probe_pitches":[0,1,5,9,5,6,5,8,0,5,4,2,5,-3,0,6],"shifted_pitches":[0,1,5,9,5,6,5,7,0,5,4,2,5,-3,0,6],"swapped_pitches":[0,1,5,9,5,6,5,0,8,5,4,2,5,-3,0,6],"shift_direction":-1,"question_num":151,"has_decoy":false},{"rt":1876.6000000089407,"stimulus":"[A] option 1, [L] option 2, [G] neither","key_press":65,"name":"choice","trial_type":"html-keyboard-response","trial_index":186,"time_elapsed":896084,"internal_node_id":"0.0-186.0","subject":"S1C1605","sona":"41406","block":5,"time":"2021-09-09T08:10:41.814Z","response":"1st","certainty":"high","char":"A","transposition":-1,"order":["shifted","swapped"],"probe_pitches":[5,0,-2,5,10,8,0,-2,10,8,3,0,5,0,10,8],"shifted_pitches":[5,0,-2,5,10,8,0,-2,9,8,3,0,5,0,10,8],"swapped_pitches":[5,0,-2,5,10,8,0,10,-2,8,3,0,5,0,10,8],"shift_direction":-1,"question_num":161,"has_decoy":false},{"rt":1070.8999999910593,"stimulus":"[A] option 1, [L] option 2, [G] neither","key_press":65,"name":"choice","trial_type":"html-keyboard-response","trial_index":197,"time_elapsed":919378,"internal_node_id":"0.0-197.0","subject":"S1C1605","sona":"41406","block":5,"time":"2021-09-09T08:10:41.814Z","response":"1st","certainty":"high","char":"A","transposition":-1,"order":["shifted","swapped"],"probe_pitches":[9,7,1,4,7,3,0,-1,1,-2,1,5,-1,-2,3,1],"shifted_pitches":[9,7,1,4,7,3,0,-1,2,-2,1,5,-1,-2,3,1],"swapped_pitches":[9,7,1,4,7,3,0,1,-1,-2,1,5,-1,-2,3,1],"shift_direction":1,"question_num":171,"has_decoy":false},{"rt":3079.699999988079,"stimulus":"[A] option 1, [L] option 2, [G] neither","key_press":76,"name":"choice","trial_type":"html-keyboard-response","trial_index":208,"time_elapsed":945857,"internal_node_id":"0.0-208.0","subject":"S1C1605","sona":"41406","block":5,"time":"2021-09-09T08:10:41.814Z","response":"2nd","certainty":"high","char":"L","transposition":-2,"order":["swapped","shifted"],"probe_pitches":[3,5,-2,5,1,3,-2,1,10,-2,3,8,3,5,-2,5],"shifted_pitches":[3,5,-2,5,1,3,-2,2,10,-2,3,8,3,5,-2,5],"swapped_pitches":[3,5,-2,5,1,3,-2,10,1,-2,3,8,3,5,-2,5],"shift_direction":1,"question_num":181,"has_decoy":false},{"rt":8530.5,"stimulus":"[A] option 1, [L] option 2, [G] neither","key_press":76,"name":"choice","trial_type":"html-keyboard-response","trial_index":219,"time_elapsed":976819,"internal_node_id":"0.0-219.0","subject":"S1C1605","sona":"41406","block":5,"time":"2021-09-09T08:10:41.814Z","response":"2nd","certainty":"high","char":"L","transposition":2,"order":["swapped","shifted"],"probe_pitches":[7,2,6,9,2,5,7,-2,4,-1,5,2,5,7,-1,1],"shifted_pitches":[7,2,6,9,2,5,7,-2,3,-1,5,2,5,7,-1,1],"swapped_pitches":[7,2,6,9,2,5,7,4,-2,-1,5,2,5,7,-1,1],"shift_direction":-1,"question_num":191,"has_decoy":false}]