[{"rt":1265.4000000059605,"stimulus":"[A] option 1, [L] option 2, [G] neither","key_press":65,"name":"choice","trial_type":"html-keyboard-response","trial_index":10,"time_elapsed":28971,"internal_node_id":"0.0-10.0","subject":"S1C1605","sona":"41406","block":2,"time":"2021-09-09T07:33:45.287Z","response":"1st","certainty":"high","char":"A","transposition":-1,"order":["shifted","swapped"],"probe_pitches":[1,2,8,10,1,8,5,6,3,13,3,7,6,9,13,6],"shifted_pitches":[1,2,8,10,1,8,5,6,4,13,3,7,6,9,13,6],"swapped_pitches":[1,2,8,10,1,8,5,3,6,13,3,7,6,9,13,6],"shift_direction":1,"question_num":1,"has_decoy":false},{"rt":872.9000000059605,"stimulus":"[A] option 1, [L] option 2, [G] neither","key_press":76,"name":"choice","trial_type":"html-keyboard-response","trial_index":21,"time_elapsed":52248,"internal_node_id":"0.0-21.0","subject":"S1C1605","sona":"41406","block":2,"time":"2021-09-09T07:33:45.287Z","response":"2nd","certainty":"high","char":"L","transposition":-2,"order":["swapped","shifted"],"probe_pitches":[15,10,13,15,10,8,6,3,10,15,10,15,6,15,10,13],"shifted_pitches":[15,10,13,15,10,8,6,2,10,15,10,15,6,15,10,13],"swapped_pitches":[15,10,13,15,10,8,6,10,3,15,10,15,6,15,10,13],"shift_direction":-1,"question_num":11,"has_decoy":false},{"rt":1469.5999999940395,"stimulus":"[A] option 1, [L] option 2, [G] neither","key_press":65,"name":"choice","trial_type":"html-keyboard-response","trial_index":32,"time_elapsed":77055,"internal_node_id":"0.0-32.0","subject":"S1C1605","sona":"41406","block":2,"time":"2021-09-09T07:33:45.287Z","response":"1st","certainty":"high","char":"A","transposition":3,"order":["shifted","swapped"],"probe_pitches":[3,5,3,7,15,12,10,12,15,3,15,12,7,15,12,3],"shifted_pitches":[3,5,3,7,15,12,10,12,14,3,15,12,7,15,12,3],"swapped_pitches":[3,5,3,7,15,12,10,15,12,3,15,12,7,15,12,3],"shift_direction":-1,"question_num":21,"has_decoy":false},{"rt":4207.5999999940395,"stimulus":"[A] option 1, [L] option 2, [G] neither","key_press":76,"name":"choice","trial_type":"html-keyboard-response","trial_index":43,"time_elapsed":103643,"internal_node_id":"0.0-43.0","subject":"S1C1605","sona":"41406","block":2,"time":"2021-09-09T07:33:45.287Z","response":"2nd","certainty":"high","char":"L","transposition":-1,"order":["shifted","swapped"],"probe_pitches":[3,5,12,15,12,10,3,8,12,5,15,3,8,5,15,3],"shifted_pitches":[3,5,12,15,12,10,3,9,12,5,15,3,8,5,15,3],"swapped_pitches":[3,5,12,15,12,10,3,12,8,5,15,3,8,5,15,3],"shift_direction":1,"question_num":31,"has_decoy":false},{"rt":2363.0999999940395,"stimulus":"[A] option 1, [L] option 2, [G] neither","key_press":76,"name":"choice","trial_type":"html-keyboard-response","trial_index":54,"time_elapsed":128398,"internal_node_id":"0.0-54.0","subject":"S1C1605","sona":"41406","block":2,"time":"2021-09-09T07:33:45.287Z","response":"2nd","certainty":"high","char":"L","transposition":-2,"order":["swapped","shifted"],"probe_pitches":[13,15,10,6,3,13,10,15,13,6,15,8,15,6,13,8],"shifted_pitches":[13,15,10,6,3,13,10,16,13,6,15,8,15,6,13,8],"swapped_pitches":[13,15,10,6,3,13,10,13,15,6,15,8,15,6,13,8],"shift_direction":1,"question_num":41,"has_decoy":false},{"rt":1517.5,"stimulus":"[A] option 1, [L] option 2, [G] neither","key_press":76,"name":"choice","trial_type":"html-keyboard-response","trial_index":65,"time_elapsed":156124,"internal_node_id":"0.0-65.0","subject":"S1C1605","sona":"41406","block":2,"time":"2021-09-09T07:33:45.287Z","response":"2nd","certainty":"high","char":"L","transposition":-3,"order":["swapped","shifted"],"probe_pitches":[1,5,12,8,1,3,6,3,11,12,6,7,13,1,11,6],"shifted_pitches":[1,5,12,8,1,3,6,3,10,12,6,7,13,1,11,6],"swapped_pitches":[1,5,12,8,1,3,6,11,3,12,6,7,13,1,11,6],"shift_direction":-1,"question_num":51,"has_decoy":false},{"rt":1385.9000000059605,"stimulus":"[A] option 1, [L] option 2, [G] neither","key_press":65,"name":"choice","trial_type":"html-keyboard-response","trial_index":76,"time_elapsed":179986,"internal_node_id":"0.0-76.0","subject":"S1C1605","sona":"41406","block":2,"time":"2021-09-09T07:33:45.287Z","response":"1st","certainty":"high","char":"A","transposition":-3,"order":["swapped","shifted"],"probe_pitches":[6,1,8,6,8,2,10,6,8,7,1,7,11,9,10,6],"shifted_pitches":[6,1,8,6,8,2,10,5,8,7,1,7,11,9,10,6],"swapped_pitches":[6,1,8,6,8,2,10,8,6,7,1,7,11,9,10,6],"shift_direction":-1,"question_num":61,"has_decoy":false},{"rt":1722.5,"stimulus":"[A] option 1, [L] option 2, [G] neither","key_press":76,"name":"choice","trial_type":"html-keyboard-response","trial_index":87,"time_elapsed":204952,"internal_node_id":"0.0-87.0","subject":"S1C1605","sona":"41406","block":2,"time":"2021-09-09T07:33:45.287Z","response":"2nd","certainty":"high","char":"L","transposition":-1,"order":["shifted","swapped"],"probe_pitches":[3,5,10,5,10,3,5,8,13,5,10,13,10,15,5,15],"shifted_pitches":[3,5,10,5,10,3,5,7,13,5,10,13,10,15,5,15],"swapped_pitches":[3,5,10,5,10,3,5,13,8,5,10,13,10,15,5,15],"shift_direction":-1,"question_num":71,"has_decoy":false},{"rt":1685.8999999910593,"stimulus":"[A] option 1, [L] option 2, [G] neither","key_press":76,"name":"choice","trial_type":"html-keyboard-response","trial_index":98,"time_elapsed":229856,"internal_node_id":"0.0-98.0","subject":"S1C1605","sona":"41406","block":2,"time":"2021-09-09T07:33:45.287Z","response":"2nd","certainty":"high","char":"L","transposition":1,"order":["swapped","shifted"],"probe_pitches":[3,5,10,8,13,3,13,15,3,5,15,13,8,5,10,8],"shifted_pitches":[3,5,10,8,13,3,13,15,4,5,15,13,8,5,10,8],"swapped_pitches":[3,5,10,8,13,3,13,3,15,5,15,13,8,5,10,8],"shift_direction":1,"question_num":81,"has_decoy":false},{"rt":2182.6000000089407,"stimulus":"[A] option 1, [L] option 2, [G] neither","key_press":65,"name":"choice","trial_type":"html-keyboard-response","trial_index":109,"time_elapsed":254638,"internal_node_id":"0.0-109.0","subject":"S1C1605","sona":"41406","block":2,"time":"2021-09-09T07:33:45.287Z","response":"1st","certainty":"high","char":"A","transposition":-2,"order":["swapped","shifted"],"probe_pitches":[11,10,11,3,9,1,2,13,6,3,13,12,4,8,10,12],"shifted_pitches":[11,10,11,3,9,1,2,13,7,3,13,12,4,8,10,12],"swapped_pitches":[11,10,11,3,9,1,2,6,13,3,13,12,4,8,10,12],"shift_direction":1,"question_num":91,"has_decoy":false},{"rt":2047.2000000029802,"stimulus":"[A] option 1, [L] option 2, [G] neither","key_press":71,"name":"choice","trial_type":"html-keyboard-response","trial_index":120,"time_elapsed":279163,"internal_node_id":"0.0-120.0","subject":"S1C1605","sona":"41406","block":2,"time":"2021-09-09T07:33:45.287Z","response":"neither","certainty":"high","char":"G","transposition":-3,"order":["swapped","shifted"],"probe_pitches":[11,15,11,6,8,11,13,8,6,11,6,8,15,3,6,13],"shifted_pitches":[11,15,11,6,8,11,13,8,5,11,6,8,15,3,6,13],"swapped_pitches":[11,15,11,6,8,11,13,6,8,11,6,8,15,3,6,13],"shift_direction":-1,"question_num":101,"has_decoy":false},{"rt":3187,"stimulus":"[A] option 1, [L] option 2, [G] neither","key_press":76,"name":"choice","trial_type":"html-keyboard-response","trial_index":131,"time_elapsed":304922,"internal_node_id":"0.0-131.0","subject":"S1C1605","sona":"41406","block":2,"time":"2021-09-09T07:33:45.287Z","response":"2nd","certainty":"high","char":"L","transposition":0,"order":["shifted","swapped"],"probe_pitches":[5,1,4,3,7,1,2,12,3,10,8,9,12,7,3,12],"shifted_pitches":[5,1,4,3,7,1,2,11,3,10,8,9,12,7,3,12],"swapped_pitches":[5,1,4,3,7,1,2,3,12,10,8,9,12,7,3,12],"shift_direction":-1,"question_num":111,"has_decoy":false},{"rt":2134.5,"stimulus":"[A] option 1, [L] option 2, [G] neither","key_press":65,"name":"choice","trial_type":"html-keyboard-response","trial_index":142,"time_elapsed":329629,"internal_node_id":"0.0-142.0","subject":"S1C1605","sona":"41406","block":2,"time":"2021-09-09T07:33:45.287Z","response":"1st","certainty":"high","char":"A","transposition":2,"order":["shifted","swapped"],"probe_pitches":[12,6,5,13,8,13,4,1,10,7,5,4,1,12,10,2],"shifted_pitches":[12,6,5,13,8,13,4,1,9,7,5,4,1,12,10,2],"swapped_pitches":[12,6,5,13,8,13,4,10,1,7,5,4,1,12,10,2],"shift_direction":-1,"question_num":121,"has_decoy":false},{"rt":1303,"stimulus":"[A] option 1, [L] option 2, [G] neither","key_press":71,"name":"choice","trial_type":"html-keyboard-response","trial_index":153,"time_elapsed":353328,"internal_node_id":"0.0-153.0","subject":"S1C1605","sona":"41406","block":2,"time":"2021-09-09T07:33:45.287Z","response":"neither","certainty":"high","char":"G","transposition":-2,"order":["swapped","shifted"],"probe_pitches":[11,6,5,12,5,4,7,2,13,12,6,10,13,6,11,13],"shifted_pitches":[11,6,5,12,5,4,7,3,13,12,6,10,13,6,11,13],"swapped_pitches":[11,6,5,12,5,4,7,13,2,12,6,10,13,6,11,13],"shift_direction":1,"question_num":131,"has_decoy":false},{"rt":1522.2000000029802,"stimulus":"[A] option 1, [L] option 2, [G] neither","key_press":76,"name":"choice","trial_type":"html-keyboard-response","trial_index":164,"time_elapsed":378457,"internal_node_id":"0.0-164.0","subject":"S1C1605","sona":"41406","block":2,"time":"2021-09-09T07:33:45.287Z","response":"2nd","certainty":"high","char":"L","transposition":-3,"order":["swapped","shifted"],"probe_pitches":[8,10,8,15,12,8,5,12,10,5,15,8,15,12,8,10],"shifted_pitches":[8,10,8,15,12,8,5,12,11,5,15,8,15,12,8,10],"swapped_pitches":[8,10,8,15,12,8,5,10,12,5,15,8,15,12,8,10],"shift_direction":1,"question_num":141,"has_decoy":false},{"rt":1571.0999999940395,"stimulus":"[A] option 1, [L] option 2, [G] neither","key_press":65,"name":"choice","trial_type":"html-keyboard-response","trial_index":175,"time_elapsed":404286,"internal_node_id":"0.0-175.0","subject":"S1C1605","sona":"41406","block":2,"time":"2021-09-09T07:33:45.287Z","response":"1st","certainty":"high","char":"A","transposition":2,"order":["shifted","swapped"],"probe_pitches":[7,3,7,10,3,12,7,15,5,10,3,12,5,7,12,5],"shifted_pitches":[7,3,7,10,3,12,7,16,5,10,3,12,5,7,12,5],"swapped_pitches":[7,3,7,10,3,12,7,5,15,10,3,12,5,7,12,5],"shift_direction":1,"question_num":151,"has_decoy":false},{"rt":4140.699999988079,"stimulus":"[A] option 1, [L] option 2, [G] neither","key_press":76,"name":"choice","trial_type":"html-keyboard-response","trial_index":186,"time_elapsed":432196,"internal_node_id":"0.0-186.0","subject":"S1C1605","sona":"41406","block":2,"time":"2021-09-09T07:33:45.287Z","response":"2nd","certainty":"high","char":"L","transposition":-1,"order":["shifted","swapped"],"probe_pitches":[8,4,2,3,4,1,7,13,10,1,13,2,6,8,13,3],"shifted_pitches":[8,4,2,3,4,1,7,12,10,1,13,2,6,8,13,3],"swapped_pitches":[8,4,2,3,4,1,7,10,13,1,13,2,6,8,13,3],"shift_direction":-1,"question_num":161,"has_decoy":false},{"rt":1238,"stimulus":"[A] option 1, [L] option 2, [G] neither","key_press":65,"name":"choice","trial_type":"html-keyboard-response","trial_index":197,"time_elapsed":455693,"internal_node_id":"0.0-197.0","subject":"S1C1605","sona":"41406","block":2,"time":"2021-09-09T07:33:45.287Z","response":"1st","certainty":"high","char":"A","transposition":3,"order":["shifted","swapped"],"probe_pitches":[11,5,1,4,11,7,4,10,5,7,13,12,10,4,3,10],"shifted_pitches":[11,5,1,4,11,7,4,10,6,7,13,12,10,4,3,10],"swapped_pitches":[11,5,1,4,11,7,4,5,10,7,13,12,10,4,3,10],"shift_direction":1,"question_num":171,"has_decoy":false},{"rt":1657.7999999970198,"stimulus":"[A] option 1, [L] option 2, [G] neither","key_press":76,"name":"choice","trial_type":"html-keyboard-response","trial_index":208,"time_elapsed":479904,"internal_node_id":"0.0-208.0","subject":"S1C1605","sona":"41406","block":2,"time":"2021-09-09T07:33:45.287Z","response":"2nd","certainty":"high","char":"L","transposition":0,"order":["shifted","swapped"],"probe_pitches":[8,11,8,3,11,13,11,6,8,3,11,3,6,13,3,11],"shifted_pitches":[8,11,8,3,11,13,11,6,7,3,11,3,6,13,3,11],"swapped_pitches":[8,11,8,3,11,13,11,8,6,3,11,3,6,13,3,11],"shift_direction":-1,"question_num":181,"has_decoy":false},{"rt":1672.800000011921,"stimulus":"[A] option 1, [L] option 2, [G] neither","key_press":76,"name":"choice","trial_type":"html-keyboard-response","trial_index":219,"time_elapsed":504408,"internal_node_id":"0.0-219.0","subject":"S1C1605","sona":"41406","block":2,"time":"2021-09-09T07:33:45.287Z","response":"2nd","certainty":"high","char":"L","transposition":1,"order":["swapped","shifted"],"probe_pitches":[10,11,4,1,6,7,11,7,12,6,11,7,10,12,13,4],"shifted_pitches":[10,11,4,1,6,7,11,8,12,6,11,7,10,12,13,4],"swapped_pitches":[10,11,4,1,6,7,11,12,7,6,11,7,10,12,13,4],"shift_direction":1,"question_num":191,"has_decoy":false}]