[{"rt":9665,"stimulus":"[A] option 1, [L] option 2, [G] neither","key_press":65,"name":"choice","trial_type":"html-keyboard-response","trial_index":15,"time_elapsed":99766,"internal_node_id":"0.0-15.0","response":"1st","certainty":"high","char":"A","transposition":-2,"order":["shifted","swapped"],"probe_pitches":[8,6,3,6,-2,6,10,3,8,10,8,1,8,-2,8,1],"shifted_pitches":[8,6,3,6,-2,6,10,2,8,10,8,1,8,-2,8,1],"swapped_pitches":[8,6,3,6,-2,6,10,8,3,10,8,1,8,-2,8,1],"shift_direction":-1,"question_num":1,"has_decoy":false,"subject":"S1C1605","sona":"41406","block":1,"time":"2021-09-09T07:23:57.198Z"},{"rt":6826.29999999702,"stimulus":"[A] option 1, [L] option 2, [G] neither","key_press":65,"name":"choice","trial_type":"html-keyboard-response","trial_index":26,"time_elapsed":132437,"internal_node_id":"0.0-26.0","response":"1st","certainty":"high","char":"A","transposition":3,"order":["shifted","swapped"],"probe_pitches":[15,11,15,10,8,10,6,15,3,4,13,8,13,4,6,4],"shifted_pitches":[15,11,15,10,8,10,6,15,2,4,13,8,13,4,6,4],"swapped_pitches":[15,11,15,10,8,10,6,3,15,4,13,8,13,4,6,4],"shift_direction":-1,"question_num":11,"has_decoy":false,"subject":"S1C1605","sona":"41406","block":1,"time":"2021-09-09T07:23:57.198Z"},{"rt":4502.29999999702,"stimulus":"[A] option 1, [L] option 2, [G] neither","key_press":76,"name":"choice","trial_type":"html-keyboard-response","trial_index":37,"time_elapsed":160903,"internal_node_id":"0.0-37.0","response":"2nd","certainty":"high","char":"L","transposition":-1,"order":["shifted","swapped"],"probe_pitches":[5,0,3,5,10,0,5,10,7,0,7,3,0,3,0,-2],"shifted_pitches":[5,0,3,5,10,0,5,10,8,0,7,3,0,3,0,-2],"swapped_pitches":[5,0,3,5,10,0,5,7,10,0,7,3,0,3,0,-2],"shift_direction":1,"question_num":21,"has_decoy":false,"subject":"S1C1605","sona":"41406","block":1,"time":"2021-09-09T07:23:57.198Z"},{"rt":2727.4000000059605,"stimulus":"[A] option 1, [L] option 2, [G] neither","key_press":65,"name":"choice","trial_type":"html-keyboard-response","trial_index":48,"time_elapsed":188479,"internal_node_id":"0.0-48.0","response":"1st","certainty":"high","char":"A","transposition":2,"order":["shifted","swapped"],"probe_pitches":[3,1,-2,1,-2,1,8,1,-2,5,1,5,8,3,8,10],"shifted_pitches":[3,1,-2,1,-2,1,8,0,-2,5,1,5,8,3,8,10],"swapped_pitches":[3,1,-2,1,-2,1,8,-2,1,5,1,5,8,3,8,10],"shift_direction":-1,"question_num":31,"has_decoy":false,"subject":"S1C1605","sona":"41406","block":1,"time":"2021-09-09T07:23:57.198Z"},{"rt":4103.29999999702,"stimulus":"[A] option 1, [L] option 2, [G] neither","key_press":76,"name":"choice","trial_type":"html-keyboard-response","trial_index":59,"time_elapsed":217534,"internal_node_id":"0.0-59.0","response":"2nd","certainty":"high","char":"L","transposition":-2,"order":["shifted","swapped"],"probe_pitches":[15,13,10,11,13,10,11,14,4,9,11,13,14,12,11,13],"shifted_pitches":[15,13,10,11,13,10,11,14,5,9,11,13,14,12,11,13],"swapped_pitches":[15,13,10,11,13,10,11,4,14,9,11,13,14,12,11,13],"shift_direction":1,"question_num":41,"has_decoy":false,"subject":"S1C1605","sona":"41406","block":1,"time":"2021-09-09T07:23:57.198Z"},{"rt":4115.600000008941,"stimulus":"[A] option 1, [L] option 2, [G] neither","key_press":71,"name":"choice","trial_type":"html-keyboard-response","trial_index":70,"time_elapsed":246728,"internal_node_id":"0.0-70.0","response":"neither","certainty":"high","char":"G","transposition":0,"order":["shifted","swapped"],"probe_pitches":[12,14,15,14,15,11,10,12,8,7,8,11,10,5,13,6],"shifted_pitches":[12,14,15,14,15,11,10,12,9,7,8,11,10,5,13,6],"swapped_pitches":[12,14,15,14,15,11,10,8,12,7,8,11,10,5,13,6],"shift_direction":1,"question_num":51,"has_decoy":false,"subject":"S1C1605","sona":"41406","block":1,"time":"2021-09-09T07:23:57.198Z"},{"rt":2883.5,"stimulus":"[A] option 1, [L] option 2, [G] neither","key_press":76,"name":"choice","trial_type":"html-keyboard-response","trial_index":81,"time_elapsed":274694,"internal_node_id":"0.0-81.0","response":"2nd","certainty":"high","char":"L","transposition":-2,"order":["shifted","swapped"],"probe_pitches":[6,9,12,5,13,8,10,12,8,3,8,15,7,9,15,10],"shifted_pitches":[6,9,12,5,13,8,10,11,8,3,8,15,7,9,15,10],"swapped_pitches":[6,9,12,5,13,8,10,8,12,3,8,15,7,9,15,10],"shift_direction":-1,"question_num":61,"has_decoy":false,"subject":"S1C1605","sona":"41406","block":1,"time":"2021-09-09T07:23:57.198Z"},{"rt":1856.4000000059605,"stimulus":"[A] option 1, [L] option 2, [G] neither","key_press":65,"name":"choice","trial_type":"html-keyboard-response","trial_index":92,"time_elapsed":306218,"internal_node_id":"0.0-92.0","response":"1st","certainty":"high","char":"A","transposition":0,"order":["shifted","swapped"],"probe_pitches":[0,5,-2,3,-2,3,8,5,0,10,3,10,-2,8,3,8],"shifted_pitches":[0,5,-2,3,-2,3,8,4,0,10,3,10,-2,8,3,8],"swapped_pitches":[0,5,-2,3,-2,3,8,0,5,10,3,10,-2,8,3,8],"shift_direction":-1,"question_num":71,"has_decoy":false,"subject":"S1C1605","sona":"41406","block":1,"time":"2021-09-09T07:23:57.198Z"},{"rt":1715.300000011921,"stimulus":"[A] option 1, [L] option 2, [G] neither","key_press":76,"name":"choice","trial_type":"html-keyboard-response","trial_index":103,"time_elapsed":331816,"internal_node_id":"0.0-103.0","response":"2nd","certainty":"high","char":"L","transposition":-3,"order":["swapped","shifted"],"probe_pitches":[11,8,12,4,10,9,3,14,12,15,12,10,12,6,3,4],"shifted_pitches":[11,8,12,4,10,9,3,13,12,15,12,10,12,6,3,4],"swapped_pitches":[11,8,12,4,10,9,3,12,14,15,12,10,12,6,3,4],"shift_direction":-1,"question_num":81,"has_decoy":false,"subject":"S1C1605","sona":"41406","block":1,"time":"2021-09-09T07:23:57.198Z"},{"rt":10698.70000000298,"stimulus":"[A] option 1, [L] option 2, [G] neither","key_press":71,"name":"choice","trial_type":"html-keyboard-response","trial_index":114,"time_elapsed":367390,"internal_node_id":"0.0-114.0","response":"neither","certainty":"high","char":"G","transposition":-2,"order":["shifted","swapped"],"probe_pitches":[0,5,7,5,7,10,5,10,3,-2,7,10,0,5,-2,10],"shifted_pitches":[0,5,7,5,7,10,5,10,2,-2,7,10,0,5,-2,10],"swapped_pitches":[0,5,7,5,7,10,5,3,10,-2,7,10,0,5,-2,10],"shift_direction":-1,"question_num":91,"has_decoy":false,"subject":"S1C1605","sona":"41406","block":1,"time":"2021-09-09T07:23:57.198Z"},{"rt":1976.5,"stimulus":"[A] option 1, [L] option 2, [G] neither","key_press":76,"name":"choice","trial_type":"html-keyboard-response","trial_index":125,"time_elapsed":393638,"internal_node_id":"0.0-125.0","response":"2nd","certainty":"high","char":"L","transposition":1,"order":["swapped","shifted"],"probe_pitches":[3,6,7,9,6,9,15,9,8,3,7,13,15,13,11,8],"shifted_pitches":[3,6,7,9,6,9,15,10,8,3,7,13,15,13,11,8],"swapped_pitches":[3,6,7,9,6,9,15,8,9,3,7,13,15,13,11,8],"shift_direction":1,"question_num":101,"has_decoy":false,"subject":"S1C1605","sona":"41406","block":1,"time":"2021-09-09T07:23:57.198Z"},{"rt":1928.4000000059605,"stimulus":"[A] option 1, [L] option 2, [G] neither","key_press":76,"name":"choice","trial_type":"html-keyboard-response","trial_index":136,"time_elapsed":418370,"internal_node_id":"0.0-136.0","response":"2nd","certainty":"high","char":"L","transposition":-3,"order":["swapped","shifted"],"probe_pitches":[-2,0,-2,2,5,7,5,7,-2,0,-2,7,2,0,7,5],"shifted_pitches":[-2,0,-2,2,5,7,5,7,-1,0,-2,7,2,0,7,5],"swapped_pitches":[-2,0,-2,2,5,7,5,-2,7,0,-2,7,2,0,7,5],"shift_direction":1,"question_num":111,"has_decoy":false,"subject":"S1C1605","sona":"41406","block":1,"time":"2021-09-09T07:23:57.198Z"},{"rt":2671.7000000029802,"stimulus":"[A] option 1, [L] option 2, [G] neither","key_press":76,"name":"choice","trial_type":"html-keyboard-response","trial_index":147,"time_elapsed":443943,"internal_node_id":"0.0-147.0","response":"2nd","certainty":"high","char":"L","transposition":2,"order":["swapped","shifted"],"probe_pitches":[14,10,14,15,10,8,7,5,4,10,4,9,7,5,3,14],"shifted_pitches":[14,10,14,15,10,8,7,6,4,10,4,9,7,5,3,14],"swapped_pitches":[14,10,14,15,10,8,7,4,5,10,4,9,7,5,3,14],"shift_direction":1,"question_num":121,"has_decoy":false,"subject":"S1C1605","sona":"41406","block":1,"time":"2021-09-09T07:23:57.198Z"},{"rt":3037,"stimulus":"[A] option 1, [L] option 2, [G] neither","key_press":76,"name":"choice","trial_type":"html-keyboard-response","trial_index":158,"time_elapsed":469778,"internal_node_id":"0.0-158.0","response":"2nd","certainty":"high","char":"L","transposition":-3,"order":["shifted","swapped"],"probe_pitches":[4,7,13,9,7,14,15,11,13,8,11,6,15,3,6,13],"shifted_pitches":[4,7,13,9,7,14,15,11,12,8,11,6,15,3,6,13],"swapped_pitches":[4,7,13,9,7,14,15,13,11,8,11,6,15,3,6,13],"shift_direction":-1,"question_num":131,"has_decoy":false,"subject":"S1C1605","sona":"41406","block":1,"time":"2021-09-09T07:23:57.198Z"},{"rt":2518.699999988079,"stimulus":"[A] option 1, [L] option 2, [G] neither","key_press":76,"name":"choice","trial_type":"html-keyboard-response","trial_index":169,"time_elapsed":495960,"internal_node_id":"0.0-169.0","response":"2nd","certainty":"high","char":"L","transposition":3,"order":["swapped","shifted"],"probe_pitches":[0,3,10,3,10,3,0,8,3,5,3,8,10,0,8,-2],"shifted_pitches":[0,3,10,3,10,3,0,9,3,5,3,8,10,0,8,-2],"swapped_pitches":[0,3,10,3,10,3,0,3,8,5,3,8,10,0,8,-2],"shift_direction":1,"question_num":141,"has_decoy":false,"subject":"S1C1605","sona":"41406","block":1,"time":"2021-09-09T07:23:57.198Z"},{"rt":1376.8999999910593,"stimulus":"[A] option 1, [L] option 2, [G] neither","key_press":65,"name":"choice","trial_type":"html-keyboard-response","trial_index":180,"time_elapsed":520798,"internal_node_id":"0.0-180.0","response":"1st","certainty":"high","char":"A","transposition":-1,"order":["swapped","shifted"],"probe_pitches":[10,6,3,1,-2,8,3,10,6,-2,8,1,-2,1,-2,1],"shifted_pitches":[10,6,3,1,-2,8,3,10,5,-2,8,1,-2,1,-2,1],"swapped_pitches":[10,6,3,1,-2,8,3,6,10,-2,8,1,-2,1,-2,1],"shift_direction":-1,"question_num":151,"has_decoy":false,"subject":"S1C1605","sona":"41406","block":1,"time":"2021-09-09T07:23:57.198Z"},{"rt":1047.699999988079,"stimulus":"[A] option 1, [L] option 2, [G] neither","key_press":76,"name":"choice","trial_type":"html-keyboard-response","trial_index":191,"time_elapsed":545798,"internal_node_id":"0.0-191.0","response":"2nd","certainty":"high","char":"L","transposition":-3,"order":["swapped","shifted"],"probe_pitches":[1,5,3,5,1,3,1,-2,8,5,10,1,8,1,-2,3],"shifted_pitches":[1,5,3,5,1,3,1,-1,8,5,10,1,8,1,-2,3],"swapped_pitches":[1,5,3,5,1,3,1,8,-2,5,10,1,8,1,-2,3],"shift_direction":1,"question_num":161,"has_decoy":false,"subject":"S1C1605","sona":"41406","block":1,"time":"2021-09-09T07:23:57.198Z"},{"rt":2591.5,"stimulus":"[A] option 1, [L] option 2, [G] neither","key_press":65,"name":"choice","trial_type":"html-keyboard-response","trial_index":202,"time_elapsed":572483,"internal_node_id":"0.0-202.0","response":"1st","certainty":"high","char":"A","transposition":-1,"order":["swapped","shifted"],"probe_pitches":[11,6,4,5,6,3,8,13,6,15,5,9,13,8,4,14],"shifted_pitches":[11,6,4,5,6,3,8,13,7,15,5,9,13,8,4,14],"swapped_pitches":[11,6,4,5,6,3,8,6,13,15,5,9,13,8,4,14],"shift_direction":1,"question_num":171,"has_decoy":false,"subject":"S1C1605","sona":"41406","block":1,"time":"2021-09-09T07:23:57.198Z"},{"rt":2585.9000000059605,"stimulus":"[A] option 1, [L] option 2, [G] neither","key_press":71,"name":"choice","trial_type":"html-keyboard-response","trial_index":213,"time_elapsed":597597,"internal_node_id":"0.0-213.0","response":"neither","certainty":"high","char":"G","transposition":-1,"order":["swapped","shifted"],"probe_pitches":[10,12,14,6,3,12,7,9,14,12,13,10,4,9,6,7],"shifted_pitches":[10,12,14,6,3,12,7,8,14,12,13,10,4,9,6,7],"swapped_pitches":[10,12,14,6,3,12,7,14,9,12,13,10,4,9,6,7],"shift_direction":-1,"question_num":181,"has_decoy":false,"subject":"S1C1605","sona":"41406","block":1,"time":"2021-09-09T07:23:57.198Z"},{"rt":4242.5,"stimulus":"[A] option 1, [L] option 2, [G] neither","key_press":71,"name":"choice","trial_type":"html-keyboard-response","trial_index":224,"time_elapsed":839473,"internal_node_id":"0.0-224.0","response":"neither","certainty":"high","char":"G","transposition":1,"order":["swapped","shifted"],"probe_pitches":[0,2,7,10,7,2,5,-2,2,5,7,-2,0,5,0,5],"shifted_pitches":[0,2,7,10,7,2,5,-2,3,5,7,-2,0,5,0,5],"swapped_pitches":[0,2,7,10,7,2,5,2,-2,5,7,-2,0,5,0,5],"shift_direction":1,"question_num":191,"has_decoy":false,"subject":"S1C1605","sona":"41406","block":1,"time":"2021-09-09T07:23:57.198Z"}]