[{"rt":882.2999999970198,"stimulus":"[A] option 1, [L] option 2, [G] neither","key_press":76,"name":"choice","trial_type":"html-keyboard-response","trial_index":10,"time_elapsed":24115,"internal_node_id":"0.0-10.0","subject":"S1C1605","sona":"41406","block":6,"time":"2021-09-09T08:19:24.750Z","response":"2nd","certainty":"high","char":"L","transposition":-1,"order":["shifted","swapped"],"probe_pitches":[6,8,6,8,5,2,9,3,10,8,2,5,9,11,9,5],"shifted_pitches":[6,8,6,8,5,2,9,4,10,8,2,5,9,11,9,5],"swapped_pitches":[6,8,6,8,5,2,9,10,3,8,2,5,9,11,9,5],"shift_direction":1,"question_num":1,"has_decoy":false},{"rt":665.5999999940395,"stimulus":"[A] option 1, [L] option 2, [G] neither","key_press":76,"name":"choice","trial_type":"html-keyboard-response","trial_index":21,"time_elapsed":47218,"internal_node_id":"0.0-21.0","subject":"S1C1605","sona":"41406","block":6,"time":"2021-09-09T08:19:24.750Z","response":"2nd","certainty":"high","char":"L","transposition":-3,"order":["shifted","swapped"],"probe_pitches":[8,7,1,5,9,1,7,3,9,12,11,6,11,8,7,5],"shifted_pitches":[8,7,1,5,9,1,7,3,10,12,11,6,11,8,7,5],"swapped_pitches":[8,7,1,5,9,1,7,9,3,12,11,6,11,8,7,5],"shift_direction":1,"question_num":11,"has_decoy":false},{"rt":2835.7000000029802,"stimulus":"[A] option 1, [L] option 2, [G] neither","key_press":65,"name":"choice","trial_type":"html-keyboard-response","trial_index":32,"time_elapsed":72449,"internal_node_id":"0.0-32.0","subject":"S1C1605","sona":"41406","block":6,"time":"2021-09-09T08:19:24.750Z","response":"1st","certainty":"high","char":"A","transposition":-3,"order":["swapped","shifted"],"probe_pitches":[10,4,0,6,7,6,2,3,0,2,4,1,2,6,12,0],"shifted_pitches":[10,4,0,6,7,6,2,3,-1,2,4,1,2,6,12,0],"swapped_pitches":[10,4,0,6,7,6,2,0,3,2,4,1,2,6,12,0],"shift_direction":-1,"question_num":21,"has_decoy":false},{"rt":1396.199999988079,"stimulus":"[A] option 1, [L] option 2, [G] neither","key_press":65,"name":"choice","trial_type":"html-keyboard-response","trial_index":43,"time_elapsed":96249,"internal_node_id":"0.0-43.0","subject":"S1C1605","sona":"41406","block":6,"time":"2021-09-09T08:19:24.750Z","response":"1st","certainty":"high","char":"A","transposition":-3,"order":["shifted","swapped"],"probe_pitches":[7,2,-1,4,11,4,9,-1,7,4,-1,11,7,11,9,7],"shifted_pitches":[7,2,-1,4,11,4,9,-1,8,4,-1,11,7,11,9,7],"swapped_pitches":[7,2,-1,4,11,4,9,7,-1,4,-1,11,7,11,9,7],"shift_direction":1,"question_num":31,"has_decoy":false},{"rt":1403.0999999940395,"stimulus":"[A] option 1, [L] option 2, [G] neither","key_press":65,"name":"choice","trial_type":"html-keyboard-response","trial_index":54,"time_elapsed":120556,"internal_node_id":"0.0-54.0","subject":"S1C1605","sona":"41406","block":6,"time":"2021-09-09T08:19:24.750Z","response":"1st","certainty":"high","char":"A","transposition":-3,"order":["shifted","swapped"],"probe_pitches":[1,-1,6,8,6,8,1,3,-1,6,8,11,1,11,-1,8],"shifted_pitches":[1,-1,6,8,6,8,1,3,-2,6,8,11,1,11,-1,8],"swapped_pitches":[1,-1,6,8,6,8,1,-1,3,6,8,11,1,11,-1,8],"shift_direction":-1,"question_num":41,"has_decoy":false},{"rt":1608.5,"stimulus":"[A] option 1, [L] option 2, [G] neither","key_press":76,"name":"choice","trial_type":"html-keyboard-response","trial_index":65,"time_elapsed":144552,"internal_node_id":"0.0-65.0","subject":"S1C1605","sona":"41406","block":6,"time":"2021-09-09T08:19:24.750Z","response":"2nd","certainty":"high","char":"L","transposition":-1,"order":["swapped","shifted"],"probe_pitches":[10,8,6,2,0,1,11,2,8,10,0,2,3,2,4,0],"shifted_pitches":[10,8,6,2,0,1,11,2,7,10,0,2,3,2,4,0],"swapped_pitches":[10,8,6,2,0,1,11,8,2,10,0,2,3,2,4,0],"shift_direction":-1,"question_num":51,"has_decoy":false},{"rt":2334.2000000029802,"stimulus":"[A] option 1, [L] option 2, [G] neither","key_press":65,"name":"choice","trial_type":"html-keyboard-response","trial_index":76,"time_elapsed":169267,"internal_node_id":"0.0-76.0","subject":"S1C1605","sona":"41406","block":6,"time":"2021-09-09T08:19:24.750Z","response":"1st","certainty":"high","char":"A","transposition":3,"order":["shifted","swapped"],"probe_pitches":[1,6,8,1,8,11,8,1,-1,3,11,3,1,3,1,3],"shifted_pitches":[1,6,8,1,8,11,8,1,0,3,11,3,1,3,1,3],"swapped_pitches":[1,6,8,1,8,11,8,-1,1,3,11,3,1,3,1,3],"shift_direction":1,"question_num":61,"has_decoy":false},{"rt":2882.7000000029802,"stimulus":"[A] option 1, [L] option 2, [G] neither","key_press":76,"name":"choice","trial_type":"html-keyboard-response","trial_index":87,"time_elapsed":194555,"internal_node_id":"0.0-87.0","subject":"S1C1605","sona":"41406","block":6,"time":"2021-09-09T08:19:24.750Z","response":"2nd","certainty":"high","char":"L","transposition":2,"order":["swapped","shifted"],"probe_pitches":[-1,4,2,4,11,6,2,-1,11,2,4,-1,9,6,-1,6],"shifted_pitches":[-1,4,2,4,11,6,2,-1,10,2,4,-1,9,6,-1,6],"swapped_pitches":[-1,4,2,4,11,6,2,11,-1,2,4,-1,9,6,-1,6],"shift_direction":-1,"question_num":71,"has_decoy":false},{"rt":1325.9000000059605,"stimulus":"[A] option 1, [L] option 2, [G] neither","key_press":76,"name":"choice","trial_type":"html-keyboard-response","trial_index":98,"time_elapsed":218309,"internal_node_id":"0.0-98.0","subject":"S1C1605","sona":"41406","block":6,"time":"2021-09-09T08:19:24.750Z","response":"2nd","certainty":"high","char":"L","transposition":-1,"order":["shifted","swapped"],"probe_pitches":[1,4,1,6,1,4,11,6,9,11,1,11,4,11,4,1],"shifted_pitches":[1,4,1,6,1,4,11,6,10,11,1,11,4,11,4,1],"swapped_pitches":[1,4,1,6,1,4,11,9,6,11,1,11,4,11,4,1],"shift_direction":1,"question_num":81,"has_decoy":false},{"rt":4038.5,"stimulus":"[A] option 1, [L] option 2, [G] neither","key_press":65,"name":"choice","trial_type":"html-keyboard-response","trial_index":109,"time_elapsed":246231,"internal_node_id":"0.0-109.0","subject":"S1C1605","sona":"41406","block":6,"time":"2021-09-09T08:19:24.750Z","response":"1st","certainty":"high","char":"A","transposition":-2,"order":["shifted","swapped"],"probe_pitches":[2,7,8,1,0,2,3,7,0,1,8,9,10,11,10,0],"shifted_pitches":[2,7,8,1,0,2,3,6,0,1,8,9,10,11,10,0],"swapped_pitches":[2,7,8,1,0,2,3,0,7,1,8,9,10,11,10,0],"shift_direction":-1,"question_num":91,"has_decoy":false},{"rt":14315.800000011921,"stimulus":"[A] option 1, [L] option 2, [G] neither","key_press":76,"name":"choice","trial_type":"html-keyboard-response","trial_index":120,"time_elapsed":283548,"internal_node_id":"0.0-120.0","subject":"S1C1605","sona":"41406","block":6,"time":"2021-09-09T08:19:24.750Z","response":"2nd","certainty":"high","char":"L","transposition":-2,"order":["swapped","shifted"],"probe_pitches":[-1,4,1,8,11,8,-1,6,1,4,11,1,-1,6,8,1],"shifted_pitches":[-1,4,1,8,11,8,-1,5,1,4,11,1,-1,6,8,1],"swapped_pitches":[-1,4,1,8,11,8,-1,1,6,4,11,1,-1,6,8,1],"shift_direction":-1,"question_num":101,"has_decoy":false},{"rt":943.7999999970198,"stimulus":"[A] option 1, [L] option 2, [G] neither","key_press":76,"name":"choice","trial_type":"html-keyboard-response","trial_index":131,"time_elapsed":309946,"internal_node_id":"0.0-131.0","subject":"S1C1605","sona":"41406","block":6,"time":"2021-09-09T08:19:24.750Z","response":"2nd","certainty":"high","char":"L","transposition":0,"order":["shifted","swapped"],"probe_pitches":[12,8,9,6,9,7,0,1,12,0,3,4,8,1,10,6],"shifted_pitches":[12,8,9,6,9,7,0,2,12,0,3,4,8,1,10,6],"swapped_pitches":[12,8,9,6,9,7,0,12,1,0,3,4,8,1,10,6],"shift_direction":1,"question_num":111,"has_decoy":false},{"rt":2459.7000000029802,"stimulus":"[A] option 1, [L] option 2, [G] neither","key_press":65,"name":"choice","trial_type":"html-keyboard-response","trial_index":142,"time_elapsed":334832,"internal_node_id":"0.0-142.0","subject":"S1C1605","sona":"41406","block":6,"time":"2021-09-09T08:19:24.750Z","response":"1st","certainty":"high","char":"A","transposition":-1,"order":["swapped","shifted"],"probe_pitches":[2,4,7,9,4,-1,4,2,11,9,-1,11,7,9,4,2],"shifted_pitches":[2,4,7,9,4,-1,4,3,11,9,-1,11,7,9,4,2],"swapped_pitches":[2,4,7,9,4,-1,4,11,2,9,-1,11,7,9,4,2],"shift_direction":1,"question_num":121,"has_decoy":false},{"rt":1113.5,"stimulus":"[A] option 1, [L] option 2, [G] neither","key_press":76,"name":"choice","trial_type":"html-keyboard-response","trial_index":153,"time_elapsed":358416,"internal_node_id":"0.0-153.0","subject":"S1C1605","sona":"41406","block":6,"time":"2021-09-09T08:19:24.750Z","response":"2nd","certainty":"high","char":"L","transposition":1,"order":["shifted","swapped"],"probe_pitches":[11,8,12,8,0,3,2,8,10,4,1,7,3,6,5,10],"shifted_pitches":[11,8,12,8,0,3,2,9,10,4,1,7,3,6,5,10],"swapped_pitches":[11,8,12,8,0,3,2,10,8,4,1,7,3,6,5,10],"shift_direction":1,"question_num":131,"has_decoy":false},{"rt":777.8000000119209,"stimulus":"[A] option 1, [L] option 2, [G] neither","key_press":76,"name":"choice","trial_type":"html-keyboard-response","trial_index":164,"time_elapsed":381710,"internal_node_id":"0.0-164.0","subject":"S1C1605","sona":"41406","block":6,"time":"2021-09-09T08:19:24.750Z","response":"2nd","certainty":"high","char":"L","transposition":3,"order":["swapped","shifted"],"probe_pitches":[6,7,10,12,4,2,1,9,4,8,1,0,10,4,11,10],"shifted_pitches":[6,7,10,12,4,2,1,9,3,8,1,0,10,4,11,10],"swapped_pitches":[6,7,10,12,4,2,1,4,9,8,1,0,10,4,11,10],"shift_direction":-1,"question_num":141,"has_decoy":false},{"rt":1046.9000000059605,"stimulus":"[A] option 1, [L] option 2, [G] neither","key_press":71,"name":"choice","trial_type":"html-keyboard-response","trial_index":175,"time_elapsed":405280,"internal_node_id":"0.0-175.0","subject":"S1C1605","sona":"41406","block":6,"time":"2021-09-09T08:19:24.750Z","response":"neither","certainty":"high","char":"G","transposition":2,"order":["swapped","shifted"],"probe_pitches":[6,2,4,5,1,5,12,3,9,0,11,6,11,12,11,7],"shifted_pitches":[6,2,4,5,1,5,12,3,8,0,11,6,11,12,11,7],"swapped_pitches":[6,2,4,5,1,5,12,9,3,0,11,6,11,12,11,7],"shift_direction":-1,"question_num":151,"has_decoy":false},{"rt":3587.5,"stimulus":"[A] option 1, [L] option 2, [G] neither","key_press":76,"name":"choice","trial_type":"html-keyboard-response","trial_index":186,"time_elapsed":431270,"internal_node_id":"0.0-186.0","subject":"S1C1605","sona":"41406","block":6,"time":"2021-09-09T08:19:24.750Z","response":"2nd","certainty":"high","char":"L","transposition":-2,"order":["swapped","shifted"],"probe_pitches":[6,11,4,9,6,4,3,4,2,11,9,11,6,11,3,6],"shifted_pitches":[6,11,4,9,6,4,3,5,2,11,9,11,6,11,3,6],"swapped_pitches":[6,11,4,9,6,4,3,2,4,11,9,11,6,11,3,6],"shift_direction":1,"question_num":161,"has_decoy":false},{"rt":9949.70000000298,"stimulus":"[A] option 1, [L] option 2, [G] neither","key_press":65,"name":"choice","trial_type":"html-keyboard-response","trial_index":197,"time_elapsed":463803,"internal_node_id":"0.0-197.0","subject":"S1C1605","sona":"41406","block":6,"time":"2021-09-09T08:19:24.750Z","response":"1st","certainty":"high","char":"A","transposition":0,"order":["swapped","shifted"],"probe_pitches":[4,6,9,11,9,11,1,11,-1,1,6,11,9,-1,1,-1],"shifted_pitches":[4,6,9,11,9,11,1,10,-1,1,6,11,9,-1,1,-1],"swapped_pitches":[4,6,9,11,9,11,1,-1,11,1,6,11,9,-1,1,-1],"shift_direction":-1,"question_num":171,"has_decoy":false},{"rt":3106.7000000029802,"stimulus":"[A] option 1, [L] option 2, [G] neither","key_press":71,"name":"choice","trial_type":"html-keyboard-response","trial_index":208,"time_elapsed":490349,"internal_node_id":"0.0-208.0","subject":"S1C1605","sona":"41406","block":6,"time":"2021-09-09T08:19:24.750Z","response":"neither","certainty":"high","char":"G","transposition":1,"order":["shifted","swapped"],"probe_pitches":[4,8,6,1,8,4,-1,4,6,-1,11,-1,11,8,1,8],"shifted_pitches":[4,8,6,1,8,4,-1,3,6,-1,11,-1,11,8,1,8],"swapped_pitches":[4,8,6,1,8,4,-1,6,4,-1,11,-1,11,8,1,8],"shift_direction":-1,"question_num":181,"has_decoy":false},{"rt":1595.7000000029802,"stimulus":"[A] option 1, [L] option 2, [G] neither","key_press":65,"name":"choice","trial_type":"html-keyboard-response","trial_index":219,"time_elapsed":514444,"internal_node_id":"0.0-219.0","subject":"S1C1605","sona":"41406","block":6,"time":"2021-09-09T08:19:24.750Z","response":"1st","certainty":"high","char":"A","transposition":-2,"order":["swapped","shifted"],"probe_pitches":[2,6,4,11,4,9,2,11,9,2,-1,2,9,6,2,4],"shifted_pitches":[2,6,4,11,4,9,2,12,9,2,-1,2,9,6,2,4],"swapped_pitches":[2,6,4,11,4,9,2,9,11,2,-1,2,9,6,2,4],"shift_direction":1,"question_num":191,"has_decoy":false}]