[{"rt":1409.0999999940395,"stimulus":"[A] option 1, [L] option 2, [G] neither","key_press":76,"name":"choice","trial_type":"html-keyboard-response","trial_index":10,"time_elapsed":31871,"internal_node_id":"0.0-10.0","subject":"S1C1605","sona":"41406","block":3,"time":"2021-09-09T07:45:12.710Z","response":"2nd","certainty":"high","char":"L","transposition":-2,"order":["swapped","shifted"],"probe_pitches":[0,6,3,4,3,8,4,1,3,9,-2,3,6,5,1,4],"shifted_pitches":[0,6,3,4,3,8,4,2,3,9,-2,3,6,5,1,4],"swapped_pitches":[0,6,3,4,3,8,4,3,1,9,-2,3,6,5,1,4],"shift_direction":1,"question_num":1,"has_decoy":false},{"rt":648,"stimulus":"[A] option 1, [L] option 2, [G] neither","key_press":76,"name":"choice","trial_type":"html-keyboard-response","trial_index":21,"time_elapsed":54951,"internal_node_id":"0.0-21.0","subject":"S1C1605","sona":"41406","block":3,"time":"2021-09-09T07:45:12.710Z","response":"2nd","certainty":"high","char":"L","transposition":0,"order":["shifted","swapped"],"probe_pitches":[-1,-3,-1,1,3,7,1,9,6,-1,-3,3,6,9,-1,9],"shifted_pitches":[-1,-3,-1,1,3,7,1,9,5,-1,-3,3,6,9,-1,9],"swapped_pitches":[-1,-3,-1,1,3,7,1,6,9,-1,-3,3,6,9,-1,9],"shift_direction":-1,"question_num":11,"has_decoy":false},{"rt":2230.7000000029802,"stimulus":"[A] option 1, [L] option 2, [G] neither","key_press":71,"name":"choice","trial_type":"html-keyboard-response","trial_index":32,"time_elapsed":79613,"internal_node_id":"0.0-32.0","subject":"S1C1605","sona":"41406","block":3,"time":"2021-09-09T07:45:12.710Z","response":"neither","certainty":"high","char":"G","transposition":-1,"order":["shifted","swapped"],"probe_pitches":[14,11,9,2,6,9,14,2,4,6,9,11,4,2,14,6],"shifted_pitches":[14,11,9,2,6,9,14,1,4,6,9,11,4,2,14,6],"swapped_pitches":[14,11,9,2,6,9,14,4,2,6,9,11,4,2,14,6],"shift_direction":-1,"question_num":21,"has_decoy":false},{"rt":1375.199999988079,"stimulus":"[A] option 1, [L] option 2, [G] neither","key_press":76,"name":"choice","trial_type":"html-keyboard-response","trial_index":43,"time_elapsed":104777,"internal_node_id":"0.0-43.0","subject":"S1C1605","sona":"41406","block":3,"time":"2021-09-09T07:45:12.710Z","response":"2nd","certainty":"high","char":"L","transposition":-1,"order":["shifted","swapped"],"probe_pitches":[-1,-3,-1,6,3,0,1,7,9,4,-2,1,6,2,-1,4],"shifted_pitches":[-1,-3,-1,6,3,0,1,8,9,4,-2,1,6,2,-1,4],"swapped_pitches":[-1,-3,-1,6,3,0,1,9,7,4,-2,1,6,2,-1,4],"shift_direction":1,"question_num":31,"has_decoy":false},{"rt":2378.5,"stimulus":"[A] option 1, [L] option 2, [G] neither","key_press":65,"name":"choice","trial_type":"html-keyboard-response","trial_index":54,"time_elapsed":129731,"internal_node_id":"0.0-54.0","subject":"S1C1605","sona":"41406","block":3,"time":"2021-09-09T07:45:12.710Z","response":"1st","certainty":"high","char":"A","transposition":-3,"order":["shifted","swapped"],"probe_pitches":[9,11,14,7,9,2,4,7,11,4,11,4,9,11,9,2],"shifted_pitches":[9,11,14,7,9,2,4,8,11,4,11,4,9,11,9,2],"swapped_pitches":[9,11,14,7,9,2,4,11,7,4,11,4,9,11,9,2],"shift_direction":1,"question_num":41,"has_decoy":false},{"rt":4823.0999999940395,"stimulus":"[A] option 1, [L] option 2, [G] neither","key_press":76,"name":"choice","trial_type":"html-keyboard-response","trial_index":65,"time_elapsed":156976,"internal_node_id":"0.0-65.0","subject":"S1C1605","sona":"41406","block":3,"time":"2021-09-09T07:45:12.710Z","response":"2nd","certainty":"high","char":"L","transposition":0,"order":["shifted","swapped"],"probe_pitches":[9,14,11,14,9,4,2,4,9,11,14,6,2,9,2,4],"shifted_pitches":[9,14,11,14,9,4,2,4,8,11,14,6,2,9,2,4],"swapped_pitches":[9,14,11,14,9,4,2,9,4,11,14,6,2,9,2,4],"shift_direction":-1,"question_num":51,"has_decoy":false},{"rt":4118.0999999940395,"stimulus":"[A] option 1, [L] option 2, [G] neither","key_press":76,"name":"choice","trial_type":"html-keyboard-response","trial_index":76,"time_elapsed":183631,"internal_node_id":"0.0-76.0","subject":"S1C1605","sona":"41406","block":3,"time":"2021-09-09T07:45:12.710Z","response":"2nd","certainty":"high","char":"L","transposition":2,"order":["swapped","shifted"],"probe_pitches":[4,2,7,14,12,4,14,9,7,2,14,4,14,2,14,2],"shifted_pitches":[4,2,7,14,12,4,14,9,8,2,14,4,14,2,14,2],"swapped_pitches":[4,2,7,14,12,4,14,7,9,2,14,4,14,2,14,2],"shift_direction":1,"question_num":61,"has_decoy":false},{"rt":2281.7999999970198,"stimulus":"[A] option 1, [L] option 2, [G] neither","key_press":65,"name":"choice","trial_type":"html-keyboard-response","trial_index":87,"time_elapsed":208554,"internal_node_id":"0.0-87.0","subject":"S1C1605","sona":"41406","block":3,"time":"2021-09-09T07:45:12.710Z","response":"1st","certainty":"high","char":"A","transposition":1,"order":["shifted","swapped"],"probe_pitches":[14,10,12,5,10,5,7,5,2,10,7,12,5,10,5,12],"shifted_pitches":[14,10,12,5,10,5,7,6,2,10,7,12,5,10,5,12],"swapped_pitches":[14,10,12,5,10,5,7,2,5,10,7,12,5,10,5,12],"shift_direction":1,"question_num":71,"has_decoy":false},{"rt":1661.0999999940395,"stimulus":"[A] option 1, [L] option 2, [G] neither","key_press":65,"name":"choice","trial_type":"html-keyboard-response","trial_index":98,"time_elapsed":232773,"internal_node_id":"0.0-98.0","subject":"S1C1605","sona":"41406","block":3,"time":"2021-09-09T07:45:12.710Z","response":"1st","certainty":"high","char":"A","transposition":-1,"order":["swapped","shifted"],"probe_pitches":[7,2,9,4,11,2,4,11,7,14,7,14,4,7,11,14],"shifted_pitches":[7,2,9,4,11,2,4,11,6,14,7,14,4,7,11,14],"swapped_pitches":[7,2,9,4,11,2,4,7,11,14,7,14,4,7,11,14],"shift_direction":-1,"question_num":81,"has_decoy":false},{"rt":1469.3999999910593,"stimulus":"[A] option 1, [L] option 2, [G] neither","key_press":76,"name":"choice","trial_type":"html-keyboard-response","trial_index":109,"time_elapsed":257902,"internal_node_id":"0.0-109.0","subject":"S1C1605","sona":"41406","block":3,"time":"2021-09-09T07:45:12.710Z","response":"2nd","certainty":"high","char":"L","transposition":-1,"order":["shifted","swapped"],"probe_pitches":[-3,1,-3,3,7,0,7,-1,5,-2,-3,2,6,8,0,7],"shifted_pitches":[-3,1,-3,3,7,0,7,-1,4,-2,-3,2,6,8,0,7],"swapped_pitches":[-3,1,-3,3,7,0,7,5,-1,-2,-3,2,6,8,0,7],"shift_direction":-1,"question_num":91,"has_decoy":false},{"rt":1908.2999999970198,"stimulus":"[A] option 1, [L] option 2, [G] neither","key_press":65,"name":"choice","trial_type":"html-keyboard-response","trial_index":120,"time_elapsed":282961,"internal_node_id":"0.0-120.0","subject":"S1C1605","sona":"41406","block":3,"time":"2021-09-09T07:45:12.710Z","response":"1st","certainty":"high","char":"A","transposition":-3,"order":["shifted","swapped"],"probe_pitches":[9,3,1,5,6,7,6,0,9,2,5,8,7,8,2,1],"shifted_pitches":[9,3,1,5,6,7,6,-1,9,2,5,8,7,8,2,1],"swapped_pitches":[9,3,1,5,6,7,6,9,0,2,5,8,7,8,2,1],"shift_direction":-1,"question_num":101,"has_decoy":false},{"rt":2874.7000000029802,"stimulus":"[A] option 1, [L] option 2, [G] neither","key_press":71,"name":"choice","trial_type":"html-keyboard-response","trial_index":131,"time_elapsed":308437,"internal_node_id":"0.0-131.0","subject":"S1C1605","sona":"41406","block":3,"time":"2021-09-09T07:45:12.710Z","response":"neither","certainty":"high","char":"G","transposition":2,"order":["shifted","swapped"],"probe_pitches":[7,4,9,6,7,0,-1,0,5,9,7,8,3,5,0,2],"shifted_pitches":[7,4,9,6,7,0,-1,1,5,9,7,8,3,5,0,2],"swapped_pitches":[7,4,9,6,7,0,-1,5,0,9,7,8,3,5,0,2],"shift_direction":1,"question_num":111,"has_decoy":false},{"rt":1824.800000011921,"stimulus":"[A] option 1, [L] option 2, [G] neither","key_press":76,"name":"choice","trial_type":"html-keyboard-response","trial_index":142,"time_elapsed":334518,"internal_node_id":"0.0-142.0","subject":"S1C1605","sona":"41406","block":3,"time":"2021-09-09T07:45:12.710Z","response":"2nd","certainty":"high","char":"L","transposition":-2,"order":["swapped","shifted"],"probe_pitches":[7,9,12,5,7,12,9,14,7,9,14,12,14,5,14,2],"shifted_pitches":[7,9,12,5,7,12,9,14,6,9,14,12,14,5,14,2],"swapped_pitches":[7,9,12,5,7,12,9,7,14,9,14,12,14,5,14,2],"shift_direction":-1,"question_num":121,"has_decoy":false},{"rt":1626.5999999940395,"stimulus":"[A] option 1, [L] option 2, [G] neither","key_press":76,"name":"choice","trial_type":"html-keyboard-response","trial_index":153,"time_elapsed":358790,"internal_node_id":"0.0-153.0","subject":"S1C1605","sona":"41406","block":3,"time":"2021-09-09T07:45:12.710Z","response":"2nd","certainty":"high","char":"L","transposition":3,"order":["swapped","shifted"],"probe_pitches":[5,7,14,12,5,14,5,2,7,12,9,14,12,7,9,12],"shifted_pitches":[5,7,14,12,5,14,5,1,7,12,9,14,12,7,9,12],"swapped_pitches":[5,7,14,12,5,14,5,7,2,12,9,14,12,7,9,12],"shift_direction":-1,"question_num":131,"has_decoy":false},{"rt":3279.5999999940395,"stimulus":"[A] option 1, [L] option 2, [G] neither","key_press":76,"name":"choice","trial_type":"html-keyboard-response","trial_index":164,"time_elapsed":384762,"internal_node_id":"0.0-164.0","subject":"S1C1605","sona":"41406","block":3,"time":"2021-09-09T07:45:12.710Z","response":"2nd","certainty":"high","char":"L","transposition":-3,"order":["swapped","shifted"],"probe_pitches":[4,9,14,12,4,7,4,12,2,9,12,9,14,9,7,12],"shifted_pitches":[4,9,14,12,4,7,4,13,2,9,12,9,14,9,7,12],"swapped_pitches":[4,9,14,12,4,7,4,2,12,9,12,9,14,9,7,12],"shift_direction":1,"question_num":141,"has_decoy":false},{"rt":882,"stimulus":"[A] option 1, [L] option 2, [G] neither","key_press":65,"name":"choice","trial_type":"html-keyboard-response","trial_index":175,"time_elapsed":408964,"internal_node_id":"0.0-175.0","subject":"S1C1605","sona":"41406","block":3,"time":"2021-09-09T07:45:12.710Z","response":"1st","certainty":"high","char":"A","transposition":-2,"order":["swapped","shifted"],"probe_pitches":[0,-3,-1,3,-3,4,3,7,5,8,2,-2,-3,-1,7,-1],"shifted_pitches":[0,-3,-1,3,-3,4,3,6,5,8,2,-2,-3,-1,7,-1],"swapped_pitches":[0,-3,-1,3,-3,4,3,5,7,8,2,-2,-3,-1,7,-1],"shift_direction":-1,"question_num":151,"has_decoy":false},{"rt":1737,"stimulus":"[A] option 1, [L] option 2, [G] neither","key_press":65,"name":"choice","trial_type":"html-keyboard-response","trial_index":186,"time_elapsed":433310,"internal_node_id":"0.0-186.0","subject":"S1C1605","sona":"41406","block":3,"time":"2021-09-09T07:45:12.710Z","response":"1st","certainty":"high","char":"A","transposition":-2,"order":["shifted","swapped"],"probe_pitches":[14,12,14,10,5,2,7,14,10,12,14,2,14,10,2,12],"shifted_pitches":[14,12,14,10,5,2,7,14,11,12,14,2,14,10,2,12],"swapped_pitches":[14,12,14,10,5,2,7,10,14,12,14,2,14,10,2,12],"shift_direction":1,"question_num":161,"has_decoy":false},{"rt":2254.0999999940395,"stimulus":"[A] option 1, [L] option 2, [G] neither","key_press":76,"name":"choice","trial_type":"html-keyboard-response","trial_index":197,"time_elapsed":458596,"internal_node_id":"0.0-197.0","subject":"S1C1605","sona":"41406","block":3,"time":"2021-09-09T07:45:12.710Z","response":"2nd","certainty":"high","char":"L","transposition":1,"order":["swapped","shifted"],"probe_pitches":[6,7,2,4,5,7,9,-3,-1,1,7,-2,-1,4,1,3],"shifted_pitches":[6,7,2,4,5,7,9,-3,0,1,7,-2,-1,4,1,3],"swapped_pitches":[6,7,2,4,5,7,9,-1,-3,1,7,-2,-1,4,1,3],"shift_direction":1,"question_num":171,"has_decoy":false},{"rt":3928.4000000059605,"stimulus":"[A] option 1, [L] option 2, [G] neither","key_press":71,"name":"choice","trial_type":"html-keyboard-response","trial_index":208,"time_elapsed":485371,"internal_node_id":"0.0-208.0","subject":"S1C1605","sona":"41406","block":3,"time":"2021-09-09T07:45:12.710Z","response":"neither","certainty":"high","char":"G","transposition":-3,"order":["swapped","shifted"],"probe_pitches":[6,0,6,0,4,-3,0,7,2,6,9,5,-1,8,-3,5],"shifted_pitches":[6,0,6,0,4,-3,0,7,3,6,9,5,-1,8,-3,5],"swapped_pitches":[6,0,6,0,4,-3,0,2,7,6,9,5,-1,8,-3,5],"shift_direction":1,"question_num":181,"has_decoy":false},{"rt":1414.2000000029802,"stimulus":"[A] option 1, [L] option 2, [G] neither","key_press":76,"name":"choice","trial_type":"html-keyboard-response","trial_index":219,"time_elapsed":512727,"internal_node_id":"0.0-219.0","subject":"S1C1605","sona":"41406","block":3,"time":"2021-09-09T07:45:12.710Z","response":"2nd","certainty":"high","char":"L","transposition":3,"order":["swapped","shifted"],"probe_pitches":[-1,1,5,8,3,8,-1,5,8,-1,-3,3,-1,3,-2,1],"shifted_pitches":[-1,1,5,8,3,8,-1,5,7,-1,-3,3,-1,3,-2,1],"swapped_pitches":[-1,1,5,8,3,8,-1,8,5,-1,-3,3,-1,3,-2,1],"shift_direction":-1,"question_num":191,"has_decoy":false}]