[{"rt":1347.7999999970198,"stimulus":"[A] option 1, [L] option 2, [G] neither","key_press":76,"name":"choice","trial_type":"html-keyboard-response","trial_index":10,"time_elapsed":30525,"internal_node_id":"0.0-10.0","subject":"S1C1605","sona":"41406","block":4,"time":"2021-09-09T07:54:18.241Z","response":"2nd","certainty":"high","char":"L","transposition":-2,"order":["swapped","shifted"],"probe_pitches":[10,4,3,5,8,11,5,6,11,9,3,9,7,9,10,9],"shifted_pitches":[10,4,3,5,8,11,5,6,12,9,3,9,7,9,10,9],"swapped_pitches":[10,4,3,5,8,11,5,11,6,9,3,9,7,9,10,9],"shift_direction":1,"question_num":1,"has_decoy":false},{"rt":4084.699999988079,"stimulus":"[A] option 1, [L] option 2, [G] neither","key_press":76,"name":"choice","trial_type":"html-keyboard-response","trial_index":21,"time_elapsed":56986,"internal_node_id":"0.0-21.0","subject":"S1C1605","sona":"41406","block":4,"time":"2021-09-09T07:54:18.241Z","response":"2nd","certainty":"high","char":"L","transposition":-1,"order":["shifted","swapped"],"probe_pitches":[6,1,7,5,13,12,5,7,13,3,1,13,4,10,5,7],"shifted_pitches":[6,1,7,5,13,12,5,8,13,3,1,13,4,10,5,7],"swapped_pitches":[6,1,7,5,13,12,5,13,7,3,1,13,4,10,5,7],"shift_direction":1,"question_num":11,"has_decoy":false},{"rt":2662.699999988079,"stimulus":"[A] option 1, [L] option 2, [G] neither","key_press":76,"name":"choice","trial_type":"html-keyboard-response","trial_index":32,"time_elapsed":82154,"internal_node_id":"0.0-32.0","subject":"S1C1605","sona":"41406","block":4,"time":"2021-09-09T07:54:18.241Z","response":"2nd","certainty":"high","char":"L","transposition":-2,"order":["swapped","shifted"],"probe_pitches":[11,8,6,-1,6,-1,4,6,1,4,8,4,-1,11,-1,4],"shifted_pitches":[11,8,6,-1,6,-1,4,7,1,4,8,4,-1,11,-1,4],"swapped_pitches":[11,8,6,-1,6,-1,4,1,6,4,8,4,-1,11,-1,4],"shift_direction":1,"question_num":21,"has_decoy":false},{"rt":1256.2999999970198,"stimulus":"[A] option 1, [L] option 2, [G] neither","key_press":76,"name":"choice","trial_type":"html-keyboard-response","trial_index":43,"time_elapsed":106218,"internal_node_id":"0.0-43.0","subject":"S1C1605","sona":"41406","block":4,"time":"2021-09-09T07:54:18.241Z","response":"2nd","certainty":"high","char":"L","transposition":2,"order":["swapped","shifted"],"probe_pitches":[11,6,1,4,11,1,9,11,-1,6,9,-1,1,6,-1,6],"shifted_pitches":[11,6,1,4,11,1,9,11,0,6,9,-1,1,6,-1,6],"swapped_pitches":[11,6,1,4,11,1,9,-1,11,6,9,-1,1,6,-1,6],"shift_direction":1,"question_num":31,"has_decoy":false},{"rt":1449.2000000029802,"stimulus":"[A] option 1, [L] option 2, [G] neither","key_press":65,"name":"choice","trial_type":"html-keyboard-response","trial_index":54,"time_elapsed":130187,"internal_node_id":"0.0-54.0","subject":"S1C1605","sona":"41406","block":4,"time":"2021-09-09T07:54:18.241Z","response":"1st","certainty":"high","char":"A","transposition":-3,"order":["shifted","swapped"],"probe_pitches":[9,11,6,9,2,-1,4,9,11,-1,9,4,2,11,4,-1],"shifted_pitches":[9,11,6,9,2,-1,4,9,12,-1,9,4,2,11,4,-1],"swapped_pitches":[9,11,6,9,2,-1,4,11,9,-1,9,4,2,11,4,-1],"shift_direction":1,"question_num":41,"has_decoy":false},{"rt":1827.2999999970198,"stimulus":"[A] option 1, [L] option 2, [G] neither","key_press":65,"name":"choice","trial_type":"html-keyboard-response","trial_index":65,"time_elapsed":154425,"internal_node_id":"0.0-65.0","subject":"S1C1605","sona":"41406","block":4,"time":"2021-09-09T07:54:18.241Z","response":"1st","certainty":"high","char":"A","transposition":2,"order":["swapped","shifted"],"probe_pitches":[3,7,9,12,13,9,8,6,7,4,8,9,11,12,4,11],"shifted_pitches":[3,7,9,12,13,9,8,5,7,4,8,9,11,12,4,11],"swapped_pitches":[3,7,9,12,13,9,8,7,6,4,8,9,11,12,4,11],"shift_direction":-1,"question_num":51,"has_decoy":false},{"rt":4755.70000000298,"stimulus":"[A] option 1, [L] option 2, [G] neither","key_press":76,"name":"choice","trial_type":"html-keyboard-response","trial_index":76,"time_elapsed":181628,"internal_node_id":"0.0-76.0","subject":"S1C1605","sona":"41406","block":4,"time":"2021-09-09T07:54:18.241Z","response":"2nd","certainty":"high","char":"L","transposition":1,"order":["swapped","shifted"],"probe_pitches":[12,6,9,7,10,1,12,10,5,6,3,2,6,5,10,5],"shifted_pitches":[12,6,9,7,10,1,12,10,4,6,3,2,6,5,10,5],"swapped_pitches":[12,6,9,7,10,1,12,5,10,6,3,2,6,5,10,5],"shift_direction":-1,"question_num":61,"has_decoy":false},{"rt":4985.5,"stimulus":"[A] option 1, [L] option 2, [G] neither","key_press":65,"name":"choice","trial_type":"html-keyboard-response","trial_index":87,"time_elapsed":210028,"internal_node_id":"0.0-87.0","subject":"S1C1605","sona":"41406","block":4,"time":"2021-09-09T07:54:18.241Z","response":"1st","certainty":"high","char":"A","transposition":-1,"order":["shifted","swapped"],"probe_pitches":[11,9,2,9,7,9,7,2,11,-1,4,-1,2,-1,4,-1],"shifted_pitches":[11,9,2,9,7,9,7,2,10,-1,4,-1,2,-1,4,-1],"swapped_pitches":[11,9,2,9,7,9,7,11,2,-1,4,-1,2,-1,4,-1],"shift_direction":-1,"question_num":71,"has_decoy":false},{"rt":1040,"stimulus":"[A] option 1, [L] option 2, [G] neither","key_press":76,"name":"choice","trial_type":"html-keyboard-response","trial_index":98,"time_elapsed":234273,"internal_node_id":"0.0-98.0","subject":"S1C1605","sona":"41406","block":4,"time":"2021-09-09T07:54:18.241Z","response":"2nd","certainty":"high","char":"L","transposition":0,"order":["swapped","shifted"],"probe_pitches":[1,7,1,5,4,13,5,8,1,6,2,13,3,10,1,8],"shifted_pitches":[1,7,1,5,4,13,5,9,1,6,2,13,3,10,1,8],"swapped_pitches":[1,7,1,5,4,13,5,1,8,6,2,13,3,10,1,8],"shift_direction":1,"question_num":81,"has_decoy":false},{"rt":1797.800000011921,"stimulus":"[A] option 1, [L] option 2, [G] neither","key_press":76,"name":"choice","trial_type":"html-keyboard-response","trial_index":109,"time_elapsed":259075,"internal_node_id":"0.0-109.0","subject":"S1C1605","sona":"41406","block":4,"time":"2021-09-09T07:54:18.241Z","response":"2nd","certainty":"high","char":"L","transposition":-3,"order":["shifted","swapped"],"probe_pitches":[8,4,8,1,2,10,3,12,8,13,10,3,6,9,11,4],"shifted_pitches":[8,4,8,1,2,10,3,12,7,13,10,3,6,9,11,4],"swapped_pitches":[8,4,8,1,2,10,3,8,12,13,10,3,6,9,11,4],"shift_direction":-1,"question_num":91,"has_decoy":false},{"rt":1064.8999999910593,"stimulus":"[A] option 1, [L] option 2, [G] neither","key_press":65,"name":"choice","trial_type":"html-keyboard-response","trial_index":120,"time_elapsed":283483,"internal_node_id":"0.0-120.0","subject":"S1C1605","sona":"41406","block":4,"time":"2021-09-09T07:54:18.241Z","response":"1st","certainty":"high","char":"A","transposition":-3,"order":["swapped","shifted"],"probe_pitches":[9,11,6,1,6,1,4,1,11,9,-1,11,6,1,11,9],"shifted_pitches":[9,11,6,1,6,1,4,0,11,9,-1,11,6,1,11,9],"swapped_pitches":[9,11,6,1,6,1,4,11,1,9,-1,11,6,1,11,9],"shift_direction":-1,"question_num":101,"has_decoy":false},{"rt":30988.90000000596,"stimulus":"[A] option 1, [L] option 2, [G] neither","key_press":76,"name":"choice","trial_type":"html-keyboard-response","trial_index":131,"time_elapsed":337156,"internal_node_id":"0.0-131.0","subject":"S1C1605","sona":"41406","block":4,"time":"2021-09-09T07:54:18.241Z","response":"2nd","certainty":"high","char":"L","transposition":-3,"order":["swapped","shifted"],"probe_pitches":[10,9,10,11,2,9,7,5,9,3,4,2,13,7,11,1],"shifted_pitches":[10,9,10,11,2,9,7,6,9,3,4,2,13,7,11,1],"swapped_pitches":[10,9,10,11,2,9,7,9,5,3,4,2,13,7,11,1],"shift_direction":1,"question_num":111,"has_decoy":false},{"rt":1455.2999999970198,"stimulus":"[A] option 1, [L] option 2, [G] neither","key_press":65,"name":"choice","trial_type":"html-keyboard-response","trial_index":142,"time_elapsed":361652,"internal_node_id":"0.0-142.0","subject":"S1C1605","sona":"41406","block":4,"time":"2021-09-09T07:54:18.241Z","response":"1st","certainty":"high","char":"A","transposition":-2,"order":["shifted","swapped"],"probe_pitches":[8,7,6,3,5,8,13,7,10,2,7,6,8,13,2,3],"shifted_pitches":[8,7,6,3,5,8,13,7,11,2,7,6,8,13,2,3],"swapped_pitches":[8,7,6,3,5,8,13,10,7,2,7,6,8,13,2,3],"shift_direction":1,"question_num":121,"has_decoy":false},{"rt":1290.0999999940395,"stimulus":"[A] option 1, [L] option 2, [G] neither","key_press":76,"name":"choice","trial_type":"html-keyboard-response","trial_index":153,"time_elapsed":385538,"internal_node_id":"0.0-153.0","subject":"S1C1605","sona":"41406","block":4,"time":"2021-09-09T07:54:18.241Z","response":"2nd","certainty":"high","char":"L","transposition":-1,"order":["shifted","swapped"],"probe_pitches":[7,10,8,4,2,11,12,4,11,12,7,9,11,9,8,7],"shifted_pitches":[7,10,8,4,2,11,12,3,11,12,7,9,11,9,8,7],"swapped_pitches":[7,10,8,4,2,11,12,11,4,12,7,9,11,9,8,7],"shift_direction":-1,"question_num":131,"has_decoy":false},{"rt":1069.8999999910593,"stimulus":"[A] option 1, [L] option 2, [G] neither","key_press":76,"name":"choice","trial_type":"html-keyboard-response","trial_index":164,"time_elapsed":409037,"internal_node_id":"0.0-164.0","subject":"S1C1605","sona":"41406","block":4,"time":"2021-09-09T07:54:18.241Z","response":"2nd","certainty":"high","char":"L","transposition":1,"order":["shifted","swapped"],"probe_pitches":[8,4,6,4,11,6,11,1,8,4,8,6,1,11,8,-1],"shifted_pitches":[8,4,6,4,11,6,11,0,8,4,8,6,1,11,8,-1],"swapped_pitches":[8,4,6,4,11,6,11,8,1,4,8,6,1,11,8,-1],"shift_direction":-1,"question_num":141,"has_decoy":false},{"rt":3422,"stimulus":"[A] option 1, [L] option 2, [G] neither","key_press":65,"name":"choice","trial_type":"html-keyboard-response","trial_index":175,"time_elapsed":435989,"internal_node_id":"0.0-175.0","subject":"S1C1605","sona":"41406","block":4,"time":"2021-09-09T07:54:18.241Z","response":"1st","certainty":"high","char":"A","transposition":-2,"order":["swapped","shifted"],"probe_pitches":[7,2,4,9,2,7,-1,4,2,7,2,7,9,7,2,9],"shifted_pitches":[7,2,4,9,2,7,-1,3,2,7,2,7,9,7,2,9],"swapped_pitches":[7,2,4,9,2,7,-1,2,4,7,2,7,9,7,2,9],"shift_direction":-1,"question_num":151,"has_decoy":false},{"rt":3102.2000000029802,"stimulus":"[A] option 1, [L] option 2, [G] neither","key_press":76,"name":"choice","trial_type":"html-keyboard-response","trial_index":186,"time_elapsed":462500,"internal_node_id":"0.0-186.0","subject":"S1C1605","sona":"41406","block":4,"time":"2021-09-09T07:54:18.241Z","response":"2nd","certainty":"high","char":"L","transposition":0,"order":["shifted","swapped"],"probe_pitches":[-1,1,8,6,8,1,3,1,11,6,-1,6,-1,1,-1,11],"shifted_pitches":[-1,1,8,6,8,1,3,1,12,6,-1,6,-1,1,-1,11],"swapped_pitches":[-1,1,8,6,8,1,3,11,1,6,-1,6,-1,1,-1,11],"shift_direction":1,"question_num":161,"has_decoy":false},{"rt":1010.1000000089407,"stimulus":"[A] option 1, [L] option 2, [G] neither","key_press":76,"name":"choice","trial_type":"html-keyboard-response","trial_index":197,"time_elapsed":486227,"internal_node_id":"0.0-197.0","subject":"S1C1605","sona":"41406","block":4,"time":"2021-09-09T07:54:18.241Z","response":"2nd","certainty":"high","char":"L","transposition":-1,"order":["swapped","shifted"],"probe_pitches":[3,8,6,-1,8,1,-1,6,3,1,8,3,6,1,11,6],"shifted_pitches":[3,8,6,-1,8,1,-1,7,3,1,8,3,6,1,11,6],"swapped_pitches":[3,8,6,-1,8,1,-1,3,6,1,8,3,6,1,11,6],"shift_direction":1,"question_num":171,"has_decoy":false},{"rt":1050,"stimulus":"[A] option 1, [L] option 2, [G] neither","key_press":65,"name":"choice","trial_type":"html-keyboard-response","trial_index":208,"time_elapsed":511637,"internal_node_id":"0.0-208.0","subject":"S1C1605","sona":"41406","block":4,"time":"2021-09-09T07:54:18.241Z","response":"1st","certainty":"high","char":"A","transposition":3,"order":["shifted","swapped"],"probe_pitches":[2,-1,6,4,11,2,-1,9,4,-1,9,4,11,9,-1,6],"shifted_pitches":[2,-1,6,4,11,2,-1,9,3,-1,9,4,11,9,-1,6],"swapped_pitches":[2,-1,6,4,11,2,-1,4,9,-1,9,4,11,9,-1,6],"shift_direction":-1,"question_num":181,"has_decoy":false},{"rt":1192.5,"stimulus":"[A] option 1, [L] option 2, [G] neither","key_press":76,"name":"choice","trial_type":"html-keyboard-response","trial_index":219,"time_elapsed":535339,"internal_node_id":"0.0-219.0","subject":"S1C1605","sona":"41406","block":4,"time":"2021-09-09T07:54:18.241Z","response":"2nd","certainty":"high","char":"L","transposition":3,"order":["shifted","swapped"],"probe_pitches":[8,6,9,4,1,9,12,7,11,4,3,9,6,8,3,12],"shifted_pitches":[8,6,9,4,1,9,12,7,10,4,3,9,6,8,3,12],"swapped_pitches":[8,6,9,4,1,9,12,11,7,4,3,9,6,8,3,12],"shift_direction":-1,"question_num":191,"has_decoy":false}]