[{"rt":264,"stimulus":"[A] option 1, [L] option 2, [G] neither","key_press":76,"name":"choice","trial_type":"html-keyboard-response","trial_index":10,"time_elapsed":24695,"internal_node_id":"0.0-10.0","subject":"S1C1651","sona":"41484","block":4,"time":"2021-09-22T01:57:24.800Z","response":"2nd","certainty":"high","char":"L","transposition":-2,"order":["swapped","shifted"],"probe_pitches":[6,5,2,9,3,6,3,8,5,-1,5,9,-2,0,8,2],"shifted_pitches":[6,5,2,9,3,6,3,7,5,-1,5,9,-2,0,8,2],"swapped_pitches":[6,5,2,9,3,6,3,5,8,-1,5,9,-2,0,8,2],"shift_direction":-1,"question_num":1,"has_decoy":false},{"rt":411,"stimulus":"[A] option 1, [L] option 2, [G] neither","key_press":76,"name":"choice","trial_type":"html-keyboard-response","trial_index":21,"time_elapsed":47490,"internal_node_id":"0.0-21.0","subject":"S1C1651","sona":"41484","block":4,"time":"2021-09-22T01:57:24.800Z","response":"2nd","certainty":"high","char":"L","transposition":-1,"order":["swapped","shifted"],"probe_pitches":[13,10,5,3,5,1,5,10,13,5,13,8,10,1,5,13],"shifted_pitches":[13,10,5,3,5,1,5,10,14,5,13,8,10,1,5,13],"swapped_pitches":[13,10,5,3,5,1,5,13,10,5,13,8,10,1,5,13],"shift_direction":1,"question_num":11,"has_decoy":false},{"rt":1116,"stimulus":"[A] option 1, [L] option 2, [G] neither","key_press":65,"name":"choice","trial_type":"html-keyboard-response","trial_index":32,"time_elapsed":109418,"internal_node_id":"0.0-32.0","subject":"S1C1651","sona":"41484","block":4,"time":"2021-09-22T01:57:24.800Z","response":"1st","certainty":"high","char":"A","transposition":3,"order":["swapped","shifted"],"probe_pitches":[2,8,1,-2,0,-2,1,4,-2,-3,0,6,1,9,6,-1],"shifted_pitches":[2,8,1,-2,0,-2,1,3,-2,-3,0,6,1,9,6,-1],"swapped_pitches":[2,8,1,-2,0,-2,1,-2,4,-3,0,6,1,9,6,-1],"shift_direction":-1,"question_num":21,"has_decoy":false},{"rt":914.7999999970198,"stimulus":"[A] option 1, [L] option 2, [G] neither","key_press":65,"name":"choice","trial_type":"html-keyboard-response","trial_index":43,"time_elapsed":132657,"internal_node_id":"0.0-43.0","subject":"S1C1651","sona":"41484","block":4,"time":"2021-09-22T01:57:24.800Z","response":"1st","certainty":"high","char":"A","transposition":3,"order":["swapped","shifted"],"probe_pitches":[4,6,1,4,9,6,13,4,9,13,6,13,9,11,4,11],"shifted_pitches":[4,6,1,4,9,6,13,5,9,13,6,13,9,11,4,11],"swapped_pitches":[4,6,1,4,9,6,13,9,4,13,6,13,9,11,4,11],"shift_direction":1,"question_num":31,"has_decoy":false},{"rt":20.200000002980232,"stimulus":"[A] option 1, [L] option 2, [G] neither","key_press":76,"name":"choice","trial_type":"html-keyboard-response","trial_index":54,"time_elapsed":155011,"internal_node_id":"0.0-54.0","subject":"S1C1651","sona":"41484","block":4,"time":"2021-09-22T01:57:24.800Z","response":"2nd","certainty":"high","char":"L","transposition":2,"order":["swapped","shifted"],"probe_pitches":[8,13,8,3,5,13,3,13,8,3,5,1,10,13,3,10],"shifted_pitches":[8,13,8,3,5,13,3,12,8,3,5,1,10,13,3,10],"swapped_pitches":[8,13,8,3,5,13,3,8,13,3,5,1,10,13,3,10],"shift_direction":-1,"question_num":41,"has_decoy":false},{"rt":413.8999999910593,"stimulus":"[A] option 1, [L] option 2, [G] neither","key_press":65,"name":"choice","trial_type":"html-keyboard-response","trial_index":65,"time_elapsed":177886,"internal_node_id":"0.0-65.0","subject":"S1C1651","sona":"41484","block":4,"time":"2021-09-22T01:57:24.800Z","response":"1st","certainty":"high","char":"A","transposition":-3,"order":["swapped","shifted"],"probe_pitches":[4,0,-1,0,-3,0,-2,4,7,1,0,6,-2,3,-1,-2],"shifted_pitches":[4,0,-1,0,-3,0,-2,4,8,1,0,6,-2,3,-1,-2],"swapped_pitches":[4,0,-1,0,-3,0,-2,7,4,1,0,6,-2,3,-1,-2],"shift_direction":1,"question_num":51,"has_decoy":false},{"rt":393.20000000298023,"stimulus":"[A] option 1, [L] option 2, [G] neither","key_press":76,"name":"choice","trial_type":"html-keyboard-response","trial_index":76,"time_elapsed":201214,"internal_node_id":"0.0-76.0","subject":"S1C1651","sona":"41484","block":4,"time":"2021-09-22T01:57:24.800Z","response":"2nd","certainty":"high","char":"L","transposition":-2,"order":["shifted","swapped"],"probe_pitches":[1,4,8,6,-2,3,5,7,0,2,4,-2,6,-3,9,4],"shifted_pitches":[1,4,8,6,-2,3,5,7,-1,2,4,-2,6,-3,9,4],"swapped_pitches":[1,4,8,6,-2,3,5,0,7,2,4,-2,6,-3,9,4],"shift_direction":-1,"question_num":61,"has_decoy":false},{"rt":117.5,"stimulus":"[A] option 1, [L] option 2, [G] neither","key_press":76,"name":"choice","trial_type":"html-keyboard-response","trial_index":87,"time_elapsed":223880,"internal_node_id":"0.0-87.0","subject":"S1C1651","sona":"41484","block":4,"time":"2021-09-22T01:57:24.800Z","response":"2nd","certainty":"high","char":"L","transposition":-3,"order":["shifted","swapped"],"probe_pitches":[1,3,6,3,6,3,11,6,13,8,3,1,6,13,1,13],"shifted_pitches":[1,3,6,3,6,3,11,5,13,8,3,1,6,13,1,13],"swapped_pitches":[1,3,6,3,6,3,11,13,6,8,3,1,6,13,1,13],"shift_direction":-1,"question_num":71,"has_decoy":false},{"rt":4602.9000000059605,"stimulus":"[A] option 1, [L] option 2, [G] neither","key_press":76,"name":"choice","trial_type":"html-keyboard-response","trial_index":98,"time_elapsed":251384,"internal_node_id":"0.0-98.0","subject":"S1C1651","sona":"41484","block":4,"time":"2021-09-22T01:57:24.800Z","response":"2nd","certainty":"high","char":"L","transposition":-1,"order":["shifted","swapped"],"probe_pitches":[0,2,9,7,5,-2,3,7,5,2,1,-3,5,-3,-2,8],"shifted_pitches":[0,2,9,7,5,-2,3,7,6,2,1,-3,5,-3,-2,8],"swapped_pitches":[0,2,9,7,5,-2,3,5,7,2,1,-3,5,-3,-2,8],"shift_direction":1,"question_num":81,"has_decoy":false},{"rt":7033.20000000298,"stimulus":"[A] option 1, [L] option 2, [G] neither","key_press":76,"name":"choice","trial_type":"html-keyboard-response","trial_index":109,"time_elapsed":287155,"internal_node_id":"0.0-109.0","subject":"S1C1651","sona":"41484","block":4,"time":"2021-09-22T01:57:24.800Z","response":"2nd","certainty":"high","char":"L","transposition":1,"order":["shifted","swapped"],"probe_pitches":[3,1,3,8,1,3,11,3,8,1,13,11,13,3,6,13],"shifted_pitches":[3,1,3,8,1,3,11,4,8,1,13,11,13,3,6,13],"swapped_pitches":[3,1,3,8,1,3,11,8,3,1,13,11,13,3,6,13],"shift_direction":1,"question_num":91,"has_decoy":false},{"rt":391,"stimulus":"[A] option 1, [L] option 2, [G] neither","key_press":76,"name":"choice","trial_type":"html-keyboard-response","trial_index":120,"time_elapsed":376495,"internal_node_id":"0.0-120.0","subject":"S1C1651","sona":"41484","block":4,"time":"2021-09-22T01:57:24.800Z","response":"2nd","certainty":"high","char":"L","transposition":-1,"order":["swapped","shifted"],"probe_pitches":[10,8,3,10,8,10,3,6,1,8,3,1,10,6,1,3],"shifted_pitches":[10,8,3,10,8,10,3,6,0,8,3,1,10,6,1,3],"swapped_pitches":[10,8,3,10,8,10,3,1,6,8,3,1,10,6,1,3],"shift_direction":-1,"question_num":101,"has_decoy":false},{"rt":878.6000000089407,"stimulus":"[A] option 1, [L] option 2, [G] neither","key_press":65,"name":"choice","trial_type":"html-keyboard-response","trial_index":131,"time_elapsed":428651,"internal_node_id":"0.0-131.0","subject":"S1C1651","sona":"41484","block":4,"time":"2021-09-22T01:57:24.800Z","response":"1st","certainty":"high","char":"A","transposition":-1,"order":["shifted","swapped"],"probe_pitches":[-2,1,5,-2,7,1,8,1,-3,5,0,6,-2,-3,1,-1],"shifted_pitches":[-2,1,5,-2,7,1,8,2,-3,5,0,6,-2,-3,1,-1],"swapped_pitches":[-2,1,5,-2,7,1,8,-3,1,5,0,6,-2,-3,1,-1],"shift_direction":1,"question_num":111,"has_decoy":false},{"rt":548.7000000029802,"stimulus":"[A] option 1, [L] option 2, [G] neither","key_press":76,"name":"choice","trial_type":"html-keyboard-response","trial_index":142,"time_elapsed":452621,"internal_node_id":"0.0-142.0","subject":"S1C1651","sona":"41484","block":4,"time":"2021-09-22T01:57:24.800Z","response":"2nd","certainty":"high","char":"L","transposition":-2,"order":["shifted","swapped"],"probe_pitches":[4,1,6,9,11,1,9,4,11,13,4,13,1,13,6,4],"shifted_pitches":[4,1,6,9,11,1,9,4,10,13,4,13,1,13,6,4],"swapped_pitches":[4,1,6,9,11,1,9,11,4,13,4,13,1,13,6,4],"shift_direction":-1,"question_num":121,"has_decoy":false},{"rt":103.20000000298023,"stimulus":"[A] option 1, [L] option 2, [G] neither","key_press":65,"name":"choice","trial_type":"html-keyboard-response","trial_index":153,"time_elapsed":475067,"internal_node_id":"0.0-153.0","subject":"S1C1651","sona":"41484","block":4,"time":"2021-09-22T01:57:24.800Z","response":"1st","certainty":"high","char":"A","transposition":0,"order":["shifted","swapped"],"probe_pitches":[6,4,8,4,6,13,11,13,1,11,4,6,11,13,1,6],"shifted_pitches":[6,4,8,4,6,13,11,14,1,11,4,6,11,13,1,6],"swapped_pitches":[6,4,8,4,6,13,11,1,13,11,4,6,11,13,1,6],"shift_direction":1,"question_num":131,"has_decoy":false},{"rt":311.30000001192093,"stimulus":"[A] option 1, [L] option 2, [G] neither","key_press":65,"name":"choice","trial_type":"html-keyboard-response","trial_index":164,"time_elapsed":497504,"internal_node_id":"0.0-164.0","subject":"S1C1651","sona":"41484","block":4,"time":"2021-09-22T01:57:24.800Z","response":"1st","certainty":"high","char":"A","transposition":-2,"order":["shifted","swapped"],"probe_pitches":[3,1,6,1,10,6,1,10,8,6,3,6,10,1,3,1],"shifted_pitches":[3,1,6,1,10,6,1,10,7,6,3,6,10,1,3,1],"swapped_pitches":[3,1,6,1,10,6,1,8,10,6,3,6,10,1,3,1],"shift_direction":-1,"question_num":141,"has_decoy":false},{"rt":1237.4000000059605,"stimulus":"[A] option 1, [L] option 2, [G] neither","key_press":65,"name":"choice","trial_type":"html-keyboard-response","trial_index":175,"time_elapsed":522001,"internal_node_id":"0.0-175.0","subject":"S1C1651","sona":"41484","block":4,"time":"2021-09-22T01:57:24.800Z","response":"1st","certainty":"high","char":"A","transposition":-3,"order":["shifted","swapped"],"probe_pitches":[-2,0,6,0,8,4,-2,1,6,7,8,4,6,-2,1,3],"shifted_pitches":[-2,0,6,0,8,4,-2,1,5,7,8,4,6,-2,1,3],"swapped_pitches":[-2,0,6,0,8,4,-2,6,1,7,8,4,6,-2,1,3],"shift_direction":-1,"question_num":151,"has_decoy":false},{"rt":1359.2999999970198,"stimulus":"[A] option 1, [L] option 2, [G] neither","key_press":65,"name":"choice","trial_type":"html-keyboard-response","trial_index":186,"time_elapsed":545974,"internal_node_id":"0.0-186.0","subject":"S1C1651","sona":"41484","block":4,"time":"2021-09-22T01:57:24.800Z","response":"1st","certainty":"high","char":"A","transposition":1,"order":["shifted","swapped"],"probe_pitches":[3,4,2,3,4,-1,6,1,9,5,3,-1,3,4,9,1],"shifted_pitches":[3,4,2,3,4,-1,6,0,9,5,3,-1,3,4,9,1],"swapped_pitches":[3,4,2,3,4,-1,6,9,1,5,3,-1,3,4,9,1],"shift_direction":-1,"question_num":161,"has_decoy":false},{"rt":497,"stimulus":"[A] option 1, [L] option 2, [G] neither","key_press":65,"name":"choice","trial_type":"html-keyboard-response","trial_index":197,"time_elapsed":568890,"internal_node_id":"0.0-197.0","subject":"S1C1651","sona":"41484","block":4,"time":"2021-09-22T01:57:24.800Z","response":"1st","certainty":"high","char":"A","transposition":2,"order":["swapped","shifted"],"probe_pitches":[0,3,0,2,9,-1,7,-3,3,9,2,5,8,-1,-3,6],"shifted_pitches":[0,3,0,2,9,-1,7,-3,4,9,2,5,8,-1,-3,6],"swapped_pitches":[0,3,0,2,9,-1,7,3,-3,9,2,5,8,-1,-3,6],"shift_direction":1,"question_num":171,"has_decoy":false},{"rt":50.599999994039536,"stimulus":"[A] option 1, [L] option 2, [G] neither","key_press":76,"name":"choice","trial_type":"html-keyboard-response","trial_index":208,"time_elapsed":591425,"internal_node_id":"0.0-208.0","subject":"S1C1651","sona":"41484","block":4,"time":"2021-09-22T01:57:24.800Z","response":"2nd","certainty":"high","char":"L","transposition":0,"order":["swapped","shifted"],"probe_pitches":[2,7,2,7,6,5,4,0,7,-2,8,5,-2,9,2,6],"shifted_pitches":[2,7,2,7,6,5,4,1,7,-2,8,5,-2,9,2,6],"swapped_pitches":[2,7,2,7,6,5,4,7,0,-2,8,5,-2,9,2,6],"shift_direction":1,"question_num":181,"has_decoy":false},{"rt":226.59999999403954,"stimulus":"[A] option 1, [L] option 2, [G] neither","key_press":76,"name":"choice","trial_type":"html-keyboard-response","trial_index":219,"time_elapsed":615600,"internal_node_id":"0.0-219.0","subject":"S1C1651","sona":"41484","block":4,"time":"2021-09-22T01:57:24.800Z","response":"2nd","certainty":"high","char":"L","transposition":-3,"order":["swapped","shifted"],"probe_pitches":[1,6,8,4,11,4,11,8,13,6,1,8,6,13,4,6],"shifted_pitches":[1,6,8,4,11,4,11,8,14,6,1,8,6,13,4,6],"swapped_pitches":[1,6,8,4,11,4,11,13,8,6,1,8,6,13,4,6],"shift_direction":1,"question_num":191,"has_decoy":false}]