[{"rt":68.3999999910593,"stimulus":"[A] option 1, [L] option 2, [G] neither","key_press":76,"name":"choice","trial_type":"html-keyboard-response","trial_index":10,"time_elapsed":36489,"internal_node_id":"0.0-10.0","subject":"S1C1651","sona":"41484","block":6,"time":"2021-09-22T02:17:15.963Z","response":"2nd","certainty":"high","char":"L","transposition":2,"order":["swapped","shifted"],"probe_pitches":[2,-3,-2,0,5,-3,0,6,3,-2,6,1,9,3,7,6],"shifted_pitches":[2,-3,-2,0,5,-3,0,6,4,-2,6,1,9,3,7,6],"swapped_pitches":[2,-3,-2,0,5,-3,0,3,6,-2,6,1,9,3,7,6],"shift_direction":1,"question_num":1,"has_decoy":false},{"rt":1142.7000000029802,"stimulus":"[A] option 1, [L] option 2, [G] neither","key_press":65,"name":"choice","trial_type":"html-keyboard-response","trial_index":21,"time_elapsed":60844,"internal_node_id":"0.0-21.0","subject":"S1C1651","sona":"41484","block":6,"time":"2021-09-22T02:17:15.963Z","response":"1st","certainty":"high","char":"A","transposition":1,"order":["swapped","shifted"],"probe_pitches":[-2,0,5,4,0,3,5,2,4,6,0,7,8,2,9,8],"shifted_pitches":[-2,0,5,4,0,3,5,1,4,6,0,7,8,2,9,8],"swapped_pitches":[-2,0,5,4,0,3,5,4,2,6,0,7,8,2,9,8],"shift_direction":-1,"question_num":11,"has_decoy":false},{"rt":292.70000000298023,"stimulus":"[A] option 1, [L] option 2, [G] neither","key_press":76,"name":"choice","trial_type":"html-keyboard-response","trial_index":32,"time_elapsed":83534,"internal_node_id":"0.0-32.0","subject":"S1C1651","sona":"41484","block":6,"time":"2021-09-22T02:17:15.963Z","response":"2nd","certainty":"high","char":"L","transposition":-3,"order":["swapped","shifted"],"probe_pitches":[3,6,4,9,5,6,9,3,-2,9,4,5,-2,4,8,9],"shifted_pitches":[3,6,4,9,5,6,9,2,-2,9,4,5,-2,4,8,9],"swapped_pitches":[3,6,4,9,5,6,9,-2,3,9,4,5,-2,4,8,9],"shift_direction":-1,"question_num":21,"has_decoy":false},{"rt":754.3999999910593,"stimulus":"[A] option 1, [L] option 2, [G] neither","key_press":65,"name":"choice","trial_type":"html-keyboard-response","trial_index":43,"time_elapsed":108318,"internal_node_id":"0.0-43.0","subject":"S1C1651","sona":"41484","block":6,"time":"2021-09-22T02:17:15.963Z","response":"1st","certainty":"high","char":"A","transposition":0,"order":["shifted","swapped"],"probe_pitches":[-3,0,3,5,7,2,0,7,1,3,1,-1,4,6,9,1],"shifted_pitches":[-3,0,3,5,7,2,0,8,1,3,1,-1,4,6,9,1],"swapped_pitches":[-3,0,3,5,7,2,0,1,7,3,1,-1,4,6,9,1],"shift_direction":1,"question_num":31,"has_decoy":false},{"rt":2570,"stimulus":"[A] option 1, [L] option 2, [G] neither","key_press":65,"name":"choice","trial_type":"html-keyboard-response","trial_index":54,"time_elapsed":133823,"internal_node_id":"0.0-54.0","subject":"S1C1651","sona":"41484","block":6,"time":"2021-09-22T02:17:15.963Z","response":"1st","certainty":"high","char":"A","transposition":-2,"order":["shifted","swapped"],"probe_pitches":[2,-2,3,-2,-3,1,3,1,7,8,-3,1,-2,1,3,4],"shifted_pitches":[2,-2,3,-2,-3,1,3,1,6,8,-3,1,-2,1,3,4],"swapped_pitches":[2,-2,3,-2,-3,1,3,7,1,8,-3,1,-2,1,3,4],"shift_direction":-1,"question_num":41,"has_decoy":false},{"rt":3203.9000000059605,"stimulus":"[A] option 1, [L] option 2, [G] neither","key_press":65,"name":"choice","trial_type":"html-keyboard-response","trial_index":65,"time_elapsed":179277,"internal_node_id":"0.0-65.0","subject":"S1C1651","sona":"41484","block":6,"time":"2021-09-22T02:17:15.963Z","response":"1st","certainty":"high","char":"A","transposition":-2,"order":["shifted","swapped"],"probe_pitches":[-3,-1,6,7,1,5,-1,9,2,-2,8,5,1,6,9,2],"shifted_pitches":[-3,-1,6,7,1,5,-1,9,3,-2,8,5,1,6,9,2],"swapped_pitches":[-3,-1,6,7,1,5,-1,2,9,-2,8,5,1,6,9,2],"shift_direction":1,"question_num":51,"has_decoy":false},{"rt":658.4000000059605,"stimulus":"[A] option 1, [L] option 2, [G] neither","key_press":65,"name":"choice","trial_type":"html-keyboard-response","trial_index":76,"time_elapsed":232622,"internal_node_id":"0.0-76.0","subject":"S1C1651","sona":"41484","block":6,"time":"2021-09-22T02:17:15.963Z","response":"1st","certainty":"high","char":"A","transposition":-3,"order":["shifted","swapped"],"probe_pitches":[6,11,4,8,13,4,1,11,13,4,13,4,6,8,11,4],"shifted_pitches":[6,11,4,8,13,4,1,11,12,4,13,4,6,8,11,4],"swapped_pitches":[6,11,4,8,13,4,1,13,11,4,13,4,6,8,11,4],"shift_direction":-1,"question_num":61,"has_decoy":false},{"rt":788.7000000029802,"stimulus":"[A] option 1, [L] option 2, [G] neither","key_press":76,"name":"choice","trial_type":"html-keyboard-response","trial_index":87,"time_elapsed":260781,"internal_node_id":"0.0-87.0","subject":"S1C1651","sona":"41484","block":6,"time":"2021-09-22T02:17:15.963Z","response":"2nd","certainty":"high","char":"L","transposition":-1,"order":["shifted","swapped"],"probe_pitches":[6,4,11,8,11,8,13,8,11,6,13,1,13,1,4,13],"shifted_pitches":[6,4,11,8,11,8,13,7,11,6,13,1,13,1,4,13],"swapped_pitches":[6,4,11,8,11,8,13,11,8,6,13,1,13,1,4,13],"shift_direction":-1,"question_num":71,"has_decoy":false},{"rt":66.90000000596046,"stimulus":"[A] option 1, [L] option 2, [G] neither","key_press":76,"name":"choice","trial_type":"html-keyboard-response","trial_index":98,"time_elapsed":289540,"internal_node_id":"0.0-98.0","subject":"S1C1651","sona":"41484","block":6,"time":"2021-09-22T02:17:15.963Z","response":"2nd","certainty":"high","char":"L","transposition":-2,"order":["swapped","shifted"],"probe_pitches":[1,5,8,13,8,13,8,3,5,8,5,1,3,10,1,13],"shifted_pitches":[1,5,8,13,8,13,8,3,6,8,5,1,3,10,1,13],"swapped_pitches":[1,5,8,13,8,13,8,5,3,8,5,1,3,10,1,13],"shift_direction":1,"question_num":81,"has_decoy":false},{"rt":1647.2999999970198,"stimulus":"[A] option 1, [L] option 2, [G] neither","key_press":65,"name":"choice","trial_type":"html-keyboard-response","trial_index":109,"time_elapsed":315120,"internal_node_id":"0.0-109.0","subject":"S1C1651","sona":"41484","block":6,"time":"2021-09-22T02:17:15.963Z","response":"1st","certainty":"high","char":"A","transposition":2,"order":["swapped","shifted"],"probe_pitches":[6,8,1,3,6,3,13,8,1,11,3,13,11,13,11,1],"shifted_pitches":[6,8,1,3,6,3,13,7,1,11,3,13,11,13,11,1],"swapped_pitches":[6,8,1,3,6,3,13,1,8,11,3,13,11,13,11,1],"shift_direction":-1,"question_num":91,"has_decoy":false},{"rt":51.79999999701977,"stimulus":"[A] option 1, [L] option 2, [G] neither","key_press":76,"name":"choice","trial_type":"html-keyboard-response","trial_index":120,"time_elapsed":350535,"internal_node_id":"0.0-120.0","subject":"S1C1651","sona":"41484","block":6,"time":"2021-09-22T02:17:15.963Z","response":"2nd","certainty":"high","char":"L","transposition":-3,"order":["swapped","shifted"],"probe_pitches":[4,3,9,7,4,-2,7,6,8,-3,-1,-2,4,3,6,8],"shifted_pitches":[4,3,9,7,4,-2,7,5,8,-3,-1,-2,4,3,6,8],"swapped_pitches":[4,3,9,7,4,-2,7,8,6,-3,-1,-2,4,3,6,8],"shift_direction":-1,"question_num":101,"has_decoy":false},{"rt":9316.09999999404,"stimulus":"[A] option 1, [L] option 2, [G] neither","key_press":76,"name":"choice","trial_type":"html-keyboard-response","trial_index":131,"time_elapsed":382249,"internal_node_id":"0.0-131.0","subject":"S1C1651","sona":"41484","block":6,"time":"2021-09-22T02:17:15.963Z","response":"2nd","certainty":"high","char":"L","transposition":-1,"order":["shifted","swapped"],"probe_pitches":[3,6,10,6,13,6,13,1,10,6,8,13,1,10,1,6],"shifted_pitches":[3,6,10,6,13,6,13,1,11,6,8,13,1,10,1,6],"swapped_pitches":[3,6,10,6,13,6,13,10,1,6,8,13,1,10,1,6],"shift_direction":1,"question_num":111,"has_decoy":false},{"rt":753.5,"stimulus":"[A] option 1, [L] option 2, [G] neither","key_press":76,"name":"choice","trial_type":"html-keyboard-response","trial_index":142,"time_elapsed":472787,"internal_node_id":"0.0-142.0","subject":"S1C1651","sona":"41484","block":6,"time":"2021-09-22T02:17:15.963Z","response":"2nd","certainty":"high","char":"L","transposition":-1,"order":["swapped","shifted"],"probe_pitches":[-3,2,3,6,4,8,7,6,-2,3,7,8,4,-2,9,4],"shifted_pitches":[-3,2,3,6,4,8,7,6,-1,3,7,8,4,-2,9,4],"swapped_pitches":[-3,2,3,6,4,8,7,-2,6,3,7,8,4,-2,9,4],"shift_direction":1,"question_num":121,"has_decoy":false},{"rt":1574.6000000089407,"stimulus":"[A] option 1, [L] option 2, [G] neither","key_press":76,"name":"choice","trial_type":"html-keyboard-response","trial_index":153,"time_elapsed":497962,"internal_node_id":"0.0-153.0","subject":"S1C1651","sona":"41484","block":6,"time":"2021-09-22T02:17:15.963Z","response":"2nd","certainty":"high","char":"L","transposition":1,"order":["swapped","shifted"],"probe_pitches":[5,8,5,13,10,5,1,3,10,13,10,3,1,5,10,8],"shifted_pitches":[5,8,5,13,10,5,1,3,11,13,10,3,1,5,10,8],"swapped_pitches":[5,8,5,13,10,5,1,10,3,13,10,3,1,5,10,8],"shift_direction":1,"question_num":131,"has_decoy":false},{"rt":894.7000000029802,"stimulus":"[A] option 1, [L] option 2, [G] neither","key_press":65,"name":"choice","trial_type":"html-keyboard-response","trial_index":164,"time_elapsed":521412,"internal_node_id":"0.0-164.0","subject":"S1C1651","sona":"41484","block":6,"time":"2021-09-22T02:17:15.963Z","response":"1st","certainty":"high","char":"A","transposition":0,"order":["shifted","swapped"],"probe_pitches":[1,6,1,6,8,3,1,8,3,11,1,11,8,13,3,11],"shifted_pitches":[1,6,1,6,8,3,1,9,3,11,1,11,8,13,3,11],"swapped_pitches":[1,6,1,6,8,3,1,3,8,11,1,11,8,13,3,11],"shift_direction":1,"question_num":141,"has_decoy":false},{"rt":723.2999999970198,"stimulus":"[A] option 1, [L] option 2, [G] neither","key_press":65,"name":"choice","trial_type":"html-keyboard-response","trial_index":175,"time_elapsed":545619,"internal_node_id":"0.0-175.0","subject":"S1C1651","sona":"41484","block":6,"time":"2021-09-22T02:17:15.963Z","response":"1st","certainty":"high","char":"A","transposition":3,"order":["shifted","swapped"],"probe_pitches":[1,4,-3,4,9,7,-2,7,1,8,4,3,8,-2,2,-3],"shifted_pitches":[1,4,-3,4,9,7,-2,7,0,8,4,3,8,-2,2,-3],"swapped_pitches":[1,4,-3,4,9,7,-2,1,7,8,4,3,8,-2,2,-3],"shift_direction":-1,"question_num":151,"has_decoy":false},{"rt":2413.7999999970198,"stimulus":"[A] option 1, [L] option 2, [G] neither","key_press":76,"name":"choice","trial_type":"html-keyboard-response","trial_index":186,"time_elapsed":570930,"internal_node_id":"0.0-186.0","subject":"S1C1651","sona":"41484","block":6,"time":"2021-09-22T02:17:15.963Z","response":"2nd","certainty":"high","char":"L","transposition":-2,"order":["swapped","shifted"],"probe_pitches":[3,8,3,10,8,10,3,8,6,10,1,10,1,3,1,6],"shifted_pitches":[3,8,3,10,8,10,3,9,6,10,1,10,1,3,1,6],"swapped_pitches":[3,8,3,10,8,10,3,6,8,10,1,10,1,3,1,6],"shift_direction":1,"question_num":161,"has_decoy":false},{"rt":1532.5,"stimulus":"[A] option 1, [L] option 2, [G] neither","key_press":65,"name":"choice","trial_type":"html-keyboard-response","trial_index":197,"time_elapsed":607499,"internal_node_id":"0.0-197.0","subject":"S1C1651","sona":"41484","block":6,"time":"2021-09-22T02:17:15.963Z","response":"1st","certainty":"high","char":"A","transposition":3,"order":["shifted","swapped"],"probe_pitches":[9,6,11,4,13,4,9,11,4,1,6,13,9,1,13,1],"shifted_pitches":[9,6,11,4,13,4,9,10,4,1,6,13,9,1,13,1],"swapped_pitches":[9,6,11,4,13,4,9,4,11,1,6,13,9,1,13,1],"shift_direction":-1,"question_num":171,"has_decoy":false},{"rt":1732.2999999970198,"stimulus":"[A] option 1, [L] option 2, [G] neither","key_press":65,"name":"choice","trial_type":"html-keyboard-response","trial_index":208,"time_elapsed":631969,"internal_node_id":"0.0-208.0","subject":"S1C1651","sona":"41484","block":6,"time":"2021-09-22T02:17:15.963Z","response":"1st","certainty":"high","char":"A","transposition":-3,"order":["swapped","shifted"],"probe_pitches":[13,11,4,6,13,6,13,1,6,9,1,13,9,11,13,4],"shifted_pitches":[13,11,4,6,13,6,13,1,5,9,1,13,9,11,13,4],"swapped_pitches":[13,11,4,6,13,6,13,6,1,9,1,13,9,11,13,4],"shift_direction":-1,"question_num":181,"has_decoy":false},{"rt":352.59999999403954,"stimulus":"[A] option 1, [L] option 2, [G] neither","key_press":76,"name":"choice","trial_type":"html-keyboard-response","trial_index":219,"time_elapsed":654749,"internal_node_id":"0.0-219.0","subject":"S1C1651","sona":"41484","block":6,"time":"2021-09-22T02:17:15.963Z","response":"2nd","certainty":"high","char":"L","transposition":-1,"order":["shifted","swapped"],"probe_pitches":[4,6,4,8,1,-2,0,6,3,8,1,-2,1,4,-3,0],"shifted_pitches":[4,6,4,8,1,-2,0,7,3,8,1,-2,1,4,-3,0],"swapped_pitches":[4,6,4,8,1,-2,0,3,6,8,1,-2,1,4,-3,0],"shift_direction":1,"question_num":191,"has_decoy":false}]