[{"rt":1600.7000000029802,"stimulus":"[A] option 1, [L] option 2, [G] neither","key_press":76,"name":"choice","trial_type":"html-keyboard-response","trial_index":10,"time_elapsed":27014,"internal_node_id":"0.0-10.0","subject":"S1C1651","sona":"41484","block":2,"time":"2021-09-22T01:33:54.665Z","response":"2nd","certainty":"high","char":"L","transposition":-2,"order":["swapped","shifted"],"probe_pitches":[8,7,6,7,5,9,5,4,2,6,9,10,11,5,1,12],"shifted_pitches":[8,7,6,7,5,9,5,4,3,6,9,10,11,5,1,12],"swapped_pitches":[8,7,6,7,5,9,5,2,4,6,9,10,11,5,1,12],"shift_direction":1,"question_num":1,"has_decoy":false},{"rt":413.29999999701977,"stimulus":"[A] option 1, [L] option 2, [G] neither","key_press":76,"name":"choice","trial_type":"html-keyboard-response","trial_index":21,"time_elapsed":58866,"internal_node_id":"0.0-21.0","subject":"S1C1651","sona":"41484","block":2,"time":"2021-09-22T01:33:54.665Z","response":"2nd","certainty":"high","char":"L","transposition":-1,"order":["swapped","shifted"],"probe_pitches":[5,10,12,7,10,12,7,10,5,12,10,7,12,2,12,7],"shifted_pitches":[5,10,12,7,10,12,7,9,5,12,10,7,12,2,12,7],"swapped_pitches":[5,10,12,7,10,12,7,5,10,12,10,7,12,2,12,7],"shift_direction":-1,"question_num":11,"has_decoy":false},{"rt":519.9000000059605,"stimulus":"[A] option 1, [L] option 2, [G] neither","key_press":76,"name":"choice","trial_type":"html-keyboard-response","trial_index":32,"time_elapsed":87933,"internal_node_id":"0.0-32.0","subject":"S1C1651","sona":"41484","block":2,"time":"2021-09-22T01:33:54.665Z","response":"2nd","certainty":"high","char":"L","transposition":-2,"order":["swapped","shifted"],"probe_pitches":[10,7,10,5,7,12,10,7,5,3,7,10,12,0,10,3],"shifted_pitches":[10,7,10,5,7,12,10,7,4,3,7,10,12,0,10,3],"swapped_pitches":[10,7,10,5,7,12,10,5,7,3,7,10,12,0,10,3],"shift_direction":-1,"question_num":21,"has_decoy":false},{"rt":493.20000000298023,"stimulus":"[A] option 1, [L] option 2, [G] neither","key_press":76,"name":"choice","trial_type":"html-keyboard-response","trial_index":43,"time_elapsed":151879,"internal_node_id":"0.0-43.0","subject":"S1C1651","sona":"41484","block":2,"time":"2021-09-22T01:33:54.665Z","response":"2nd","certainty":"high","char":"L","transposition":1,"order":["swapped","shifted"],"probe_pitches":[4,3,2,3,1,8,9,8,11,6,4,10,13,3,12,4],"shifted_pitches":[4,3,2,3,1,8,9,7,11,6,4,10,13,3,12,4],"swapped_pitches":[4,3,2,3,1,8,9,11,8,6,4,10,13,3,12,4],"shift_direction":-1,"question_num":31,"has_decoy":false},{"rt":504.1000000089407,"stimulus":"[A] option 1, [L] option 2, [G] neither","key_press":76,"name":"choice","trial_type":"html-keyboard-response","trial_index":54,"time_elapsed":174898,"internal_node_id":"0.0-54.0","subject":"S1C1651","sona":"41484","block":2,"time":"2021-09-22T01:33:54.665Z","response":"2nd","certainty":"high","char":"L","transposition":1,"order":["swapped","shifted"],"probe_pitches":[0,3,5,0,5,10,8,10,12,0,3,0,10,3,10,8],"shifted_pitches":[0,3,5,0,5,10,8,10,13,0,3,0,10,3,10,8],"swapped_pitches":[0,3,5,0,5,10,8,12,10,0,3,0,10,3,10,8],"shift_direction":1,"question_num":41,"has_decoy":false},{"rt":493.1000000089407,"stimulus":"[A] option 1, [L] option 2, [G] neither","key_press":76,"name":"choice","trial_type":"html-keyboard-response","trial_index":65,"time_elapsed":198139,"internal_node_id":"0.0-65.0","subject":"S1C1651","sona":"41484","block":2,"time":"2021-09-22T01:33:54.665Z","response":"2nd","certainty":"high","char":"L","transposition":3,"order":["swapped","shifted"],"probe_pitches":[7,12,13,9,8,4,1,11,2,4,9,3,2,5,3,7],"shifted_pitches":[7,12,13,9,8,4,1,10,2,4,9,3,2,5,3,7],"swapped_pitches":[7,12,13,9,8,4,1,2,11,4,9,3,2,5,3,7],"shift_direction":-1,"question_num":51,"has_decoy":false},{"rt":6.700000002980232,"stimulus":"[A] option 1, [L] option 2, [G] neither","key_press":76,"name":"choice","trial_type":"html-keyboard-response","trial_index":76,"time_elapsed":220893,"internal_node_id":"0.0-76.0","subject":"S1C1651","sona":"41484","block":2,"time":"2021-09-22T01:33:54.665Z","response":"2nd","certainty":"high","char":"L","transposition":-3,"order":["swapped","shifted"],"probe_pitches":[9,12,9,5,7,0,9,12,2,7,0,9,0,7,9,7],"shifted_pitches":[9,12,9,5,7,0,9,11,2,7,0,9,0,7,9,7],"swapped_pitches":[9,12,9,5,7,0,9,2,12,7,0,9,0,7,9,7],"shift_direction":-1,"question_num":61,"has_decoy":false},{"rt":472.5,"stimulus":"[A] option 1, [L] option 2, [G] neither","key_press":65,"name":"choice","trial_type":"html-keyboard-response","trial_index":87,"time_elapsed":243807,"internal_node_id":"0.0-87.0","subject":"S1C1651","sona":"41484","block":2,"time":"2021-09-22T01:33:54.665Z","response":"1st","certainty":"high","char":"A","transposition":-1,"order":["swapped","shifted"],"probe_pitches":[12,8,7,6,11,9,8,5,13,8,9,2,10,11,8,13],"shifted_pitches":[12,8,7,6,11,9,8,4,13,8,9,2,10,11,8,13],"swapped_pitches":[12,8,7,6,11,9,8,13,5,8,9,2,10,11,8,13],"shift_direction":-1,"question_num":71,"has_decoy":false},{"rt":1352,"stimulus":"[A] option 1, [L] option 2, [G] neither","key_press":76,"name":"choice","trial_type":"html-keyboard-response","trial_index":98,"time_elapsed":267777,"internal_node_id":"0.0-98.0","subject":"S1C1651","sona":"41484","block":2,"time":"2021-09-22T01:33:54.665Z","response":"2nd","certainty":"high","char":"L","transposition":0,"order":["shifted","swapped"],"probe_pitches":[9,7,4,1,9,7,10,12,4,7,9,10,7,8,5,7],"shifted_pitches":[9,7,4,1,9,7,10,11,4,7,9,10,7,8,5,7],"swapped_pitches":[9,7,4,1,9,7,10,4,12,7,9,10,7,8,5,7],"shift_direction":-1,"question_num":81,"has_decoy":false},{"rt":502.59999999403954,"stimulus":"[A] option 1, [L] option 2, [G] neither","key_press":76,"name":"choice","trial_type":"html-keyboard-response","trial_index":109,"time_elapsed":291157,"internal_node_id":"0.0-109.0","subject":"S1C1651","sona":"41484","block":2,"time":"2021-09-22T01:33:54.665Z","response":"2nd","certainty":"high","char":"L","transposition":-3,"order":["shifted","swapped"],"probe_pitches":[12,7,12,5,12,5,0,12,5,0,5,0,9,0,7,2],"shifted_pitches":[12,7,12,5,12,5,0,12,4,0,5,0,9,0,7,2],"swapped_pitches":[12,7,12,5,12,5,0,5,12,0,5,0,9,0,7,2],"shift_direction":-1,"question_num":91,"has_decoy":false},{"rt":482.19999998807907,"stimulus":"[A] option 1, [L] option 2, [G] neither","key_press":76,"name":"choice","trial_type":"html-keyboard-response","trial_index":120,"time_elapsed":314227,"internal_node_id":"0.0-120.0","subject":"S1C1651","sona":"41484","block":2,"time":"2021-09-22T01:33:54.665Z","response":"2nd","certainty":"high","char":"L","transposition":0,"order":["shifted","swapped"],"probe_pitches":[0,3,7,10,12,3,7,3,12,10,7,5,7,0,7,3],"shifted_pitches":[0,3,7,10,12,3,7,4,12,10,7,5,7,0,7,3],"swapped_pitches":[0,3,7,10,12,3,7,12,3,10,7,5,7,0,7,3],"shift_direction":1,"question_num":101,"has_decoy":false},{"rt":940.7999999970198,"stimulus":"[A] option 1, [L] option 2, [G] neither","key_press":76,"name":"choice","trial_type":"html-keyboard-response","trial_index":131,"time_elapsed":338865,"internal_node_id":"0.0-131.0","subject":"S1C1651","sona":"41484","block":2,"time":"2021-09-22T01:33:54.665Z","response":"2nd","certainty":"high","char":"L","transposition":2,"order":["swapped","shifted"],"probe_pitches":[13,12,9,11,7,11,1,10,4,6,8,9,10,4,6,2],"shifted_pitches":[13,12,9,11,7,11,1,10,5,6,8,9,10,4,6,2],"swapped_pitches":[13,12,9,11,7,11,1,4,10,6,8,9,10,4,6,2],"shift_direction":1,"question_num":111,"has_decoy":false},{"rt":1589.5999999940395,"stimulus":"[A] option 1, [L] option 2, [G] neither","key_press":76,"name":"choice","trial_type":"html-keyboard-response","trial_index":142,"time_elapsed":362565,"internal_node_id":"0.0-142.0","subject":"S1C1651","sona":"41484","block":2,"time":"2021-09-22T01:33:54.665Z","response":"2nd","certainty":"high","char":"L","transposition":-3,"order":["shifted","swapped"],"probe_pitches":[3,7,10,5,1,9,5,7,10,6,11,13,2,6,12,5],"shifted_pitches":[3,7,10,5,1,9,5,8,10,6,11,13,2,6,12,5],"swapped_pitches":[3,7,10,5,1,9,5,10,7,6,11,13,2,6,12,5],"shift_direction":1,"question_num":121,"has_decoy":false},{"rt":314.6000000089407,"stimulus":"[A] option 1, [L] option 2, [G] neither","key_press":65,"name":"choice","trial_type":"html-keyboard-response","trial_index":153,"time_elapsed":385790,"internal_node_id":"0.0-153.0","subject":"S1C1651","sona":"41484","block":2,"time":"2021-09-22T01:33:54.665Z","response":"1st","certainty":"high","char":"A","transposition":3,"order":["shifted","swapped"],"probe_pitches":[12,7,0,2,9,2,4,2,0,12,0,2,0,7,2,0],"shifted_pitches":[12,7,0,2,9,2,4,2,1,12,0,2,0,7,2,0],"swapped_pitches":[12,7,0,2,9,2,4,0,2,12,0,2,0,7,2,0],"shift_direction":1,"question_num":131,"has_decoy":false},{"rt":1119.5,"stimulus":"[A] option 1, [L] option 2, [G] neither","key_press":65,"name":"choice","trial_type":"html-keyboard-response","trial_index":164,"time_elapsed":409885,"internal_node_id":"0.0-164.0","subject":"S1C1651","sona":"41484","block":2,"time":"2021-09-22T01:33:54.665Z","response":"1st","certainty":"high","char":"A","transposition":-2,"order":["shifted","swapped"],"probe_pitches":[3,5,6,10,1,3,13,11,8,7,1,10,8,10,1,2],"shifted_pitches":[3,5,6,10,1,3,13,11,9,7,1,10,8,10,1,2],"swapped_pitches":[3,5,6,10,1,3,13,8,11,7,1,10,8,10,1,2],"shift_direction":1,"question_num":141,"has_decoy":false},{"rt":553.5,"stimulus":"[A] option 1, [L] option 2, [G] neither","key_press":65,"name":"choice","trial_type":"html-keyboard-response","trial_index":175,"time_elapsed":434079,"internal_node_id":"0.0-175.0","subject":"S1C1651","sona":"41484","block":2,"time":"2021-09-22T01:33:54.665Z","response":"1st","certainty":"high","char":"A","transposition":2,"order":["shifted","swapped"],"probe_pitches":[0,5,8,10,8,12,5,12,0,10,12,3,10,8,5,3],"shifted_pitches":[0,5,8,10,8,12,5,12,1,10,12,3,10,8,5,3],"swapped_pitches":[0,5,8,10,8,12,5,0,12,10,12,3,10,8,5,3],"shift_direction":1,"question_num":151,"has_decoy":false},{"rt":1349.1000000089407,"stimulus":"[A] option 1, [L] option 2, [G] neither","key_press":76,"name":"choice","trial_type":"html-keyboard-response","trial_index":186,"time_elapsed":457884,"internal_node_id":"0.0-186.0","subject":"S1C1651","sona":"41484","block":2,"time":"2021-09-22T01:33:54.665Z","response":"2nd","certainty":"high","char":"L","transposition":-1,"order":["shifted","swapped"],"probe_pitches":[13,11,10,4,12,11,9,8,7,2,7,5,13,8,12,8],"shifted_pitches":[13,11,10,4,12,11,9,8,6,2,7,5,13,8,12,8],"swapped_pitches":[13,11,10,4,12,11,9,7,8,2,7,5,13,8,12,8],"shift_direction":-1,"question_num":161,"has_decoy":false},{"rt":73.5,"stimulus":"[A] option 1, [L] option 2, [G] neither","key_press":65,"name":"choice","trial_type":"html-keyboard-response","trial_index":197,"time_elapsed":480388,"internal_node_id":"0.0-197.0","subject":"S1C1651","sona":"41484","block":2,"time":"2021-09-22T01:33:54.665Z","response":"1st","certainty":"high","char":"A","transposition":-2,"order":["swapped","shifted"],"probe_pitches":[10,7,10,7,0,5,0,2,5,12,7,12,5,10,0,10],"shifted_pitches":[10,7,10,7,0,5,0,3,5,12,7,12,5,10,0,10],"swapped_pitches":[10,7,10,7,0,5,0,5,2,12,7,12,5,10,0,10],"shift_direction":1,"question_num":171,"has_decoy":false},{"rt":152.30000001192093,"stimulus":"[A] option 1, [L] option 2, [G] neither","key_press":65,"name":"choice","trial_type":"html-keyboard-response","trial_index":208,"time_elapsed":503266,"internal_node_id":"0.0-208.0","subject":"S1C1651","sona":"41484","block":2,"time":"2021-09-22T01:33:54.665Z","response":"1st","certainty":"high","char":"A","transposition":-1,"order":["shifted","swapped"],"probe_pitches":[9,4,9,2,4,7,0,12,2,7,2,4,12,9,0,4],"shifted_pitches":[9,4,9,2,4,7,0,11,2,7,2,4,12,9,0,4],"swapped_pitches":[9,4,9,2,4,7,0,2,12,7,2,4,12,9,0,4],"shift_direction":-1,"question_num":181,"has_decoy":false},{"rt":1900.7000000029802,"stimulus":"[A] option 1, [L] option 2, [G] neither","key_press":76,"name":"choice","trial_type":"html-keyboard-response","trial_index":219,"time_elapsed":527686,"internal_node_id":"0.0-219.0","subject":"S1C1651","sona":"41484","block":2,"time":"2021-09-22T01:33:54.665Z","response":"2nd","certainty":"high","char":"L","transposition":-3,"order":["shifted","swapped"],"probe_pitches":[3,5,2,7,1,2,6,2,11,4,6,11,2,8,5,2],"shifted_pitches":[3,5,2,7,1,2,6,2,12,4,6,11,2,8,5,2],"swapped_pitches":[3,5,2,7,1,2,6,11,2,4,6,11,2,8,5,2],"shift_direction":1,"question_num":191,"has_decoy":false}]