[{"rt":13.200000002980232,"stimulus":"[A] option 1, [L] option 2, [G] neither","key_press":76,"name":"choice","trial_type":"html-keyboard-response","trial_index":10,"time_elapsed":25264,"internal_node_id":"0.0-10.0","subject":"S1C1651","sona":"41484","block":5,"time":"2021-09-22T02:06:15.876Z","response":"2nd","certainty":"high","char":"L","transposition":-1,"order":["swapped","shifted"],"probe_pitches":[7,6,2,4,11,2,4,9,3,7,3,9,5,4,3,2],"shifted_pitches":[7,6,2,4,11,2,4,8,3,7,3,9,5,4,3,2],"swapped_pitches":[7,6,2,4,11,2,4,3,9,7,3,9,5,4,3,2],"shift_direction":-1,"question_num":1,"has_decoy":false},{"rt":178.1000000089407,"stimulus":"[A] option 1, [L] option 2, [G] neither","key_press":76,"name":"choice","trial_type":"html-keyboard-response","trial_index":21,"time_elapsed":47517,"internal_node_id":"0.0-21.0","subject":"S1C1651","sona":"41484","block":5,"time":"2021-09-22T02:06:15.876Z","response":"2nd","certainty":"high","char":"L","transposition":-2,"order":["shifted","swapped"],"probe_pitches":[5,1,3,-2,5,-2,1,-2,8,10,1,5,1,-2,3,10],"shifted_pitches":[5,1,3,-2,5,-2,1,-2,7,10,1,5,1,-2,3,10],"swapped_pitches":[5,1,3,-2,5,-2,1,8,-2,10,1,5,1,-2,3,10],"shift_direction":-1,"question_num":11,"has_decoy":false},{"rt":1962.2000000029802,"stimulus":"[A] option 1, [L] option 2, [G] neither","key_press":65,"name":"choice","trial_type":"html-keyboard-response","trial_index":32,"time_elapsed":72341,"internal_node_id":"0.0-32.0","subject":"S1C1651","sona":"41484","block":5,"time":"2021-09-22T02:06:15.876Z","response":"1st","certainty":"high","char":"A","transposition":1,"order":["shifted","swapped"],"probe_pitches":[6,3,6,10,9,10,9,3,12,10,7,0,1,3,8,9],"shifted_pitches":[6,3,6,10,9,10,9,4,12,10,7,0,1,3,8,9],"swapped_pitches":[6,3,6,10,9,10,9,12,3,10,7,0,1,3,8,9],"shift_direction":1,"question_num":21,"has_decoy":false},{"rt":1090.5,"stimulus":"[A] option 1, [L] option 2, [G] neither","key_press":76,"name":"choice","trial_type":"html-keyboard-response","trial_index":43,"time_elapsed":95851,"internal_node_id":"0.0-43.0","subject":"S1C1651","sona":"41484","block":5,"time":"2021-09-22T02:06:15.876Z","response":"2nd","certainty":"high","char":"L","transposition":-3,"order":["swapped","shifted"],"probe_pitches":[4,9,12,11,6,11,5,1,10,12,11,6,7,0,3,12],"shifted_pitches":[4,9,12,11,6,11,5,2,10,12,11,6,7,0,3,12],"swapped_pitches":[4,9,12,11,6,11,5,10,1,12,11,6,7,0,3,12],"shift_direction":1,"question_num":31,"has_decoy":false},{"rt":360.5,"stimulus":"[A] option 1, [L] option 2, [G] neither","key_press":76,"name":"choice","trial_type":"html-keyboard-response","trial_index":54,"time_elapsed":119810,"internal_node_id":"0.0-54.0","subject":"S1C1651","sona":"41484","block":5,"time":"2021-09-22T02:06:15.876Z","response":"2nd","certainty":"high","char":"L","transposition":-2,"order":["swapped","shifted"],"probe_pitches":[6,4,8,5,9,3,1,8,5,11,2,11,4,9,11,4],"shifted_pitches":[6,4,8,5,9,3,1,7,5,11,2,11,4,9,11,4],"swapped_pitches":[6,4,8,5,9,3,1,5,8,11,2,11,4,9,11,4],"shift_direction":-1,"question_num":41,"has_decoy":false},{"rt":529.9000000059605,"stimulus":"[A] option 1, [L] option 2, [G] neither","key_press":76,"name":"choice","trial_type":"html-keyboard-response","trial_index":65,"time_elapsed":142720,"internal_node_id":"0.0-65.0","subject":"S1C1651","sona":"41484","block":5,"time":"2021-09-22T02:06:15.876Z","response":"2nd","certainty":"high","char":"L","transposition":2,"order":["shifted","swapped"],"probe_pitches":[3,0,6,10,2,4,8,3,10,8,3,2,10,4,8,5],"shifted_pitches":[3,0,6,10,2,4,8,3,11,8,3,2,10,4,8,5],"swapped_pitches":[3,0,6,10,2,4,8,10,3,8,3,2,10,4,8,5],"shift_direction":1,"question_num":51,"has_decoy":false},{"rt":415.30000001192093,"stimulus":"[A] option 1, [L] option 2, [G] neither","key_press":65,"name":"choice","trial_type":"html-keyboard-response","trial_index":76,"time_elapsed":165655,"internal_node_id":"0.0-76.0","subject":"S1C1651","sona":"41484","block":5,"time":"2021-09-22T02:06:15.876Z","response":"1st","certainty":"high","char":"A","transposition":-1,"order":["shifted","swapped"],"probe_pitches":[-2,0,3,-2,0,5,-2,0,5,10,3,10,0,8,3,-2],"shifted_pitches":[-2,0,3,-2,0,5,-2,0,4,10,3,10,0,8,3,-2],"swapped_pitches":[-2,0,3,-2,0,5,-2,5,0,10,3,10,0,8,3,-2],"shift_direction":-1,"question_num":61,"has_decoy":false},{"rt":2806.0999999940395,"stimulus":"[A] option 1, [L] option 2, [G] neither","key_press":76,"name":"choice","trial_type":"html-keyboard-response","trial_index":87,"time_elapsed":190997,"internal_node_id":"0.0-87.0","subject":"S1C1651","sona":"41484","block":5,"time":"2021-09-22T02:06:15.876Z","response":"2nd","certainty":"high","char":"L","transposition":2,"order":["swapped","shifted"],"probe_pitches":[3,5,-2,5,3,-2,8,-2,0,5,0,-2,5,8,0,8],"shifted_pitches":[3,5,-2,5,3,-2,8,-1,0,5,0,-2,5,8,0,8],"swapped_pitches":[3,5,-2,5,3,-2,8,0,-2,5,0,-2,5,8,0,8],"shift_direction":1,"question_num":71,"has_decoy":false},{"rt":345.5,"stimulus":"[A] option 1, [L] option 2, [G] neither","key_press":65,"name":"choice","trial_type":"html-keyboard-response","trial_index":98,"time_elapsed":267658,"internal_node_id":"0.0-98.0","subject":"S1C1651","sona":"41484","block":5,"time":"2021-09-22T02:06:15.876Z","response":"1st","certainty":"high","char":"A","transposition":-2,"order":["swapped","shifted"],"probe_pitches":[5,7,9,3,12,2,1,8,9,2,6,12,8,7,12,2],"shifted_pitches":[5,7,9,3,12,2,1,8,10,2,6,12,8,7,12,2],"swapped_pitches":[5,7,9,3,12,2,1,9,8,2,6,12,8,7,12,2],"shift_direction":1,"question_num":81,"has_decoy":false},{"rt":161.40000000596046,"stimulus":"[A] option 1, [L] option 2, [G] neither","key_press":65,"name":"choice","trial_type":"html-keyboard-response","trial_index":109,"time_elapsed":290331,"internal_node_id":"0.0-109.0","subject":"S1C1651","sona":"41484","block":5,"time":"2021-09-22T02:06:15.876Z","response":"1st","certainty":"high","char":"A","transposition":3,"order":["shifted","swapped"],"probe_pitches":[0,5,-2,5,0,7,5,3,-2,7,-2,5,3,10,3,5],"shifted_pitches":[0,5,-2,5,0,7,5,3,-3,7,-2,5,3,10,3,5],"swapped_pitches":[0,5,-2,5,0,7,5,-2,3,7,-2,5,3,10,3,5],"shift_direction":-1,"question_num":91,"has_decoy":false},{"rt":621.7999999970198,"stimulus":"[A] option 1, [L] option 2, [G] neither","key_press":76,"name":"choice","trial_type":"html-keyboard-response","trial_index":120,"time_elapsed":313541,"internal_node_id":"0.0-120.0","subject":"S1C1651","sona":"41484","block":5,"time":"2021-09-22T02:06:15.876Z","response":"2nd","certainty":"high","char":"L","transposition":1,"order":["shifted","swapped"],"probe_pitches":[5,0,2,-2,5,0,10,2,0,10,2,0,5,-2,5,7],"shifted_pitches":[5,0,2,-2,5,0,10,2,1,10,2,0,5,-2,5,7],"swapped_pitches":[5,0,2,-2,5,0,10,0,2,10,2,0,5,-2,5,7],"shift_direction":1,"question_num":101,"has_decoy":false},{"rt":1416.5,"stimulus":"[A] option 1, [L] option 2, [G] neither","key_press":65,"name":"choice","trial_type":"html-keyboard-response","trial_index":131,"time_elapsed":338507,"internal_node_id":"0.0-131.0","subject":"S1C1651","sona":"41484","block":5,"time":"2021-09-22T02:06:15.876Z","response":"1st","certainty":"high","char":"A","transposition":3,"order":["shifted","swapped"],"probe_pitches":[7,9,2,8,3,6,7,11,6,7,1,6,9,6,3,6],"shifted_pitches":[7,9,2,8,3,6,7,11,5,7,1,6,9,6,3,6],"swapped_pitches":[7,9,2,8,3,6,7,6,11,7,1,6,9,6,3,6],"shift_direction":-1,"question_num":111,"has_decoy":false},{"rt":57.20000000298023,"stimulus":"[A] option 1, [L] option 2, [G] neither","key_press":76,"name":"choice","trial_type":"html-keyboard-response","trial_index":142,"time_elapsed":361868,"internal_node_id":"0.0-142.0","subject":"S1C1651","sona":"41484","block":5,"time":"2021-09-22T02:06:15.876Z","response":"2nd","certainty":"high","char":"L","transposition":-1,"order":["swapped","shifted"],"probe_pitches":[1,6,0,1,0,1,10,11,8,3,5,7,8,0,2,7],"shifted_pitches":[1,6,0,1,0,1,10,11,9,3,5,7,8,0,2,7],"swapped_pitches":[1,6,0,1,0,1,10,8,11,3,5,7,8,0,2,7],"shift_direction":1,"question_num":121,"has_decoy":false},{"rt":1121.2999999970198,"stimulus":"[A] option 1, [L] option 2, [G] neither","key_press":65,"name":"choice","trial_type":"html-keyboard-response","trial_index":153,"time_elapsed":385470,"internal_node_id":"0.0-153.0","subject":"S1C1651","sona":"41484","block":5,"time":"2021-09-22T02:06:15.876Z","response":"1st","certainty":"high","char":"A","transposition":-3,"order":["shifted","swapped"],"probe_pitches":[10,8,12,8,4,12,3,7,1,3,9,10,1,2,5,4],"shifted_pitches":[10,8,12,8,4,12,3,6,1,3,9,10,1,2,5,4],"swapped_pitches":[10,8,12,8,4,12,3,1,7,3,9,10,1,2,5,4],"shift_direction":-1,"question_num":131,"has_decoy":false},{"rt":115.29999999701977,"stimulus":"[A] option 1, [L] option 2, [G] neither","key_press":76,"name":"choice","trial_type":"html-keyboard-response","trial_index":164,"time_elapsed":407920,"internal_node_id":"0.0-164.0","subject":"S1C1651","sona":"41484","block":5,"time":"2021-09-22T02:06:15.876Z","response":"2nd","certainty":"high","char":"L","transposition":-3,"order":["swapped","shifted"],"probe_pitches":[5,0,7,10,5,-2,5,-2,3,5,3,-2,5,10,7,-2],"shifted_pitches":[5,0,7,10,5,-2,5,-1,3,5,3,-2,5,10,7,-2],"swapped_pitches":[5,0,7,10,5,-2,5,3,-2,5,3,-2,5,10,7,-2],"shift_direction":1,"question_num":141,"has_decoy":false},{"rt":913.9000000059605,"stimulus":"[A] option 1, [L] option 2, [G] neither","key_press":65,"name":"choice","trial_type":"html-keyboard-response","trial_index":175,"time_elapsed":431194,"internal_node_id":"0.0-175.0","subject":"S1C1651","sona":"41484","block":5,"time":"2021-09-22T02:06:15.876Z","response":"1st","certainty":"high","char":"A","transposition":-2,"order":["shifted","swapped"],"probe_pitches":[10,6,8,1,8,3,1,6,8,-2,10,3,-2,10,1,3],"shifted_pitches":[10,6,8,1,8,3,1,7,8,-2,10,3,-2,10,1,3],"swapped_pitches":[10,6,8,1,8,3,1,8,6,-2,10,3,-2,10,1,3],"shift_direction":1,"question_num":151,"has_decoy":false},{"rt":493.19999998807907,"stimulus":"[A] option 1, [L] option 2, [G] neither","key_press":76,"name":"choice","trial_type":"html-keyboard-response","trial_index":186,"time_elapsed":454064,"internal_node_id":"0.0-186.0","subject":"S1C1651","sona":"41484","block":5,"time":"2021-09-22T02:06:15.876Z","response":"2nd","certainty":"high","char":"L","transposition":0,"order":["swapped","shifted"],"probe_pitches":[10,8,6,8,1,10,1,3,-2,6,10,1,10,3,1,6],"shifted_pitches":[10,8,6,8,1,10,1,2,-2,6,10,1,10,3,1,6],"swapped_pitches":[10,8,6,8,1,10,1,-2,3,6,10,1,10,3,1,6],"shift_direction":-1,"question_num":161,"has_decoy":false},{"rt":594,"stimulus":"[A] option 1, [L] option 2, [G] neither","key_press":65,"name":"choice","trial_type":"html-keyboard-response","trial_index":197,"time_elapsed":476844,"internal_node_id":"0.0-197.0","subject":"S1C1651","sona":"41484","block":5,"time":"2021-09-22T02:06:15.876Z","response":"1st","certainty":"high","char":"A","transposition":-3,"order":["swapped","shifted"],"probe_pitches":[7,2,0,-2,7,5,10,5,7,0,2,5,0,-2,2,7],"shifted_pitches":[7,2,0,-2,7,5,10,6,7,0,2,5,0,-2,2,7],"swapped_pitches":[7,2,0,-2,7,5,10,7,5,0,2,5,0,-2,2,7],"shift_direction":1,"question_num":171,"has_decoy":false},{"rt":3583.7999999970198,"stimulus":"[A] option 1, [L] option 2, [G] neither","key_press":76,"name":"choice","trial_type":"html-keyboard-response","trial_index":208,"time_elapsed":502824,"internal_node_id":"0.0-208.0","subject":"S1C1651","sona":"41484","block":5,"time":"2021-09-22T02:06:15.876Z","response":"2nd","certainty":"high","char":"L","transposition":-1,"order":["swapped","shifted"],"probe_pitches":[1,5,10,5,3,-2,3,8,1,3,1,10,1,-2,5,8],"shifted_pitches":[1,5,10,5,3,-2,3,8,0,3,1,10,1,-2,5,8],"swapped_pitches":[1,5,10,5,3,-2,3,1,8,3,1,10,1,-2,5,8],"shift_direction":-1,"question_num":181,"has_decoy":false},{"rt":2403.5999999940395,"stimulus":"[A] option 1, [L] option 2, [G] neither","key_press":65,"name":"choice","trial_type":"html-keyboard-response","trial_index":219,"time_elapsed":527582,"internal_node_id":"0.0-219.0","subject":"S1C1651","sona":"41484","block":5,"time":"2021-09-22T02:06:15.876Z","response":"1st","certainty":"high","char":"A","transposition":0,"order":["shifted","swapped"],"probe_pitches":[8,6,2,4,2,9,10,2,4,8,9,4,10,7,2,8],"shifted_pitches":[8,6,2,4,2,9,10,2,3,8,9,4,10,7,2,8],"swapped_pitches":[8,6,2,4,2,9,10,4,2,8,9,4,10,7,2,8],"shift_direction":-1,"question_num":191,"has_decoy":false}]