[{"rt":5387.399999991059,"stimulus":"[A] option 1, [L] option 2, [G] neither","key_press":65,"name":"choice","trial_type":"html-keyboard-response","trial_index":15,"time_elapsed":367711,"internal_node_id":"0.0-15.0","response":"1st","certainty":"high","char":"A","transposition":-1,"order":["swapped","shifted"],"probe_pitches":[1,4,3,10,3,-2,-1,-2,5,4,8,2,8,3,7,0],"shifted_pitches":[1,4,3,10,3,-2,-1,-3,5,4,8,2,8,3,7,0],"swapped_pitches":[1,4,3,10,3,-2,-1,5,-2,4,8,2,8,3,7,0],"shift_direction":-1,"question_num":1,"has_decoy":false,"subject":"S1C1651","sona":"41484","block":1,"time":"2021-09-22T01:24:58.401Z"},{"rt":2129.800000011921,"stimulus":"[A] option 1, [L] option 2, [G] neither","key_press":76,"name":"choice","trial_type":"html-keyboard-response","trial_index":26,"time_elapsed":394791,"internal_node_id":"0.0-26.0","response":"2nd","certainty":"high","char":"L","transposition":-3,"order":["swapped","shifted"],"probe_pitches":[8,6,8,1,-1,8,11,-1,8,11,4,6,8,6,8,1],"shifted_pitches":[8,6,8,1,-1,8,11,0,8,11,4,6,8,6,8,1],"swapped_pitches":[8,6,8,1,-1,8,11,8,-1,11,4,6,8,6,8,1],"shift_direction":1,"question_num":11,"has_decoy":false,"subject":"S1C1651","sona":"41484","block":1,"time":"2021-09-22T01:24:58.401Z"},{"rt":1409.5,"stimulus":"[A] option 1, [L] option 2, [G] neither","key_press":65,"name":"choice","trial_type":"html-keyboard-response","trial_index":37,"time_elapsed":422942,"internal_node_id":"0.0-37.0","response":"1st","certainty":"high","char":"A","transposition":-2,"order":["swapped","shifted"],"probe_pitches":[-1,3,6,-1,3,-1,1,6,11,8,1,11,3,-1,3,1],"shifted_pitches":[-1,3,6,-1,3,-1,1,5,11,8,1,11,3,-1,3,1],"swapped_pitches":[-1,3,6,-1,3,-1,1,11,6,8,1,11,3,-1,3,1],"shift_direction":-1,"question_num":21,"has_decoy":false,"subject":"S1C1651","sona":"41484","block":1,"time":"2021-09-22T01:24:58.401Z"},{"rt":787.1000000089407,"stimulus":"[A] option 1, [L] option 2, [G] neither","key_press":65,"name":"choice","trial_type":"html-keyboard-response","trial_index":48,"time_elapsed":446892,"internal_node_id":"0.0-48.0","response":"1st","certainty":"high","char":"A","transposition":1,"order":["shifted","swapped"],"probe_pitches":[9,4,-1,6,9,2,6,2,11,4,9,4,11,6,-1,2],"shifted_pitches":[9,4,-1,6,9,2,6,1,11,4,9,4,11,6,-1,2],"swapped_pitches":[9,4,-1,6,9,2,6,11,2,4,9,4,11,6,-1,2],"shift_direction":-1,"question_num":31,"has_decoy":false,"subject":"S1C1651","sona":"41484","block":1,"time":"2021-09-22T01:24:58.401Z"},{"rt":648.9000000059605,"stimulus":"[A] option 1, [L] option 2, [G] neither","key_press":76,"name":"choice","trial_type":"html-keyboard-response","trial_index":59,"time_elapsed":470932,"internal_node_id":"0.0-59.0","response":"2nd","certainty":"high","char":"L","transposition":1,"order":["shifted","swapped"],"probe_pitches":[-2,1,8,7,1,6,1,5,-1,2,7,8,9,-1,1,5],"shifted_pitches":[-2,1,8,7,1,6,1,5,0,2,7,8,9,-1,1,5],"swapped_pitches":[-2,1,8,7,1,6,1,-1,5,2,7,8,9,-1,1,5],"shift_direction":1,"question_num":41,"has_decoy":false,"subject":"S1C1651","sona":"41484","block":1,"time":"2021-09-22T01:24:58.401Z"},{"rt":608.2000000029802,"stimulus":"[A] option 1, [L] option 2, [G] neither","key_press":65,"name":"choice","trial_type":"html-keyboard-response","trial_index":70,"time_elapsed":494022,"internal_node_id":"0.0-70.0","response":"1st","certainty":"high","char":"A","transposition":-1,"order":["shifted","swapped"],"probe_pitches":[5,8,6,-1,-2,8,6,7,5,3,-2,7,8,10,5,9],"shifted_pitches":[5,8,6,-1,-2,8,6,7,4,3,-2,7,8,10,5,9],"swapped_pitches":[5,8,6,-1,-2,8,6,5,7,3,-2,7,8,10,5,9],"shift_direction":-1,"question_num":51,"has_decoy":false,"subject":"S1C1651","sona":"41484","block":1,"time":"2021-09-22T01:24:58.401Z"},{"rt":638.1999999880791,"stimulus":"[A] option 1, [L] option 2, [G] neither","key_press":65,"name":"choice","trial_type":"html-keyboard-response","trial_index":81,"time_elapsed":517231,"internal_node_id":"0.0-81.0","response":"1st","certainty":"high","char":"A","transposition":-1,"order":["shifted","swapped"],"probe_pitches":[9,6,1,9,4,11,1,-1,9,4,-1,9,-1,9,-1,11],"shifted_pitches":[9,6,1,9,4,11,1,0,9,4,-1,9,-1,9,-1,11],"swapped_pitches":[9,6,1,9,4,11,1,9,-1,4,-1,9,-1,9,-1,11],"shift_direction":1,"question_num":61,"has_decoy":false,"subject":"S1C1651","sona":"41484","block":1,"time":"2021-09-22T01:24:58.401Z"},{"rt":1086.7999999970198,"stimulus":"[A] option 1, [L] option 2, [G] neither","key_press":76,"name":"choice","trial_type":"html-keyboard-response","trial_index":92,"time_elapsed":541301,"internal_node_id":"0.0-92.0","response":"2nd","certainty":"high","char":"L","transposition":0,"order":["swapped","shifted"],"probe_pitches":[-1,4,11,4,1,11,8,-1,11,8,11,6,4,6,8,-1],"shifted_pitches":[-1,4,11,4,1,11,8,-1,10,8,11,6,4,6,8,-1],"swapped_pitches":[-1,4,11,4,1,11,8,11,-1,8,11,6,4,6,8,-1],"shift_direction":-1,"question_num":71,"has_decoy":false,"subject":"S1C1651","sona":"41484","block":1,"time":"2021-09-22T01:24:58.401Z"},{"rt":766.1000000089407,"stimulus":"[A] option 1, [L] option 2, [G] neither","key_press":76,"name":"choice","trial_type":"html-keyboard-response","trial_index":103,"time_elapsed":564430,"internal_node_id":"0.0-103.0","response":"2nd","certainty":"high","char":"L","transposition":-3,"order":["swapped","shifted"],"probe_pitches":[9,3,9,6,3,2,0,6,5,2,6,-2,4,6,-1,5],"shifted_pitches":[9,3,9,6,3,2,0,7,5,2,6,-2,4,6,-1,5],"swapped_pitches":[9,3,9,6,3,2,0,5,6,2,6,-2,4,6,-1,5],"shift_direction":1,"question_num":81,"has_decoy":false,"subject":"S1C1651","sona":"41484","block":1,"time":"2021-09-22T01:24:58.401Z"},{"rt":806.4000000059605,"stimulus":"[A] option 1, [L] option 2, [G] neither","key_press":65,"name":"choice","trial_type":"html-keyboard-response","trial_index":114,"time_elapsed":588042,"internal_node_id":"0.0-114.0","response":"1st","certainty":"high","char":"A","transposition":2,"order":["swapped","shifted"],"probe_pitches":[7,1,-2,-1,7,6,-2,1,7,3,1,3,2,0,-1,9],"shifted_pitches":[7,1,-2,-1,7,6,-2,1,8,3,1,3,2,0,-1,9],"swapped_pitches":[7,1,-2,-1,7,6,-2,7,1,3,1,3,2,0,-1,9],"shift_direction":1,"question_num":91,"has_decoy":false,"subject":"S1C1651","sona":"41484","block":1,"time":"2021-09-22T01:24:58.401Z"},{"rt":985.3999999910593,"stimulus":"[A] option 1, [L] option 2, [G] neither","key_press":65,"name":"choice","trial_type":"html-keyboard-response","trial_index":125,"time_elapsed":611889,"internal_node_id":"0.0-125.0","response":"1st","certainty":"high","char":"A","transposition":-2,"order":["swapped","shifted"],"probe_pitches":[10,6,10,9,0,8,10,2,-1,7,10,6,-2,10,2,10],"shifted_pitches":[10,6,10,9,0,8,10,1,-1,7,10,6,-2,10,2,10],"swapped_pitches":[10,6,10,9,0,8,10,-1,2,7,10,6,-2,10,2,10],"shift_direction":-1,"question_num":101,"has_decoy":false,"subject":"S1C1651","sona":"41484","block":1,"time":"2021-09-22T01:24:58.401Z"},{"rt":484.40000000596046,"stimulus":"[A] option 1, [L] option 2, [G] neither","key_press":76,"name":"choice","trial_type":"html-keyboard-response","trial_index":136,"time_elapsed":634879,"internal_node_id":"0.0-136.0","response":"2nd","certainty":"high","char":"L","transposition":-1,"order":["shifted","swapped"],"probe_pitches":[9,11,4,9,7,-1,4,11,9,4,-1,2,-1,9,2,-1],"shifted_pitches":[9,11,4,9,7,-1,4,11,10,4,-1,2,-1,9,2,-1],"swapped_pitches":[9,11,4,9,7,-1,4,9,11,4,-1,2,-1,9,2,-1],"shift_direction":1,"question_num":111,"has_decoy":false,"subject":"S1C1651","sona":"41484","block":1,"time":"2021-09-22T01:24:58.401Z"},{"rt":1903.2999999970198,"stimulus":"[A] option 1, [L] option 2, [G] neither","key_press":76,"name":"choice","trial_type":"html-keyboard-response","trial_index":147,"time_elapsed":659320,"internal_node_id":"0.0-147.0","response":"2nd","certainty":"high","char":"L","transposition":3,"order":["shifted","swapped"],"probe_pitches":[2,-1,2,7,2,4,11,9,7,11,-1,4,11,4,9,7],"shifted_pitches":[2,-1,2,7,2,4,11,9,8,11,-1,4,11,4,9,7],"swapped_pitches":[2,-1,2,7,2,4,11,7,9,11,-1,4,11,4,9,7],"shift_direction":1,"question_num":121,"has_decoy":false,"subject":"S1C1651","sona":"41484","block":1,"time":"2021-09-22T01:24:58.401Z"},{"rt":984.1999999880791,"stimulus":"[A] option 1, [L] option 2, [G] neither","key_press":65,"name":"choice","trial_type":"html-keyboard-response","trial_index":158,"time_elapsed":683848,"internal_node_id":"0.0-158.0","response":"1st","certainty":"high","char":"A","transposition":-3,"order":["swapped","shifted"],"probe_pitches":[9,6,2,9,6,4,9,11,2,-1,2,6,2,-1,6,9],"shifted_pitches":[9,6,2,9,6,4,9,11,3,-1,2,6,2,-1,6,9],"swapped_pitches":[9,6,2,9,6,4,9,2,11,-1,2,6,2,-1,6,9],"shift_direction":1,"question_num":131,"has_decoy":false,"subject":"S1C1651","sona":"41484","block":1,"time":"2021-09-22T01:24:58.401Z"},{"rt":413.5,"stimulus":"[A] option 1, [L] option 2, [G] neither","key_press":76,"name":"choice","trial_type":"html-keyboard-response","trial_index":169,"time_elapsed":707088,"internal_node_id":"0.0-169.0","response":"2nd","certainty":"high","char":"L","transposition":-2,"order":["swapped","shifted"],"probe_pitches":[-1,4,1,4,-1,1,6,-1,9,1,9,1,11,9,6,-1],"shifted_pitches":[-1,4,1,4,-1,1,6,-1,8,1,9,1,11,9,6,-1],"swapped_pitches":[-1,4,1,4,-1,1,6,9,-1,1,9,1,11,9,6,-1],"shift_direction":-1,"question_num":141,"has_decoy":false,"subject":"S1C1651","sona":"41484","block":1,"time":"2021-09-22T01:24:58.401Z"},{"rt":1047.2999999970198,"stimulus":"[A] option 1, [L] option 2, [G] neither","key_press":76,"name":"choice","trial_type":"html-keyboard-response","trial_index":180,"time_elapsed":730572,"internal_node_id":"0.0-180.0","response":"2nd","certainty":"high","char":"L","transposition":3,"order":["shifted","swapped"],"probe_pitches":[3,8,9,1,0,4,9,2,6,7,0,8,0,9,6,7],"shifted_pitches":[3,8,9,1,0,4,9,2,5,7,0,8,0,9,6,7],"swapped_pitches":[3,8,9,1,0,4,9,6,2,7,0,8,0,9,6,7],"shift_direction":-1,"question_num":151,"has_decoy":false,"subject":"S1C1651","sona":"41484","block":1,"time":"2021-09-22T01:24:58.401Z"},{"rt":493.79999999701977,"stimulus":"[A] option 1, [L] option 2, [G] neither","key_press":76,"name":"choice","trial_type":"html-keyboard-response","trial_index":191,"time_elapsed":754217,"internal_node_id":"0.0-191.0","response":"2nd","certainty":"high","char":"L","transposition":-3,"order":["swapped","shifted"],"probe_pitches":[9,3,0,8,-1,-2,8,5,9,10,0,1,8,2,9,3],"shifted_pitches":[9,3,0,8,-1,-2,8,6,9,10,0,1,8,2,9,3],"swapped_pitches":[9,3,0,8,-1,-2,8,9,5,10,0,1,8,2,9,3],"shift_direction":1,"question_num":161,"has_decoy":false,"subject":"S1C1651","sona":"41484","block":1,"time":"2021-09-22T01:24:58.401Z"},{"rt":1202.6000000089407,"stimulus":"[A] option 1, [L] option 2, [G] neither","key_press":76,"name":"choice","trial_type":"html-keyboard-response","trial_index":202,"time_elapsed":778207,"internal_node_id":"0.0-202.0","response":"2nd","certainty":"high","char":"L","transposition":-2,"order":["shifted","swapped"],"probe_pitches":[10,8,10,7,6,0,-1,3,10,7,3,-2,3,-2,8,-2],"shifted_pitches":[10,8,10,7,6,0,-1,2,10,7,3,-2,3,-2,8,-2],"swapped_pitches":[10,8,10,7,6,0,-1,10,3,7,3,-2,3,-2,8,-2],"shift_direction":-1,"question_num":171,"has_decoy":false,"subject":"S1C1651","sona":"41484","block":1,"time":"2021-09-22T01:24:58.401Z"},{"rt":2975.7999999970198,"stimulus":"[A] option 1, [L] option 2, [G] neither","key_press":65,"name":"choice","trial_type":"html-keyboard-response","trial_index":213,"time_elapsed":803960,"internal_node_id":"0.0-213.0","response":"1st","certainty":"high","char":"A","transposition":2,"order":["shifted","swapped"],"probe_pitches":[8,3,6,-1,1,8,1,6,-1,1,6,3,6,1,-1,11],"shifted_pitches":[8,3,6,-1,1,8,1,5,-1,1,6,3,6,1,-1,11],"swapped_pitches":[8,3,6,-1,1,8,1,-1,6,1,6,3,6,1,-1,11],"shift_direction":-1,"question_num":181,"has_decoy":false,"subject":"S1C1651","sona":"41484","block":1,"time":"2021-09-22T01:24:58.401Z"},{"rt":2163.0999999940395,"stimulus":"[A] option 1, [L] option 2, [G] neither","key_press":76,"name":"choice","trial_type":"html-keyboard-response","trial_index":224,"time_elapsed":828896,"internal_node_id":"0.0-224.0","response":"2nd","certainty":"high","char":"L","transposition":0,"order":["shifted","swapped"],"probe_pitches":[9,6,8,10,5,6,5,6,2,5,10,2,10,7,-1,7],"shifted_pitches":[9,6,8,10,5,6,5,6,3,5,10,2,10,7,-1,7],"swapped_pitches":[9,6,8,10,5,6,5,2,6,5,10,2,10,7,-1,7],"shift_direction":1,"question_num":191,"has_decoy":false,"subject":"S1C1651","sona":"41484","block":1,"time":"2021-09-22T01:24:58.401Z"}]