[{"rt":372.7000000476837,"stimulus":"[A] option 1, [L] option 2, [G] neither","key_press":65,"name":"choice","trial_type":"html-keyboard-response","trial_index":10,"time_elapsed":121265,"internal_node_id":"0.0-10.0","subject":"S1C0807","sona":"41419","block":3,"time":"2021-09-06T17:18:42.108Z","response":"1st","certainty":"high","char":"A","transposition":-1,"order":["swapped","shifted"],"probe_pitches":[11,10,5,3,7,5,11,8],"shifted_pitches":[11,10,5,4,7,5,11,8],"swapped_pitches":[11,10,5,7,3,5,11,8],"shift_direction":1,"question_num":1,"has_decoy":false},{"rt":1328.3999999761581,"stimulus":"[A] option 1, [L] option 2, [G] neither","key_press":76,"name":"choice","trial_type":"html-keyboard-response","trial_index":21,"time_elapsed":136924,"internal_node_id":"0.0-21.0","subject":"S1C0807","sona":"41419","block":3,"time":"2021-09-06T17:18:42.108Z","response":"2nd","certainty":"high","char":"L","transposition":0,"order":["shifted","swapped"],"probe_pitches":[11,9,7,2,0,4,-1,1],"shifted_pitches":[11,9,7,3,0,4,-1,1],"swapped_pitches":[11,9,7,0,2,4,-1,1],"shift_direction":1,"question_num":11,"has_decoy":false},{"rt":461,"stimulus":"[A] option 1, [L] option 2, [G] neither","key_press":76,"name":"choice","trial_type":"html-keyboard-response","trial_index":32,"time_elapsed":151759,"internal_node_id":"0.0-32.0","subject":"S1C0807","sona":"41419","block":3,"time":"2021-09-06T17:18:42.108Z","response":"2nd","certainty":"high","char":"L","transposition":-3,"order":["shifted","swapped"],"probe_pitches":[6,4,1,6,11,4,8,11],"shifted_pitches":[6,4,1,5,11,4,8,11],"swapped_pitches":[6,4,1,11,6,4,8,11],"shift_direction":-1,"question_num":21,"has_decoy":false},{"rt":2570.599999964237,"stimulus":"[A] option 1, [L] option 2, [G] neither","key_press":65,"name":"choice","trial_type":"html-keyboard-response","trial_index":43,"time_elapsed":168514,"internal_node_id":"0.0-43.0","subject":"S1C0807","sona":"41419","block":3,"time":"2021-09-06T17:18:42.108Z","response":"1st","certainty":"high","char":"A","transposition":-3,"order":["swapped","shifted"],"probe_pitches":[1,6,11,6,4,11,6,9],"shifted_pitches":[1,6,11,5,4,11,6,9],"swapped_pitches":[1,6,11,4,6,11,6,9],"shift_direction":-1,"question_num":31,"has_decoy":false},{"rt":441.80000001192093,"stimulus":"[A] option 1, [L] option 2, [G] neither","key_press":76,"name":"choice","trial_type":"html-keyboard-response","trial_index":54,"time_elapsed":183570,"internal_node_id":"0.0-54.0","subject":"S1C0807","sona":"41419","block":3,"time":"2021-09-06T17:18:42.108Z","response":"2nd","certainty":"high","char":"L","transposition":2,"order":["shifted","swapped"],"probe_pitches":[6,10,11,3,10,0,4,1],"shifted_pitches":[6,10,11,2,10,0,4,1],"swapped_pitches":[6,10,11,10,3,0,4,1],"shift_direction":-1,"question_num":41,"has_decoy":false},{"rt":401,"stimulus":"[A] option 1, [L] option 2, [G] neither","key_press":76,"name":"choice","trial_type":"html-keyboard-response","trial_index":65,"time_elapsed":198670,"internal_node_id":"0.0-65.0","subject":"S1C0807","sona":"41419","block":3,"time":"2021-09-06T17:18:42.108Z","response":"2nd","certainty":"high","char":"L","transposition":0,"order":["swapped","shifted"],"probe_pitches":[3,6,8,3,1,6,8,-1],"shifted_pitches":[3,6,8,3,0,6,8,-1],"swapped_pitches":[3,6,8,1,3,6,8,-1],"shift_direction":-1,"question_num":51,"has_decoy":false},{"rt":538.6000000238419,"stimulus":"[A] option 1, [L] option 2, [G] neither","key_press":65,"name":"choice","trial_type":"html-keyboard-response","trial_index":76,"time_elapsed":213779,"internal_node_id":"0.0-76.0","subject":"S1C0807","sona":"41419","block":3,"time":"2021-09-06T17:18:42.108Z","response":"1st","certainty":"high","char":"A","transposition":1,"order":["shifted","swapped"],"probe_pitches":[7,11,4,11,9,-1,2,-1],"shifted_pitches":[7,11,4,11,8,-1,2,-1],"swapped_pitches":[7,11,4,9,11,-1,2,-1],"shift_direction":-1,"question_num":61,"has_decoy":false},{"rt":384,"stimulus":"[A] option 1, [L] option 2, [G] neither","key_press":65,"name":"choice","trial_type":"html-keyboard-response","trial_index":87,"time_elapsed":228361,"internal_node_id":"0.0-87.0","subject":"S1C0807","sona":"41419","block":3,"time":"2021-09-06T17:18:42.108Z","response":"1st","certainty":"high","char":"A","transposition":3,"order":["swapped","shifted"],"probe_pitches":[7,5,4,0,5,9,11,10],"shifted_pitches":[7,5,4,0,6,9,11,10],"swapped_pitches":[7,5,4,5,0,9,11,10],"shift_direction":1,"question_num":71,"has_decoy":false},{"rt":402.5,"stimulus":"[A] option 1, [L] option 2, [G] neither","key_press":76,"name":"choice","trial_type":"html-keyboard-response","trial_index":98,"time_elapsed":243110,"internal_node_id":"0.0-98.0","subject":"S1C0807","sona":"41419","block":3,"time":"2021-09-06T17:18:42.108Z","response":"2nd","certainty":"high","char":"L","transposition":-3,"order":["swapped","shifted"],"probe_pitches":[6,8,5,10,7,-1,5,7],"shifted_pitches":[6,8,5,9,7,-1,5,7],"swapped_pitches":[6,8,5,7,10,-1,5,7],"shift_direction":-1,"question_num":81,"has_decoy":false},{"rt":478.80000001192093,"stimulus":"[A] option 1, [L] option 2, [G] neither","key_press":76,"name":"choice","trial_type":"html-keyboard-response","trial_index":109,"time_elapsed":257971,"internal_node_id":"0.0-109.0","subject":"S1C0807","sona":"41419","block":3,"time":"2021-09-06T17:18:42.108Z","response":"2nd","certainty":"high","char":"L","transposition":-3,"order":["swapped","shifted"],"probe_pitches":[0,1,3,4,8,3,5,-1],"shifted_pitches":[0,1,3,4,7,3,5,-1],"swapped_pitches":[0,1,3,8,4,3,5,-1],"shift_direction":-1,"question_num":91,"has_decoy":false},{"rt":558.1999999880791,"stimulus":"[A] option 1, [L] option 2, [G] neither","key_press":76,"name":"choice","trial_type":"html-keyboard-response","trial_index":120,"time_elapsed":272915,"internal_node_id":"0.0-120.0","subject":"S1C0807","sona":"41419","block":3,"time":"2021-09-06T17:18:42.108Z","response":"2nd","certainty":"high","char":"L","transposition":-2,"order":["swapped","shifted"],"probe_pitches":[7,9,5,8,11,7,3,5],"shifted_pitches":[7,9,5,8,10,7,3,5],"swapped_pitches":[7,9,5,11,8,7,3,5],"shift_direction":-1,"question_num":101,"has_decoy":false},{"rt":1228.5,"stimulus":"[A] option 1, [L] option 2, [G] neither","key_press":65,"name":"choice","trial_type":"html-keyboard-response","trial_index":131,"time_elapsed":289153,"internal_node_id":"0.0-131.0","subject":"S1C0807","sona":"41419","block":3,"time":"2021-09-06T17:18:42.108Z","response":"1st","certainty":"high","char":"A","transposition":3,"order":["shifted","swapped"],"probe_pitches":[9,4,-1,6,2,11,9,11],"shifted_pitches":[9,4,-1,6,3,11,9,11],"swapped_pitches":[9,4,-1,2,6,11,9,11],"shift_direction":1,"question_num":111,"has_decoy":false},{"rt":279.80000001192093,"stimulus":"[A] option 1, [L] option 2, [G] neither","key_press":76,"name":"choice","trial_type":"html-keyboard-response","trial_index":142,"time_elapsed":303869,"internal_node_id":"0.0-142.0","subject":"S1C0807","sona":"41419","block":3,"time":"2021-09-06T17:18:42.108Z","response":"2nd","certainty":"high","char":"L","transposition":1,"order":["shifted","swapped"],"probe_pitches":[6,7,8,11,6,9,11,2],"shifted_pitches":[6,7,8,11,5,9,11,2],"swapped_pitches":[6,7,8,6,11,9,11,2],"shift_direction":-1,"question_num":121,"has_decoy":false},{"rt":610.0999999642372,"stimulus":"[A] option 1, [L] option 2, [G] neither","key_press":65,"name":"choice","trial_type":"html-keyboard-response","trial_index":153,"time_elapsed":319106,"internal_node_id":"0.0-153.0","subject":"S1C0807","sona":"41419","block":3,"time":"2021-09-06T17:18:42.108Z","response":"1st","certainty":"high","char":"A","transposition":-2,"order":["swapped","shifted"],"probe_pitches":[11,6,-1,1,4,9,6,4],"shifted_pitches":[11,6,-1,0,4,9,6,4],"swapped_pitches":[11,6,-1,4,1,9,6,4],"shift_direction":-1,"question_num":131,"has_decoy":false},{"rt":409.4000000357628,"stimulus":"[A] option 1, [L] option 2, [G] neither","key_press":76,"name":"choice","trial_type":"html-keyboard-response","trial_index":164,"time_elapsed":334164,"internal_node_id":"0.0-164.0","subject":"S1C0807","sona":"41419","block":3,"time":"2021-09-06T17:18:42.108Z","response":"2nd","certainty":"high","char":"L","transposition":-1,"order":["swapped","shifted"],"probe_pitches":[-1,2,4,9,2,7,4,2],"shifted_pitches":[-1,2,4,9,3,7,4,2],"swapped_pitches":[-1,2,4,2,9,7,4,2],"shift_direction":1,"question_num":141,"has_decoy":false},{"rt":719.5,"stimulus":"[A] option 1, [L] option 2, [G] neither","key_press":65,"name":"choice","trial_type":"html-keyboard-response","trial_index":175,"time_elapsed":349386,"internal_node_id":"0.0-175.0","subject":"S1C0807","sona":"41419","block":3,"time":"2021-09-06T17:18:42.108Z","response":"1st","certainty":"high","char":"A","transposition":-2,"order":["shifted","swapped"],"probe_pitches":[0,6,3,7,10,0,-1,0],"shifted_pitches":[0,6,3,8,10,0,-1,0],"swapped_pitches":[0,6,3,10,7,0,-1,0],"shift_direction":1,"question_num":151,"has_decoy":false},{"rt":2695.199999988079,"stimulus":"[A] option 1, [L] option 2, [G] neither","key_press":76,"name":"choice","trial_type":"html-keyboard-response","trial_index":186,"time_elapsed":366445,"internal_node_id":"0.0-186.0","subject":"S1C0807","sona":"41419","block":3,"time":"2021-09-06T17:18:42.108Z","response":"2nd","certainty":"high","char":"L","transposition":2,"order":["shifted","swapped"],"probe_pitches":[-1,4,6,2,9,11,2,-1],"shifted_pitches":[-1,4,6,2,10,11,2,-1],"swapped_pitches":[-1,4,6,9,2,11,2,-1],"shift_direction":1,"question_num":161,"has_decoy":false},{"rt":596.2000000476837,"stimulus":"[A] option 1, [L] option 2, [G] neither","key_press":65,"name":"choice","trial_type":"html-keyboard-response","trial_index":197,"time_elapsed":381882,"internal_node_id":"0.0-197.0","subject":"S1C0807","sona":"41419","block":3,"time":"2021-09-06T17:18:42.108Z","response":"1st","certainty":"high","char":"A","transposition":-1,"order":["shifted","swapped"],"probe_pitches":[5,11,5,3,0,10,8,11],"shifted_pitches":[5,11,5,3,1,10,8,11],"swapped_pitches":[5,11,5,0,3,10,8,11],"shift_direction":1,"question_num":171,"has_decoy":false},{"rt":417.19999998807907,"stimulus":"[A] option 1, [L] option 2, [G] neither","key_press":76,"name":"choice","trial_type":"html-keyboard-response","trial_index":208,"time_elapsed":399101,"internal_node_id":"0.0-208.0","subject":"S1C0807","sona":"41419","block":3,"time":"2021-09-06T17:18:42.108Z","response":"2nd","certainty":"high","char":"L","transposition":-2,"order":["swapped","shifted"],"probe_pitches":[11,8,4,11,6,1,11,8],"shifted_pitches":[11,8,4,12,6,1,11,8],"swapped_pitches":[11,8,4,6,11,1,11,8],"shift_direction":1,"question_num":181,"has_decoy":false},{"rt":829.4000000357628,"stimulus":"[A] option 1, [L] option 2, [G] neither","key_press":76,"name":"choice","trial_type":"html-keyboard-response","trial_index":219,"time_elapsed":414861,"internal_node_id":"0.0-219.0","subject":"S1C0807","sona":"41419","block":3,"time":"2021-09-06T17:18:42.108Z","response":"2nd","certainty":"high","char":"L","transposition":-1,"order":["shifted","swapped"],"probe_pitches":[6,1,8,6,-1,1,3,-1],"shifted_pitches":[6,1,8,7,-1,1,3,-1],"swapped_pitches":[6,1,8,-1,6,1,3,-1],"shift_direction":1,"question_num":191,"has_decoy":false}]