[{"rt":686.5,"stimulus":"[A] option 1, [L] option 2, [G] neither","key_press":76,"name":"choice","trial_type":"html-keyboard-response","trial_index":10,"time_elapsed":59188,"internal_node_id":"0.0-10.0","subject":"S1C0807","sona":"41419","block":4,"time":"2021-09-06T17:24:45.833Z","response":"2nd","certainty":"high","char":"L","transposition":2,"order":["shifted","swapped"],"probe_pitches":[9,4,7,9,5,4,8,2],"shifted_pitches":[9,4,7,9,6,4,8,2],"swapped_pitches":[9,4,7,5,9,4,8,2],"shift_direction":1,"question_num":1,"has_decoy":false},{"rt":332.2000000476837,"stimulus":"[A] option 1, [L] option 2, [G] neither","key_press":65,"name":"choice","trial_type":"html-keyboard-response","trial_index":21,"time_elapsed":74141,"internal_node_id":"0.0-21.0","subject":"S1C0807","sona":"41419","block":4,"time":"2021-09-06T17:24:45.833Z","response":"1st","certainty":"high","char":"A","transposition":-3,"order":["swapped","shifted"],"probe_pitches":[3,7,10,12,5,3,7,10],"shifted_pitches":[3,7,10,11,5,3,7,10],"swapped_pitches":[3,7,10,5,12,3,7,10],"shift_direction":-1,"question_num":11,"has_decoy":false},{"rt":818.3000000119209,"stimulus":"[A] option 1, [L] option 2, [G] neither","key_press":65,"name":"choice","trial_type":"html-keyboard-response","trial_index":32,"time_elapsed":89187,"internal_node_id":"0.0-32.0","subject":"S1C0807","sona":"41419","block":4,"time":"2021-09-06T17:24:45.833Z","response":"1st","certainty":"high","char":"A","transposition":0,"order":["swapped","shifted"],"probe_pitches":[0,2,-2,0,6,8,-2,0],"shifted_pitches":[0,2,-2,0,7,8,-2,0],"swapped_pitches":[0,2,-2,6,0,8,-2,0],"shift_direction":1,"question_num":21,"has_decoy":false},{"rt":629.6999999880791,"stimulus":"[A] option 1, [L] option 2, [G] neither","key_press":76,"name":"choice","trial_type":"html-keyboard-response","trial_index":43,"time_elapsed":104562,"internal_node_id":"0.0-43.0","subject":"S1C0807","sona":"41419","block":4,"time":"2021-09-06T17:24:45.833Z","response":"2nd","certainty":"high","char":"L","transposition":2,"order":["swapped","shifted"],"probe_pitches":[7,12,9,4,2,0,4,9],"shifted_pitches":[7,12,9,4,3,0,4,9],"swapped_pitches":[7,12,9,2,4,0,4,9],"shift_direction":1,"question_num":31,"has_decoy":false},{"rt":360.30000001192093,"stimulus":"[A] option 1, [L] option 2, [G] neither","key_press":76,"name":"choice","trial_type":"html-keyboard-response","trial_index":54,"time_elapsed":119994,"internal_node_id":"0.0-54.0","subject":"S1C0807","sona":"41419","block":4,"time":"2021-09-06T17:24:45.833Z","response":"2nd","certainty":"high","char":"L","transposition":-1,"order":["swapped","shifted"],"probe_pitches":[3,8,12,5,0,3,10,5],"shifted_pitches":[3,8,12,5,-1,3,10,5],"swapped_pitches":[3,8,12,0,5,3,10,5],"shift_direction":-1,"question_num":41,"has_decoy":false},{"rt":477.69999998807907,"stimulus":"[A] option 1, [L] option 2, [G] neither","key_press":65,"name":"choice","trial_type":"html-keyboard-response","trial_index":65,"time_elapsed":135306,"internal_node_id":"0.0-65.0","subject":"S1C0807","sona":"41419","block":4,"time":"2021-09-06T17:24:45.833Z","response":"1st","certainty":"high","char":"A","transposition":3,"order":["shifted","swapped"],"probe_pitches":[3,5,10,12,7,3,12,3],"shifted_pitches":[3,5,10,12,8,3,12,3],"swapped_pitches":[3,5,10,7,12,3,12,3],"shift_direction":1,"question_num":51,"has_decoy":false},{"rt":671.6999999880791,"stimulus":"[A] option 1, [L] option 2, [G] neither","key_press":65,"name":"choice","trial_type":"html-keyboard-response","trial_index":76,"time_elapsed":150268,"internal_node_id":"0.0-76.0","subject":"S1C0807","sona":"41419","block":4,"time":"2021-09-06T17:24:45.833Z","response":"1st","certainty":"high","char":"A","transposition":3,"order":["swapped","shifted"],"probe_pitches":[4,5,6,5,1,8,7,4],"shifted_pitches":[4,5,6,5,0,8,7,4],"swapped_pitches":[4,5,6,1,5,8,7,4],"shift_direction":-1,"question_num":61,"has_decoy":false},{"rt":1688.699999988079,"stimulus":"[A] option 1, [L] option 2, [G] neither","key_press":76,"name":"choice","trial_type":"html-keyboard-response","trial_index":87,"time_elapsed":166272,"internal_node_id":"0.0-87.0","subject":"S1C0807","sona":"41419","block":4,"time":"2021-09-06T17:24:45.833Z","response":"2nd","certainty":"high","char":"L","transposition":1,"order":["swapped","shifted"],"probe_pitches":[3,8,5,10,8,0,8,5],"shifted_pitches":[3,8,5,11,8,0,8,5],"swapped_pitches":[3,8,5,8,10,0,8,5],"shift_direction":1,"question_num":71,"has_decoy":false},{"rt":388.5,"stimulus":"[A] option 1, [L] option 2, [G] neither","key_press":65,"name":"choice","trial_type":"html-keyboard-response","trial_index":98,"time_elapsed":182759,"internal_node_id":"0.0-98.0","subject":"S1C0807","sona":"41419","block":4,"time":"2021-09-06T17:24:45.833Z","response":"1st","certainty":"high","char":"A","transposition":-3,"order":["shifted","swapped"],"probe_pitches":[0,4,7,4,6,9,7,0],"shifted_pitches":[0,4,7,5,6,9,7,0],"swapped_pitches":[0,4,7,6,4,9,7,0],"shift_direction":1,"question_num":81,"has_decoy":false},{"rt":350.5,"stimulus":"[A] option 1, [L] option 2, [G] neither","key_press":65,"name":"choice","trial_type":"html-keyboard-response","trial_index":109,"time_elapsed":197520,"internal_node_id":"0.0-109.0","subject":"S1C0807","sona":"41419","block":4,"time":"2021-09-06T17:24:45.833Z","response":"1st","certainty":"high","char":"A","transposition":-1,"order":["swapped","shifted"],"probe_pitches":[-1,-3,0,1,5,6,3,-2],"shifted_pitches":[-1,-3,0,1,4,6,3,-2],"swapped_pitches":[-1,-3,0,5,1,6,3,-2],"shift_direction":-1,"question_num":91,"has_decoy":false},{"rt":410.60000002384186,"stimulus":"[A] option 1, [L] option 2, [G] neither","key_press":65,"name":"choice","trial_type":"html-keyboard-response","trial_index":120,"time_elapsed":212200,"internal_node_id":"0.0-120.0","subject":"S1C0807","sona":"41419","block":4,"time":"2021-09-06T17:24:45.833Z","response":"1st","certainty":"high","char":"A","transposition":-3,"order":["swapped","shifted"],"probe_pitches":[12,7,5,10,2,0,5,2],"shifted_pitches":[12,7,5,9,2,0,5,2],"swapped_pitches":[12,7,5,2,10,0,5,2],"shift_direction":-1,"question_num":101,"has_decoy":false},{"rt":2606.400000035763,"stimulus":"[A] option 1, [L] option 2, [G] neither","key_press":76,"name":"choice","trial_type":"html-keyboard-response","trial_index":131,"time_elapsed":229207,"internal_node_id":"0.0-131.0","subject":"S1C0807","sona":"41419","block":4,"time":"2021-09-06T17:24:45.833Z","response":"2nd","certainty":"high","char":"L","transposition":-1,"order":["shifted","swapped"],"probe_pitches":[5,0,5,2,7,0,7,9],"shifted_pitches":[5,0,5,1,7,0,7,9],"swapped_pitches":[5,0,5,7,2,0,7,9],"shift_direction":-1,"question_num":111,"has_decoy":false},{"rt":1891.5,"stimulus":"[A] option 1, [L] option 2, [G] neither","key_press":65,"name":"choice","trial_type":"html-keyboard-response","trial_index":142,"time_elapsed":245415,"internal_node_id":"0.0-142.0","subject":"S1C0807","sona":"41419","block":4,"time":"2021-09-06T17:24:45.833Z","response":"1st","certainty":"high","char":"A","transposition":-2,"order":["shifted","swapped"],"probe_pitches":[0,4,-3,1,-1,7,3,7],"shifted_pitches":[0,4,-3,2,-1,7,3,7],"swapped_pitches":[0,4,-3,-1,1,7,3,7],"shift_direction":1,"question_num":121,"has_decoy":false},{"rt":632.0999999642372,"stimulus":"[A] option 1, [L] option 2, [G] neither","key_press":76,"name":"choice","trial_type":"html-keyboard-response","trial_index":153,"time_elapsed":267366,"internal_node_id":"0.0-153.0","subject":"S1C0807","sona":"41419","block":4,"time":"2021-09-06T17:24:45.833Z","response":"2nd","certainty":"high","char":"L","transposition":-1,"order":["swapped","shifted"],"probe_pitches":[9,5,-2,2,-3,0,2,-1],"shifted_pitches":[9,5,-2,3,-3,0,2,-1],"swapped_pitches":[9,5,-2,-3,2,0,2,-1],"shift_direction":1,"question_num":131,"has_decoy":false},{"rt":435.9000000357628,"stimulus":"[A] option 1, [L] option 2, [G] neither","key_press":76,"name":"choice","trial_type":"html-keyboard-response","trial_index":164,"time_elapsed":282178,"internal_node_id":"0.0-164.0","subject":"S1C0807","sona":"41419","block":4,"time":"2021-09-06T17:24:45.833Z","response":"2nd","certainty":"high","char":"L","transposition":1,"order":["shifted","swapped"],"probe_pitches":[-3,-2,-3,2,7,4,-3,7],"shifted_pitches":[-3,-2,-3,1,7,4,-3,7],"swapped_pitches":[-3,-2,-3,7,2,4,-3,7],"shift_direction":-1,"question_num":141,"has_decoy":false},{"rt":378.39999997615814,"stimulus":"[A] option 1, [L] option 2, [G] neither","key_press":76,"name":"choice","trial_type":"html-keyboard-response","trial_index":175,"time_elapsed":296697,"internal_node_id":"0.0-175.0","subject":"S1C0807","sona":"41419","block":4,"time":"2021-09-06T17:24:45.833Z","response":"2nd","certainty":"high","char":"L","transposition":-3,"order":["shifted","swapped"],"probe_pitches":[3,9,5,0,3,9,7,-3],"shifted_pitches":[3,9,5,-1,3,9,7,-3],"swapped_pitches":[3,9,5,3,0,9,7,-3],"shift_direction":-1,"question_num":151,"has_decoy":false},{"rt":404.10000002384186,"stimulus":"[A] option 1, [L] option 2, [G] neither","key_press":65,"name":"choice","trial_type":"html-keyboard-response","trial_index":186,"time_elapsed":311283,"internal_node_id":"0.0-186.0","subject":"S1C0807","sona":"41419","block":4,"time":"2021-09-06T17:24:45.833Z","response":"1st","certainty":"high","char":"A","transposition":-2,"order":["shifted","swapped"],"probe_pitches":[12,9,2,7,12,2,4,0],"shifted_pitches":[12,9,2,7,13,2,4,0],"swapped_pitches":[12,9,2,12,7,2,4,0],"shift_direction":1,"question_num":161,"has_decoy":false},{"rt":1526.3999999761581,"stimulus":"[A] option 1, [L] option 2, [G] neither","key_press":65,"name":"choice","trial_type":"html-keyboard-response","trial_index":197,"time_elapsed":326998,"internal_node_id":"0.0-197.0","subject":"S1C0807","sona":"41419","block":4,"time":"2021-09-06T17:24:45.833Z","response":"1st","certainty":"high","char":"A","transposition":-2,"order":["swapped","shifted"],"probe_pitches":[-1,0,-1,2,9,3,6,5],"shifted_pitches":[-1,0,-1,2,8,3,6,5],"swapped_pitches":[-1,0,-1,9,2,3,6,5],"shift_direction":-1,"question_num":171,"has_decoy":false},{"rt":1205.5,"stimulus":"[A] option 1, [L] option 2, [G] neither","key_press":65,"name":"choice","trial_type":"html-keyboard-response","trial_index":208,"time_elapsed":343210,"internal_node_id":"0.0-208.0","subject":"S1C0807","sona":"41419","block":4,"time":"2021-09-06T17:24:45.833Z","response":"1st","certainty":"high","char":"A","transposition":-2,"order":["shifted","swapped"],"probe_pitches":[12,9,2,7,9,2,5,9],"shifted_pitches":[12,9,2,7,10,2,5,9],"swapped_pitches":[12,9,2,9,7,2,5,9],"shift_direction":1,"question_num":181,"has_decoy":false},{"rt":1524.2999999523163,"stimulus":"[A] option 1, [L] option 2, [G] neither","key_press":65,"name":"choice","trial_type":"html-keyboard-response","trial_index":219,"time_elapsed":359705,"internal_node_id":"0.0-219.0","subject":"S1C0807","sona":"41419","block":4,"time":"2021-09-06T17:24:45.833Z","response":"1st","certainty":"high","char":"A","transposition":0,"order":["shifted","swapped"],"probe_pitches":[10,5,7,0,2,10,0,5],"shifted_pitches":[10,5,7,-1,2,10,0,5],"swapped_pitches":[10,5,7,2,0,10,0,5],"shift_direction":-1,"question_num":191,"has_decoy":false}]