[{"rt":1262.5,"stimulus":"[A] option 1, [L] option 2, [G] neither","key_press":65,"name":"choice","trial_type":"html-keyboard-response","trial_index":10,"time_elapsed":23707,"internal_node_id":"0.0-10.0","subject":"S1C0807","sona":"41419","block":5,"time":"2021-09-06T17:31:15.151Z","response":"1st","certainty":"high","char":"A","transposition":-2,"order":["shifted","swapped"],"probe_pitches":[8,12,10,3,5,8,3,10],"shifted_pitches":[8,12,10,4,5,8,3,10],"swapped_pitches":[8,12,10,5,3,8,3,10],"shift_direction":1,"question_num":1,"has_decoy":false},{"rt":454.4000000357628,"stimulus":"[A] option 1, [L] option 2, [G] neither","key_press":76,"name":"choice","trial_type":"html-keyboard-response","trial_index":21,"time_elapsed":38942,"internal_node_id":"0.0-21.0","subject":"S1C0807","sona":"41419","block":5,"time":"2021-09-06T17:31:15.151Z","response":"2nd","certainty":"high","char":"L","transposition":-1,"order":["swapped","shifted"],"probe_pitches":[3,0,5,8,12,3,10,12],"shifted_pitches":[3,0,5,8,11,3,10,12],"swapped_pitches":[3,0,5,12,8,3,10,12],"shift_direction":-1,"question_num":11,"has_decoy":false},{"rt":1294.5,"stimulus":"[A] option 1, [L] option 2, [G] neither","key_press":76,"name":"choice","trial_type":"html-keyboard-response","trial_index":32,"time_elapsed":55441,"internal_node_id":"0.0-32.0","subject":"S1C0807","sona":"41419","block":5,"time":"2021-09-06T17:31:15.151Z","response":"2nd","certainty":"high","char":"L","transposition":-3,"order":["shifted","swapped"],"probe_pitches":[3,7,9,11,6,3,12,13],"shifted_pitches":[3,7,9,10,6,3,12,13],"swapped_pitches":[3,7,9,6,11,3,12,13],"shift_direction":-1,"question_num":21,"has_decoy":false},{"rt":280.5,"stimulus":"[A] option 1, [L] option 2, [G] neither","key_press":76,"name":"choice","trial_type":"html-keyboard-response","trial_index":43,"time_elapsed":74454,"internal_node_id":"0.0-43.0","subject":"S1C0807","sona":"41419","block":5,"time":"2021-09-06T17:31:15.151Z","response":"2nd","certainty":"high","char":"L","transposition":3,"order":["shifted","swapped"],"probe_pitches":[6,3,7,13,10,3,5,8],"shifted_pitches":[6,3,7,13,9,3,5,8],"swapped_pitches":[6,3,7,10,13,3,5,8],"shift_direction":-1,"question_num":31,"has_decoy":false},{"rt":908.6000000238419,"stimulus":"[A] option 1, [L] option 2, [G] neither","key_press":76,"name":"choice","trial_type":"html-keyboard-response","trial_index":54,"time_elapsed":89580,"internal_node_id":"0.0-54.0","subject":"S1C0807","sona":"41419","block":5,"time":"2021-09-06T17:31:15.151Z","response":"2nd","certainty":"high","char":"L","transposition":0,"order":["swapped","shifted"],"probe_pitches":[10,5,12,7,5,3,7,3],"shifted_pitches":[10,5,12,6,5,3,7,3],"swapped_pitches":[10,5,12,5,7,3,7,3],"shift_direction":-1,"question_num":41,"has_decoy":false},{"rt":419.5999999642372,"stimulus":"[A] option 1, [L] option 2, [G] neither","key_press":65,"name":"choice","trial_type":"html-keyboard-response","trial_index":65,"time_elapsed":104372,"internal_node_id":"0.0-65.0","subject":"S1C0807","sona":"41419","block":5,"time":"2021-09-06T17:31:15.151Z","response":"1st","certainty":"high","char":"A","transposition":2,"order":["swapped","shifted"],"probe_pitches":[9,7,9,12,5,7,9,2],"shifted_pitches":[9,7,9,12,4,7,9,2],"swapped_pitches":[9,7,9,5,12,7,9,2],"shift_direction":-1,"question_num":51,"has_decoy":false},{"rt":754.3000000119209,"stimulus":"[A] option 1, [L] option 2, [G] neither","key_press":76,"name":"choice","trial_type":"html-keyboard-response","trial_index":76,"time_elapsed":119497,"internal_node_id":"0.0-76.0","subject":"S1C0807","sona":"41419","block":5,"time":"2021-09-06T17:31:15.151Z","response":"2nd","certainty":"high","char":"L","transposition":-2,"order":["shifted","swapped"],"probe_pitches":[7,9,13,5,9,10,3,10],"shifted_pitches":[7,9,13,6,9,10,3,10],"swapped_pitches":[7,9,13,9,5,10,3,10],"shift_direction":1,"question_num":61,"has_decoy":false},{"rt":303,"stimulus":"[A] option 1, [L] option 2, [G] neither","key_press":76,"name":"choice","trial_type":"html-keyboard-response","trial_index":87,"time_elapsed":134685,"internal_node_id":"0.0-87.0","subject":"S1C0807","sona":"41419","block":5,"time":"2021-09-06T17:31:15.151Z","response":"2nd","certainty":"high","char":"L","transposition":1,"order":["swapped","shifted"],"probe_pitches":[10,4,9,7,5,15,10,4],"shifted_pitches":[10,4,9,8,5,15,10,4],"swapped_pitches":[10,4,9,5,7,15,10,4],"shift_direction":1,"question_num":71,"has_decoy":false},{"rt":196.69999998807907,"stimulus":"[A] option 1, [L] option 2, [G] neither","key_press":76,"name":"choice","trial_type":"html-keyboard-response","trial_index":98,"time_elapsed":149044,"internal_node_id":"0.0-98.0","subject":"S1C0807","sona":"41419","block":5,"time":"2021-09-06T17:31:15.151Z","response":"2nd","certainty":"high","char":"L","transposition":1,"order":["swapped","shifted"],"probe_pitches":[5,7,12,7,9,0,2,9],"shifted_pitches":[5,7,12,7,10,0,2,9],"swapped_pitches":[5,7,12,9,7,0,2,9],"shift_direction":1,"question_num":81,"has_decoy":false},{"rt":315.80000001192093,"stimulus":"[A] option 1, [L] option 2, [G] neither","key_press":76,"name":"choice","trial_type":"html-keyboard-response","trial_index":109,"time_elapsed":163654,"internal_node_id":"0.0-109.0","subject":"S1C0807","sona":"41419","block":5,"time":"2021-09-06T17:31:15.151Z","response":"2nd","certainty":"high","char":"L","transposition":-1,"order":["swapped","shifted"],"probe_pitches":[14,13,8,15,12,4,8,4],"shifted_pitches":[14,13,8,15,11,4,8,4],"swapped_pitches":[14,13,8,12,15,4,8,4],"shift_direction":-1,"question_num":91,"has_decoy":false},{"rt":363.80000001192093,"stimulus":"[A] option 1, [L] option 2, [G] neither","key_press":65,"name":"choice","trial_type":"html-keyboard-response","trial_index":120,"time_elapsed":178087,"internal_node_id":"0.0-120.0","subject":"S1C0807","sona":"41419","block":5,"time":"2021-09-06T17:31:15.151Z","response":"1st","certainty":"high","char":"A","transposition":2,"order":["swapped","shifted"],"probe_pitches":[9,14,8,11,14,9,4,15],"shifted_pitches":[9,14,8,11,13,9,4,15],"swapped_pitches":[9,14,8,14,11,9,4,15],"shift_direction":-1,"question_num":101,"has_decoy":false},{"rt":453.69999998807907,"stimulus":"[A] option 1, [L] option 2, [G] neither","key_press":76,"name":"choice","trial_type":"html-keyboard-response","trial_index":131,"time_elapsed":193046,"internal_node_id":"0.0-131.0","subject":"S1C0807","sona":"41419","block":5,"time":"2021-09-06T17:31:15.151Z","response":"2nd","certainty":"high","char":"L","transposition":-1,"order":["shifted","swapped"],"probe_pitches":[7,12,7,12,4,2,9,7],"shifted_pitches":[7,12,7,11,4,2,9,7],"swapped_pitches":[7,12,7,4,12,2,9,7],"shift_direction":-1,"question_num":111,"has_decoy":false},{"rt":562.5,"stimulus":"[A] option 1, [L] option 2, [G] neither","key_press":76,"name":"choice","trial_type":"html-keyboard-response","trial_index":142,"time_elapsed":207694,"internal_node_id":"0.0-142.0","subject":"S1C0807","sona":"41419","block":5,"time":"2021-09-06T17:31:15.151Z","response":"2nd","certainty":"high","char":"L","transposition":-3,"order":["shifted","swapped"],"probe_pitches":[2,0,2,0,5,12,7,10],"shifted_pitches":[2,0,2,1,5,12,7,10],"swapped_pitches":[2,0,2,5,0,12,7,10],"shift_direction":1,"question_num":121,"has_decoy":false},{"rt":352.69999998807907,"stimulus":"[A] option 1, [L] option 2, [G] neither","key_press":76,"name":"choice","trial_type":"html-keyboard-response","trial_index":153,"time_elapsed":222279,"internal_node_id":"0.0-153.0","subject":"S1C0807","sona":"41419","block":5,"time":"2021-09-06T17:31:15.151Z","response":"2nd","certainty":"high","char":"L","transposition":-2,"order":["shifted","swapped"],"probe_pitches":[0,5,7,5,10,2,5,7],"shifted_pitches":[0,5,7,5,11,2,5,7],"swapped_pitches":[0,5,7,10,5,2,5,7],"shift_direction":1,"question_num":131,"has_decoy":false},{"rt":555.4000000357628,"stimulus":"[A] option 1, [L] option 2, [G] neither","key_press":65,"name":"choice","trial_type":"html-keyboard-response","trial_index":164,"time_elapsed":237116,"internal_node_id":"0.0-164.0","subject":"S1C0807","sona":"41419","block":5,"time":"2021-09-06T17:31:15.151Z","response":"1st","certainty":"high","char":"A","transposition":0,"order":["swapped","shifted"],"probe_pitches":[12,8,13,12,6,4,7,12],"shifted_pitches":[12,8,13,12,5,4,7,12],"swapped_pitches":[12,8,13,6,12,4,7,12],"shift_direction":-1,"question_num":141,"has_decoy":false},{"rt":366.5,"stimulus":"[A] option 1, [L] option 2, [G] neither","key_press":65,"name":"choice","trial_type":"html-keyboard-response","trial_index":175,"time_elapsed":251786,"internal_node_id":"0.0-175.0","subject":"S1C0807","sona":"41419","block":5,"time":"2021-09-06T17:31:15.151Z","response":"1st","certainty":"high","char":"A","transposition":-3,"order":["swapped","shifted"],"probe_pitches":[4,9,2,0,7,2,0,9],"shifted_pitches":[4,9,2,0,8,2,0,9],"swapped_pitches":[4,9,2,7,0,2,0,9],"shift_direction":1,"question_num":151,"has_decoy":false},{"rt":335.19999998807907,"stimulus":"[A] option 1, [L] option 2, [G] neither","key_press":76,"name":"choice","trial_type":"html-keyboard-response","trial_index":186,"time_elapsed":266550,"internal_node_id":"0.0-186.0","subject":"S1C0807","sona":"41419","block":5,"time":"2021-09-06T17:31:15.151Z","response":"2nd","certainty":"high","char":"L","transposition":-2,"order":["shifted","swapped"],"probe_pitches":[3,8,13,6,12,9,6,4],"shifted_pitches":[3,8,13,7,12,9,6,4],"swapped_pitches":[3,8,13,12,6,9,6,4],"shift_direction":1,"question_num":161,"has_decoy":false},{"rt":419.69999998807907,"stimulus":"[A] option 1, [L] option 2, [G] neither","key_press":76,"name":"choice","trial_type":"html-keyboard-response","trial_index":197,"time_elapsed":281540,"internal_node_id":"0.0-197.0","subject":"S1C0807","sona":"41419","block":5,"time":"2021-09-06T17:31:15.151Z","response":"2nd","certainty":"high","char":"L","transposition":-3,"order":["swapped","shifted"],"probe_pitches":[8,14,13,9,11,13,9,14],"shifted_pitches":[8,14,13,9,12,13,9,14],"swapped_pitches":[8,14,13,11,9,13,9,14],"shift_direction":1,"question_num":171,"has_decoy":false},{"rt":296.4000000357628,"stimulus":"[A] option 1, [L] option 2, [G] neither","key_press":76,"name":"choice","trial_type":"html-keyboard-response","trial_index":208,"time_elapsed":296410,"internal_node_id":"0.0-208.0","subject":"S1C0807","sona":"41419","block":5,"time":"2021-09-06T17:31:15.151Z","response":"2nd","certainty":"high","char":"L","transposition":-1,"order":["shifted","swapped"],"probe_pitches":[12,11,9,13,5,4,10,15],"shifted_pitches":[12,11,9,14,5,4,10,15],"swapped_pitches":[12,11,9,5,13,4,10,15],"shift_direction":1,"question_num":181,"has_decoy":false},{"rt":2343.900000035763,"stimulus":"[A] option 1, [L] option 2, [G] neither","key_press":65,"name":"choice","trial_type":"html-keyboard-response","trial_index":219,"time_elapsed":313050,"internal_node_id":"0.0-219.0","subject":"S1C0807","sona":"41419","block":5,"time":"2021-09-06T17:31:15.151Z","response":"1st","certainty":"high","char":"A","transposition":3,"order":["shifted","swapped"],"probe_pitches":[0,3,5,3,12,10,0,7],"shifted_pitches":[0,3,5,2,12,10,0,7],"swapped_pitches":[0,3,5,12,3,10,0,7],"shift_direction":-1,"question_num":191,"has_decoy":false}]