[{"rt":532.3000000119209,"stimulus":"[A] option 1, [L] option 2, [G] neither","key_press":76,"name":"choice","trial_type":"html-keyboard-response","trial_index":10,"time_elapsed":18073,"internal_node_id":"0.0-10.0","subject":"S1C0807","sona":"41419","block":2,"time":"2021-09-06T17:11:43.279Z","response":"2nd","certainty":"high","char":"L","transposition":1,"order":["shifted","swapped"],"probe_pitches":[11,13,11,6,13,3,8,3],"shifted_pitches":[11,13,11,5,13,3,8,3],"swapped_pitches":[11,13,11,13,6,3,8,3],"shift_direction":-1,"question_num":1,"has_decoy":false},{"rt":1481.199999988079,"stimulus":"[A] option 1, [L] option 2, [G] neither","key_press":76,"name":"choice","trial_type":"html-keyboard-response","trial_index":21,"time_elapsed":34281,"internal_node_id":"0.0-21.0","subject":"S1C0807","sona":"41419","block":2,"time":"2021-09-06T17:11:43.279Z","response":"2nd","certainty":"high","char":"L","transposition":-2,"order":["shifted","swapped"],"probe_pitches":[10,13,6,10,1,8,3,10],"shifted_pitches":[10,13,6,9,1,8,3,10],"swapped_pitches":[10,13,6,1,10,8,3,10],"shift_direction":-1,"question_num":11,"has_decoy":false},{"rt":706,"stimulus":"[A] option 1, [L] option 2, [G] neither","key_press":76,"name":"choice","trial_type":"html-keyboard-response","trial_index":32,"time_elapsed":50786,"internal_node_id":"0.0-32.0","subject":"S1C0807","sona":"41419","block":2,"time":"2021-09-06T17:11:43.279Z","response":"2nd","certainty":"high","char":"L","transposition":-3,"order":["shifted","swapped"],"probe_pitches":[9,5,10,9,13,12,4,3],"shifted_pitches":[9,5,10,8,13,12,4,3],"swapped_pitches":[9,5,10,13,9,12,4,3],"shift_direction":-1,"question_num":21,"has_decoy":false},{"rt":1048.3999999761581,"stimulus":"[A] option 1, [L] option 2, [G] neither","key_press":76,"name":"choice","trial_type":"html-keyboard-response","trial_index":43,"time_elapsed":67331,"internal_node_id":"0.0-43.0","subject":"S1C0807","sona":"41419","block":2,"time":"2021-09-06T17:11:43.279Z","response":"2nd","certainty":"high","char":"L","transposition":-3,"order":["swapped","shifted"],"probe_pitches":[8,10,8,5,3,8,3,1],"shifted_pitches":[8,10,8,4,3,8,3,1],"swapped_pitches":[8,10,8,3,5,8,3,1],"shift_direction":-1,"question_num":31,"has_decoy":false},{"rt":1624.8999999761581,"stimulus":"[A] option 1, [L] option 2, [G] neither","key_press":65,"name":"choice","trial_type":"html-keyboard-response","trial_index":54,"time_elapsed":83135,"internal_node_id":"0.0-54.0","subject":"S1C0807","sona":"41419","block":2,"time":"2021-09-06T17:11:43.279Z","response":"1st","certainty":"high","char":"A","transposition":-1,"order":["shifted","swapped"],"probe_pitches":[10,5,1,8,5,3,8,1],"shifted_pitches":[10,5,1,8,6,3,8,1],"swapped_pitches":[10,5,1,5,8,3,8,1],"shift_direction":1,"question_num":41,"has_decoy":false},{"rt":692,"stimulus":"[A] option 1, [L] option 2, [G] neither","key_press":65,"name":"choice","trial_type":"html-keyboard-response","trial_index":65,"time_elapsed":98471,"internal_node_id":"0.0-65.0","subject":"S1C0807","sona":"41419","block":2,"time":"2021-09-06T17:11:43.279Z","response":"1st","certainty":"high","char":"A","transposition":2,"order":["swapped","shifted"],"probe_pitches":[8,4,6,11,4,1,11,4],"shifted_pitches":[8,4,6,11,5,1,11,4],"swapped_pitches":[8,4,6,4,11,1,11,4],"shift_direction":1,"question_num":51,"has_decoy":false},{"rt":856.6999999880791,"stimulus":"[A] option 1, [L] option 2, [G] neither","key_press":65,"name":"choice","trial_type":"html-keyboard-response","trial_index":76,"time_elapsed":114122,"internal_node_id":"0.0-76.0","subject":"S1C0807","sona":"41419","block":2,"time":"2021-09-06T17:11:43.279Z","response":"1st","certainty":"high","char":"A","transposition":-2,"order":["shifted","swapped"],"probe_pitches":[2,7,9,5,4,9,12,7],"shifted_pitches":[2,7,9,6,4,9,12,7],"swapped_pitches":[2,7,9,4,5,9,12,7],"shift_direction":1,"question_num":61,"has_decoy":false},{"rt":590.5,"stimulus":"[A] option 1, [L] option 2, [G] neither","key_press":76,"name":"choice","trial_type":"html-keyboard-response","trial_index":87,"time_elapsed":130224,"internal_node_id":"0.0-87.0","subject":"S1C0807","sona":"41419","block":2,"time":"2021-09-06T17:11:43.279Z","response":"2nd","certainty":"high","char":"L","transposition":-1,"order":["swapped","shifted"],"probe_pitches":[4,3,9,6,13,4,9,5],"shifted_pitches":[4,3,9,6,12,4,9,5],"swapped_pitches":[4,3,9,13,6,4,9,5],"shift_direction":-1,"question_num":71,"has_decoy":false},{"rt":740.5,"stimulus":"[A] option 1, [L] option 2, [G] neither","key_press":65,"name":"choice","trial_type":"html-keyboard-response","trial_index":98,"time_elapsed":145339,"internal_node_id":"0.0-98.0","subject":"S1C0807","sona":"41419","block":2,"time":"2021-09-06T17:11:43.279Z","response":"1st","certainty":"high","char":"A","transposition":-1,"order":["shifted","swapped"],"probe_pitches":[9,7,3,7,12,2,8,7],"shifted_pitches":[9,7,3,7,13,2,8,7],"swapped_pitches":[9,7,3,12,7,2,8,7],"shift_direction":1,"question_num":81,"has_decoy":false},{"rt":1530.699999988079,"stimulus":"[A] option 1, [L] option 2, [G] neither","key_press":76,"name":"choice","trial_type":"html-keyboard-response","trial_index":109,"time_elapsed":161186,"internal_node_id":"0.0-109.0","subject":"S1C0807","sona":"41419","block":2,"time":"2021-09-06T17:11:43.279Z","response":"2nd","certainty":"high","char":"L","transposition":1,"order":["shifted","swapped"],"probe_pitches":[11,8,6,13,9,2,3,14],"shifted_pitches":[11,8,6,13,10,2,3,14],"swapped_pitches":[11,8,6,9,13,2,3,14],"shift_direction":1,"question_num":91,"has_decoy":false},{"rt":1227.699999988079,"stimulus":"[A] option 1, [L] option 2, [G] neither","key_press":65,"name":"choice","trial_type":"html-keyboard-response","trial_index":120,"time_elapsed":176771,"internal_node_id":"0.0-120.0","subject":"S1C0807","sona":"41419","block":2,"time":"2021-09-06T17:11:43.279Z","response":"1st","certainty":"high","char":"A","transposition":3,"order":["swapped","shifted"],"probe_pitches":[13,14,7,10,13,11,10,4],"shifted_pitches":[13,14,7,9,13,11,10,4],"swapped_pitches":[13,14,7,13,10,11,10,4],"shift_direction":-1,"question_num":101,"has_decoy":false},{"rt":2060.800000011921,"stimulus":"[A] option 1, [L] option 2, [G] neither","key_press":65,"name":"choice","trial_type":"html-keyboard-response","trial_index":131,"time_elapsed":193140,"internal_node_id":"0.0-131.0","subject":"S1C0807","sona":"41419","block":2,"time":"2021-09-06T17:11:43.279Z","response":"1st","certainty":"high","char":"A","transposition":-2,"order":["shifted","swapped"],"probe_pitches":[14,9,3,10,2,6,8,4],"shifted_pitches":[14,9,3,11,2,6,8,4],"swapped_pitches":[14,9,3,2,10,6,8,4],"shift_direction":1,"question_num":111,"has_decoy":false},{"rt":984.6000000238419,"stimulus":"[A] option 1, [L] option 2, [G] neither","key_press":65,"name":"choice","trial_type":"html-keyboard-response","trial_index":142,"time_elapsed":208587,"internal_node_id":"0.0-142.0","subject":"S1C0807","sona":"41419","block":2,"time":"2021-09-06T17:11:43.279Z","response":"1st","certainty":"high","char":"A","transposition":-2,"order":["shifted","swapped"],"probe_pitches":[1,6,8,10,13,3,1,6],"shifted_pitches":[1,6,8,10,14,3,1,6],"swapped_pitches":[1,6,8,13,10,3,1,6],"shift_direction":1,"question_num":121,"has_decoy":false},{"rt":713.8999999761581,"stimulus":"[A] option 1, [L] option 2, [G] neither","key_press":65,"name":"choice","trial_type":"html-keyboard-response","trial_index":153,"time_elapsed":224327,"internal_node_id":"0.0-153.0","subject":"S1C0807","sona":"41419","block":2,"time":"2021-09-06T17:11:43.279Z","response":"1st","certainty":"high","char":"A","transposition":-3,"order":["shifted","swapped"],"probe_pitches":[11,6,11,4,9,1,6,11],"shifted_pitches":[11,6,11,5,9,1,6,11],"swapped_pitches":[11,6,11,9,4,1,6,11],"shift_direction":1,"question_num":131,"has_decoy":false},{"rt":433.80000001192093,"stimulus":"[A] option 1, [L] option 2, [G] neither","key_press":65,"name":"choice","trial_type":"html-keyboard-response","trial_index":164,"time_elapsed":239118,"internal_node_id":"0.0-164.0","subject":"S1C0807","sona":"41419","block":2,"time":"2021-09-06T17:11:43.279Z","response":"1st","certainty":"high","char":"A","transposition":-3,"order":["swapped","shifted"],"probe_pitches":[6,11,7,13,4,3,4,12],"shifted_pitches":[6,11,7,13,5,3,4,12],"swapped_pitches":[6,11,7,4,13,3,4,12],"shift_direction":1,"question_num":141,"has_decoy":false},{"rt":1825.3999999761581,"stimulus":"[A] option 1, [L] option 2, [G] neither","key_press":76,"name":"choice","trial_type":"html-keyboard-response","trial_index":175,"time_elapsed":255375,"internal_node_id":"0.0-175.0","subject":"S1C0807","sona":"41419","block":2,"time":"2021-09-06T17:11:43.279Z","response":"2nd","certainty":"high","char":"L","transposition":0,"order":["swapped","shifted"],"probe_pitches":[10,7,8,11,5,2,12,7],"shifted_pitches":[10,7,8,11,4,2,12,7],"swapped_pitches":[10,7,8,5,11,2,12,7],"shift_direction":-1,"question_num":151,"has_decoy":false},{"rt":5644.699999988079,"stimulus":"[A] option 1, [L] option 2, [G] neither","key_press":71,"name":"choice","trial_type":"html-keyboard-response","trial_index":186,"time_elapsed":275125,"internal_node_id":"0.0-186.0","subject":"S1C0807","sona":"41419","block":2,"time":"2021-09-06T17:11:43.279Z","response":"neither","certainty":"high","char":"G","transposition":2,"order":["swapped","shifted"],"probe_pitches":[9,13,12,8,6,12,11,3],"shifted_pitches":[9,13,12,7,6,12,11,3],"swapped_pitches":[9,13,12,6,8,12,11,3],"shift_direction":-1,"question_num":161,"has_decoy":false},{"rt":1080.800000011921,"stimulus":"[A] option 1, [L] option 2, [G] neither","key_press":76,"name":"choice","trial_type":"html-keyboard-response","trial_index":197,"time_elapsed":291517,"internal_node_id":"0.0-197.0","subject":"S1C0807","sona":"41419","block":2,"time":"2021-09-06T17:11:43.279Z","response":"2nd","certainty":"high","char":"L","transposition":3,"order":["swapped","shifted"],"probe_pitches":[3,1,3,1,6,8,1,11],"shifted_pitches":[3,1,3,1,7,8,1,11],"swapped_pitches":[3,1,3,6,1,8,1,11],"shift_direction":1,"question_num":171,"has_decoy":false},{"rt":679.3999999761581,"stimulus":"[A] option 1, [L] option 2, [G] neither","key_press":76,"name":"choice","trial_type":"html-keyboard-response","trial_index":208,"time_elapsed":306779,"internal_node_id":"0.0-208.0","subject":"S1C0807","sona":"41419","block":2,"time":"2021-09-06T17:11:43.279Z","response":"2nd","certainty":"high","char":"L","transposition":-1,"order":["swapped","shifted"],"probe_pitches":[9,11,4,6,1,9,1,4],"shifted_pitches":[9,11,4,5,1,9,1,4],"swapped_pitches":[9,11,4,1,6,9,1,4],"shift_direction":-1,"question_num":181,"has_decoy":false},{"rt":423.69999998807907,"stimulus":"[A] option 1, [L] option 2, [G] neither","key_press":76,"name":"choice","trial_type":"html-keyboard-response","trial_index":219,"time_elapsed":324033,"internal_node_id":"0.0-219.0","subject":"S1C0807","sona":"41419","block":2,"time":"2021-09-06T17:11:43.279Z","response":"2nd","certainty":"high","char":"L","transposition":0,"order":["swapped","shifted"],"probe_pitches":[11,13,6,8,4,13,11,13],"shifted_pitches":[11,13,6,8,3,13,11,13],"swapped_pitches":[11,13,6,4,8,13,11,13],"shift_direction":-1,"question_num":191,"has_decoy":false}]