[{"rt":8693.5,"stimulus":"[A] option 1, [L] option 2, [G] neither","key_press":76,"name":"choice","trial_type":"html-keyboard-response","trial_index":15,"time_elapsed":141081,"internal_node_id":"0.0-15.0","response":"2nd","certainty":"high","char":"L","transposition":1,"order":["shifted","swapped"],"probe_pitches":[12,10,5,0,7,5,10,3],"shifted_pitches":[12,10,5,-1,7,5,10,3],"swapped_pitches":[12,10,5,7,0,5,10,3],"shift_direction":-1,"question_num":1,"has_decoy":false,"subject":"S1C0807","sona":"41419","block":1,"time":"2021-09-06T17:06:15.471Z"},{"rt":2667.400000035763,"stimulus":"[A] option 1, [L] option 2, [G] neither","key_press":76,"name":"choice","trial_type":"html-keyboard-response","trial_index":26,"time_elapsed":160714,"internal_node_id":"0.0-26.0","response":"2nd","certainty":"high","char":"L","transposition":-2,"order":["shifted","swapped"],"probe_pitches":[10,6,1,6,0,10,9,6],"shifted_pitches":[10,6,1,7,0,10,9,6],"swapped_pitches":[10,6,1,0,6,10,9,6],"shift_direction":1,"question_num":11,"has_decoy":false,"subject":"S1C0807","sona":"41419","block":1,"time":"2021-09-06T17:06:15.471Z"},{"rt":2318.5,"stimulus":"[A] option 1, [L] option 2, [G] neither","key_press":76,"name":"choice","trial_type":"html-keyboard-response","trial_index":37,"time_elapsed":178711,"internal_node_id":"0.0-37.0","response":"2nd","certainty":"high","char":"L","transposition":0,"order":["swapped","shifted"],"probe_pitches":[12,7,2,5,0,10,0,5],"shifted_pitches":[12,7,2,4,0,10,0,5],"swapped_pitches":[12,7,2,0,5,10,0,5],"shift_direction":-1,"question_num":21,"has_decoy":false,"subject":"S1C0807","sona":"41419","block":1,"time":"2021-09-06T17:06:15.471Z"},{"rt":1050.5,"stimulus":"[A] option 1, [L] option 2, [G] neither","key_press":65,"name":"choice","trial_type":"html-keyboard-response","trial_index":48,"time_elapsed":197753,"internal_node_id":"0.0-48.0","response":"1st","certainty":"high","char":"A","transposition":-1,"order":["swapped","shifted"],"probe_pitches":[1,5,6,12,8,10,7,12],"shifted_pitches":[1,5,6,12,9,10,7,12],"swapped_pitches":[1,5,6,8,12,10,7,12],"shift_direction":1,"question_num":31,"has_decoy":false,"subject":"S1C0807","sona":"41419","block":1,"time":"2021-09-06T17:06:15.471Z"},{"rt":510.89999997615814,"stimulus":"[A] option 1, [L] option 2, [G] neither","key_press":65,"name":"choice","trial_type":"html-keyboard-response","trial_index":59,"time_elapsed":213880,"internal_node_id":"0.0-59.0","response":"1st","certainty":"high","char":"A","transposition":-2,"order":["shifted","swapped"],"probe_pitches":[12,7,9,12,5,2,9,7],"shifted_pitches":[12,7,9,12,4,2,9,7],"swapped_pitches":[12,7,9,5,12,2,9,7],"shift_direction":-1,"question_num":41,"has_decoy":false,"subject":"S1C0807","sona":"41419","block":1,"time":"2021-09-06T17:06:15.471Z"},{"rt":824.1000000238419,"stimulus":"[A] option 1, [L] option 2, [G] neither","key_press":76,"name":"choice","trial_type":"html-keyboard-response","trial_index":70,"time_elapsed":229503,"internal_node_id":"0.0-70.0","response":"2nd","certainty":"high","char":"L","transposition":2,"order":["shifted","swapped"],"probe_pitches":[9,3,0,3,5,12,4,7],"shifted_pitches":[9,3,0,2,5,12,4,7],"swapped_pitches":[9,3,0,5,3,12,4,7],"shift_direction":-1,"question_num":51,"has_decoy":false,"subject":"S1C0807","sona":"41419","block":1,"time":"2021-09-06T17:06:15.471Z"},{"rt":642.8000000119209,"stimulus":"[A] option 1, [L] option 2, [G] neither","key_press":65,"name":"choice","trial_type":"html-keyboard-response","trial_index":81,"time_elapsed":244913,"internal_node_id":"0.0-81.0","response":"1st","certainty":"high","char":"A","transposition":-1,"order":["swapped","shifted"],"probe_pitches":[10,7,12,5,10,2,12,7],"shifted_pitches":[10,7,12,5,9,2,12,7],"swapped_pitches":[10,7,12,10,5,2,12,7],"shift_direction":-1,"question_num":61,"has_decoy":false,"subject":"S1C0807","sona":"41419","block":1,"time":"2021-09-06T17:06:15.471Z"},{"rt":372,"stimulus":"[A] option 1, [L] option 2, [G] neither","key_press":76,"name":"choice","trial_type":"html-keyboard-response","trial_index":92,"time_elapsed":259507,"internal_node_id":"0.0-92.0","response":"2nd","certainty":"high","char":"L","transposition":-3,"order":["shifted","swapped"],"probe_pitches":[1,6,9,3,6,8,11,4],"shifted_pitches":[1,6,9,3,5,8,11,4],"swapped_pitches":[1,6,9,6,3,8,11,4],"shift_direction":-1,"question_num":71,"has_decoy":false,"subject":"S1C0807","sona":"41419","block":1,"time":"2021-09-06T17:06:15.471Z"},{"rt":545.5999999642372,"stimulus":"[A] option 1, [L] option 2, [G] neither","key_press":76,"name":"choice","trial_type":"html-keyboard-response","trial_index":103,"time_elapsed":274231,"internal_node_id":"0.0-103.0","response":"2nd","certainty":"high","char":"L","transposition":3,"order":["swapped","shifted"],"probe_pitches":[9,12,11,5,7,2,5,8],"shifted_pitches":[9,12,11,6,7,2,5,8],"swapped_pitches":[9,12,11,7,5,2,5,8],"shift_direction":1,"question_num":81,"has_decoy":false,"subject":"S1C0807","sona":"41419","block":1,"time":"2021-09-06T17:06:15.471Z"},{"rt":368,"stimulus":"[A] option 1, [L] option 2, [G] neither","key_press":76,"name":"choice","trial_type":"html-keyboard-response","trial_index":114,"time_elapsed":289349,"internal_node_id":"0.0-114.0","response":"2nd","certainty":"high","char":"L","transposition":-1,"order":["shifted","swapped"],"probe_pitches":[7,4,11,9,7,2,12,7],"shifted_pitches":[7,4,11,8,7,2,12,7],"swapped_pitches":[7,4,11,7,9,2,12,7],"shift_direction":-1,"question_num":91,"has_decoy":false,"subject":"S1C0807","sona":"41419","block":1,"time":"2021-09-06T17:06:15.471Z"},{"rt":481.5,"stimulus":"[A] option 1, [L] option 2, [G] neither","key_press":76,"name":"choice","trial_type":"html-keyboard-response","trial_index":125,"time_elapsed":304178,"internal_node_id":"0.0-125.0","response":"2nd","certainty":"high","char":"L","transposition":3,"order":["shifted","swapped"],"probe_pitches":[10,8,10,3,8,12,10,5],"shifted_pitches":[10,8,10,3,9,12,10,5],"swapped_pitches":[10,8,10,8,3,12,10,5],"shift_direction":1,"question_num":101,"has_decoy":false,"subject":"S1C0807","sona":"41419","block":1,"time":"2021-09-06T17:06:15.471Z"},{"rt":1147.4000000357628,"stimulus":"[A] option 1, [L] option 2, [G] neither","key_press":65,"name":"choice","trial_type":"html-keyboard-response","trial_index":136,"time_elapsed":320209,"internal_node_id":"0.0-136.0","response":"1st","certainty":"high","char":"A","transposition":-3,"order":["shifted","swapped"],"probe_pitches":[12,9,4,9,7,2,4,9],"shifted_pitches":[12,9,4,9,8,2,4,9],"swapped_pitches":[12,9,4,7,9,2,4,9],"shift_direction":1,"question_num":111,"has_decoy":false,"subject":"S1C0807","sona":"41419","block":1,"time":"2021-09-06T17:06:15.471Z"},{"rt":664.1999999880791,"stimulus":"[A] option 1, [L] option 2, [G] neither","key_press":65,"name":"choice","trial_type":"html-keyboard-response","trial_index":147,"time_elapsed":335934,"internal_node_id":"0.0-147.0","response":"1st","certainty":"high","char":"A","transposition":-2,"order":["swapped","shifted"],"probe_pitches":[12,9,8,11,9,0,11,9],"shifted_pitches":[12,9,8,11,10,0,11,9],"swapped_pitches":[12,9,8,9,11,0,11,9],"shift_direction":1,"question_num":121,"has_decoy":false,"subject":"S1C0807","sona":"41419","block":1,"time":"2021-09-06T17:06:15.471Z"},{"rt":1489.8999999761581,"stimulus":"[A] option 1, [L] option 2, [G] neither","key_press":65,"name":"choice","trial_type":"html-keyboard-response","trial_index":158,"time_elapsed":352088,"internal_node_id":"0.0-158.0","response":"1st","certainty":"high","char":"A","transposition":-3,"order":["swapped","shifted"],"probe_pitches":[12,10,3,8,0,10,5,10],"shifted_pitches":[12,10,3,7,0,10,5,10],"swapped_pitches":[12,10,3,0,8,10,5,10],"shift_direction":-1,"question_num":131,"has_decoy":false,"subject":"S1C0807","sona":"41419","block":1,"time":"2021-09-06T17:06:15.471Z"},{"rt":986.5999999642372,"stimulus":"[A] option 1, [L] option 2, [G] neither","key_press":76,"name":"choice","trial_type":"html-keyboard-response","trial_index":169,"time_elapsed":367467,"internal_node_id":"0.0-169.0","response":"2nd","certainty":"high","char":"L","transposition":-1,"order":["swapped","shifted"],"probe_pitches":[7,4,0,7,9,2,0,4],"shifted_pitches":[7,4,0,8,9,2,0,4],"swapped_pitches":[7,4,0,9,7,2,0,4],"shift_direction":1,"question_num":141,"has_decoy":false,"subject":"S1C0807","sona":"41419","block":1,"time":"2021-09-06T17:06:15.471Z"},{"rt":471.69999998807907,"stimulus":"[A] option 1, [L] option 2, [G] neither","key_press":76,"name":"choice","trial_type":"html-keyboard-response","trial_index":180,"time_elapsed":382612,"internal_node_id":"0.0-180.0","response":"2nd","certainty":"high","char":"L","transposition":-3,"order":["shifted","swapped"],"probe_pitches":[7,6,4,6,2,11,6,4],"shifted_pitches":[7,6,4,6,3,11,6,4],"swapped_pitches":[7,6,4,2,6,11,6,4],"shift_direction":1,"question_num":151,"has_decoy":false,"subject":"S1C0807","sona":"41419","block":1,"time":"2021-09-06T17:06:15.471Z"},{"rt":490.10000002384186,"stimulus":"[A] option 1, [L] option 2, [G] neither","key_press":76,"name":"choice","trial_type":"html-keyboard-response","trial_index":191,"time_elapsed":397457,"internal_node_id":"0.0-191.0","response":"2nd","certainty":"high","char":"L","transposition":2,"order":["swapped","shifted"],"probe_pitches":[3,5,12,5,0,10,7,12],"shifted_pitches":[3,5,12,5,1,10,7,12],"swapped_pitches":[3,5,12,0,5,10,7,12],"shift_direction":1,"question_num":161,"has_decoy":false,"subject":"S1C0807","sona":"41419","block":1,"time":"2021-09-06T17:06:15.471Z"},{"rt":549.9000000357628,"stimulus":"[A] option 1, [L] option 2, [G] neither","key_press":76,"name":"choice","trial_type":"html-keyboard-response","trial_index":202,"time_elapsed":412717,"internal_node_id":"0.0-202.0","response":"2nd","certainty":"high","char":"L","transposition":1,"order":["swapped","shifted"],"probe_pitches":[12,7,1,5,12,3,2,4],"shifted_pitches":[12,7,1,5,11,3,2,4],"swapped_pitches":[12,7,1,12,5,3,2,4],"shift_direction":-1,"question_num":171,"has_decoy":false,"subject":"S1C0807","sona":"41419","block":1,"time":"2021-09-06T17:06:15.471Z"},{"rt":806.5999999642372,"stimulus":"[A] option 1, [L] option 2, [G] neither","key_press":76,"name":"choice","trial_type":"html-keyboard-response","trial_index":213,"time_elapsed":428110,"internal_node_id":"0.0-213.0","response":"2nd","certainty":"high","char":"L","transposition":-2,"order":["shifted","swapped"],"probe_pitches":[5,2,5,7,2,0,9,7],"shifted_pitches":[5,2,5,8,2,0,9,7],"swapped_pitches":[5,2,5,2,7,0,9,7],"shift_direction":1,"question_num":181,"has_decoy":false,"subject":"S1C0807","sona":"41419","block":1,"time":"2021-09-06T17:06:15.471Z"},{"rt":665.3999999761581,"stimulus":"[A] option 1, [L] option 2, [G] neither","key_press":65,"name":"choice","trial_type":"html-keyboard-response","trial_index":224,"time_elapsed":445259,"internal_node_id":"0.0-224.0","response":"1st","certainty":"high","char":"A","transposition":0,"order":["swapped","shifted"],"probe_pitches":[2,5,2,5,10,1,9,11],"shifted_pitches":[2,5,2,4,10,1,9,11],"swapped_pitches":[2,5,2,10,5,1,9,11],"shift_direction":-1,"question_num":191,"has_decoy":false,"subject":"S1C0807","sona":"41419","block":1,"time":"2021-09-06T17:06:15.471Z"}]