[{"rt":598.2999999523163,"stimulus":"[A] option 1, [L] option 2, [G] neither","key_press":76,"name":"choice","trial_type":"html-keyboard-response","trial_index":10,"time_elapsed":15061,"internal_node_id":"0.0-10.0","subject":"S1C0814","sona":"41442","block":5,"time":"2021-09-15T15:59:59.812Z","response":"2nd","certainty":"high","char":"L","transposition":-1,"order":["shifted","swapped"],"probe_pitches":[-2,3,7,5,3,0,5,7],"shifted_pitches":[-2,3,7,5,2,0,5,7],"swapped_pitches":[-2,3,7,3,5,0,5,7],"shift_direction":-1,"question_num":1,"has_decoy":false},{"rt":267,"stimulus":"[A] option 1, [L] option 2, [G] neither","key_press":76,"name":"choice","trial_type":"html-keyboard-response","trial_index":21,"time_elapsed":29701,"internal_node_id":"0.0-21.0","subject":"S1C0814","sona":"41442","block":5,"time":"2021-09-15T15:59:59.812Z","response":"2nd","certainty":"high","char":"L","transposition":-1,"order":["shifted","swapped"],"probe_pitches":[9,7,13,5,11,13,4,9],"shifted_pitches":[9,7,13,6,11,13,4,9],"swapped_pitches":[9,7,13,11,5,13,4,9],"shift_direction":1,"question_num":11,"has_decoy":false},{"rt":716.5999999046326,"stimulus":"[A] option 1, [L] option 2, [G] neither","key_press":71,"name":"choice","trial_type":"html-keyboard-response","trial_index":32,"time_elapsed":44641,"internal_node_id":"0.0-32.0","subject":"S1C0814","sona":"41442","block":5,"time":"2021-09-15T15:59:59.812Z","response":"neither","certainty":"high","char":"G","transposition":-3,"order":["shifted","swapped"],"probe_pitches":[3,8,3,5,10,3,0,5],"shifted_pitches":[3,8,3,6,10,3,0,5],"swapped_pitches":[3,8,3,10,5,3,0,5],"shift_direction":1,"question_num":21,"has_decoy":false},{"rt":1720.0999999046326,"stimulus":"[A] option 1, [L] option 2, [G] neither","key_press":71,"name":"choice","trial_type":"html-keyboard-response","trial_index":43,"time_elapsed":62866,"internal_node_id":"0.0-43.0","subject":"S1C0814","sona":"41442","block":5,"time":"2021-09-15T15:59:59.812Z","response":"neither","certainty":"high","char":"G","transposition":-2,"order":["shifted","swapped"],"probe_pitches":[6,5,8,1,10,12,4,12],"shifted_pitches":[6,5,8,1,9,12,4,12],"swapped_pitches":[6,5,8,10,1,12,4,12],"shift_direction":-1,"question_num":31,"has_decoy":false},{"rt":2942.5,"stimulus":"[A] option 1, [L] option 2, [G] neither","key_press":71,"name":"choice","trial_type":"html-keyboard-response","trial_index":54,"time_elapsed":84526,"internal_node_id":"0.0-54.0","subject":"S1C0814","sona":"41442","block":5,"time":"2021-09-15T15:59:59.812Z","response":"neither","certainty":"high","char":"G","transposition":-3,"order":["swapped","shifted"],"probe_pitches":[-2,1,-2,3,1,-2,6,8],"shifted_pitches":[-2,1,-2,4,1,-2,6,8],"swapped_pitches":[-2,1,-2,1,3,-2,6,8],"shift_direction":1,"question_num":41,"has_decoy":false},{"rt":454.80000019073486,"stimulus":"[A] option 1, [L] option 2, [G] neither","key_press":76,"name":"choice","trial_type":"html-keyboard-response","trial_index":65,"time_elapsed":109740,"internal_node_id":"0.0-65.0","subject":"S1C0814","sona":"41442","block":5,"time":"2021-09-15T15:59:59.812Z","response":"2nd","certainty":"high","char":"L","transposition":0,"order":["shifted","swapped"],"probe_pitches":[7,9,10,3,6,5,12,8],"shifted_pitches":[7,9,10,4,6,5,12,8],"swapped_pitches":[7,9,10,6,3,5,12,8],"shift_direction":1,"question_num":51,"has_decoy":false},{"rt":228,"stimulus":"[A] option 1, [L] option 2, [G] neither","key_press":65,"name":"choice","trial_type":"html-keyboard-response","trial_index":76,"time_elapsed":124414,"internal_node_id":"0.0-76.0","subject":"S1C0814","sona":"41442","block":5,"time":"2021-09-15T15:59:59.812Z","response":"1st","certainty":"high","char":"A","transposition":-1,"order":["swapped","shifted"],"probe_pitches":[5,6,10,8,3,6,2,6],"shifted_pitches":[5,6,10,7,3,6,2,6],"swapped_pitches":[5,6,10,3,8,6,2,6],"shift_direction":-1,"question_num":61,"has_decoy":false},{"rt":1222.2999999523163,"stimulus":"[A] option 1, [L] option 2, [G] neither","key_press":71,"name":"choice","trial_type":"html-keyboard-response","trial_index":87,"time_elapsed":140208,"internal_node_id":"0.0-87.0","subject":"S1C0814","sona":"41442","block":5,"time":"2021-09-15T15:59:59.812Z","response":"neither","certainty":"high","char":"G","transposition":-3,"order":["swapped","shifted"],"probe_pitches":[3,1,4,3,12,2,9,2],"shifted_pitches":[3,1,4,3,11,2,9,2],"swapped_pitches":[3,1,4,12,3,2,9,2],"shift_direction":-1,"question_num":71,"has_decoy":false},{"rt":454.60000014305115,"stimulus":"[A] option 1, [L] option 2, [G] neither","key_press":65,"name":"choice","trial_type":"html-keyboard-response","trial_index":98,"time_elapsed":155995,"internal_node_id":"0.0-98.0","subject":"S1C0814","sona":"41442","block":5,"time":"2021-09-15T15:59:59.812Z","response":"1st","certainty":"high","char":"A","transposition":3,"order":["swapped","shifted"],"probe_pitches":[5,0,7,5,10,2,7,10],"shifted_pitches":[5,0,7,5,11,2,7,10],"swapped_pitches":[5,0,7,10,5,2,7,10],"shift_direction":1,"question_num":81,"has_decoy":false},{"rt":347.2000000476837,"stimulus":"[A] option 1, [L] option 2, [G] neither","key_press":65,"name":"choice","trial_type":"html-keyboard-response","trial_index":109,"time_elapsed":170672,"internal_node_id":"0.0-109.0","subject":"S1C0814","sona":"41442","block":5,"time":"2021-09-15T15:59:59.812Z","response":"1st","certainty":"high","char":"A","transposition":-2,"order":["shifted","swapped"],"probe_pitches":[12,6,4,7,12,2,9,4],"shifted_pitches":[12,6,4,8,12,2,9,4],"swapped_pitches":[12,6,4,12,7,2,9,4],"shift_direction":1,"question_num":91,"has_decoy":false},{"rt":1190,"stimulus":"[A] option 1, [L] option 2, [G] neither","key_press":71,"name":"choice","trial_type":"html-keyboard-response","trial_index":120,"time_elapsed":186160,"internal_node_id":"0.0-120.0","subject":"S1C0814","sona":"41442","block":5,"time":"2021-09-15T15:59:59.812Z","response":"neither","certainty":"high","char":"G","transposition":1,"order":["swapped","shifted"],"probe_pitches":[4,7,10,7,1,4,1,4],"shifted_pitches":[4,7,10,7,0,4,1,4],"swapped_pitches":[4,7,10,1,7,4,1,4],"shift_direction":-1,"question_num":101,"has_decoy":false},{"rt":662.8000001907349,"stimulus":"[A] option 1, [L] option 2, [G] neither","key_press":76,"name":"choice","trial_type":"html-keyboard-response","trial_index":131,"time_elapsed":202684,"internal_node_id":"0.0-131.0","subject":"S1C0814","sona":"41442","block":5,"time":"2021-09-15T15:59:59.812Z","response":"2nd","certainty":"high","char":"L","transposition":2,"order":["shifted","swapped"],"probe_pitches":[2,1,4,2,6,7,9,13],"shifted_pitches":[2,1,4,3,6,7,9,13],"swapped_pitches":[2,1,4,6,2,7,9,13],"shift_direction":1,"question_num":111,"has_decoy":false},{"rt":1018.7000000476837,"stimulus":"[A] option 1, [L] option 2, [G] neither","key_press":65,"name":"choice","trial_type":"html-keyboard-response","trial_index":142,"time_elapsed":218016,"internal_node_id":"0.0-142.0","subject":"S1C0814","sona":"41442","block":5,"time":"2021-09-15T15:59:59.812Z","response":"1st","certainty":"high","char":"A","transposition":3,"order":["swapped","shifted"],"probe_pitches":[12,6,7,4,9,8,5,9],"shifted_pitches":[12,6,7,4,10,8,5,9],"swapped_pitches":[12,6,7,9,4,8,5,9],"shift_direction":1,"question_num":121,"has_decoy":false},{"rt":528.9000000953674,"stimulus":"[A] option 1, [L] option 2, [G] neither","key_press":76,"name":"choice","trial_type":"html-keyboard-response","trial_index":153,"time_elapsed":234971,"internal_node_id":"0.0-153.0","subject":"S1C0814","sona":"41442","block":5,"time":"2021-09-15T15:59:59.812Z","response":"2nd","certainty":"high","char":"L","transposition":1,"order":["swapped","shifted"],"probe_pitches":[0,2,-2,5,0,-2,7,5],"shifted_pitches":[0,2,-2,5,-1,-2,7,5],"swapped_pitches":[0,2,-2,0,5,-2,7,5],"shift_direction":-1,"question_num":131,"has_decoy":false},{"rt":1390.5,"stimulus":"[A] option 1, [L] option 2, [G] neither","key_press":65,"name":"choice","trial_type":"html-keyboard-response","trial_index":164,"time_elapsed":250441,"internal_node_id":"0.0-164.0","subject":"S1C0814","sona":"41442","block":5,"time":"2021-09-15T15:59:59.812Z","response":"1st","certainty":"high","char":"A","transposition":-2,"order":["shifted","swapped"],"probe_pitches":[0,5,3,7,-2,5,7,10],"shifted_pitches":[0,5,3,7,-3,5,7,10],"swapped_pitches":[0,5,3,-2,7,5,7,10],"shift_direction":-1,"question_num":141,"has_decoy":false},{"rt":1199.0999999046326,"stimulus":"[A] option 1, [L] option 2, [G] neither","key_press":71,"name":"choice","trial_type":"html-keyboard-response","trial_index":175,"time_elapsed":265882,"internal_node_id":"0.0-175.0","subject":"S1C0814","sona":"41442","block":5,"time":"2021-09-15T15:59:59.812Z","response":"neither","certainty":"high","char":"G","transposition":-3,"order":["swapped","shifted"],"probe_pitches":[12,10,11,3,6,12,3,12],"shifted_pitches":[12,10,11,3,5,12,3,12],"swapped_pitches":[12,10,11,6,3,12,3,12],"shift_direction":-1,"question_num":151,"has_decoy":false},{"rt":1889.5999999046326,"stimulus":"[A] option 1, [L] option 2, [G] neither","key_press":71,"name":"choice","trial_type":"html-keyboard-response","trial_index":186,"time_elapsed":289319,"internal_node_id":"0.0-186.0","subject":"S1C0814","sona":"41442","block":5,"time":"2021-09-15T15:59:59.812Z","response":"neither","certainty":"high","char":"G","transposition":0,"order":["swapped","shifted"],"probe_pitches":[10,5,3,1,5,8,-2,3],"shifted_pitches":[10,5,3,0,5,8,-2,3],"swapped_pitches":[10,5,3,5,1,8,-2,3],"shift_direction":-1,"question_num":161,"has_decoy":false},{"rt":371.59999990463257,"stimulus":"[A] option 1, [L] option 2, [G] neither","key_press":76,"name":"choice","trial_type":"html-keyboard-response","trial_index":197,"time_elapsed":304062,"internal_node_id":"0.0-197.0","subject":"S1C0814","sona":"41442","block":5,"time":"2021-09-15T15:59:59.812Z","response":"2nd","certainty":"high","char":"L","transposition":2,"order":["shifted","swapped"],"probe_pitches":[5,10,3,0,8,5,10,5],"shifted_pitches":[5,10,3,1,8,5,10,5],"swapped_pitches":[5,10,3,8,0,5,10,5],"shift_direction":1,"question_num":171,"has_decoy":false},{"rt":234.29999995231628,"stimulus":"[A] option 1, [L] option 2, [G] neither","key_press":76,"name":"choice","trial_type":"html-keyboard-response","trial_index":208,"time_elapsed":318672,"internal_node_id":"0.0-208.0","subject":"S1C0814","sona":"41442","block":5,"time":"2021-09-15T15:59:59.812Z","response":"2nd","certainty":"high","char":"L","transposition":-2,"order":["swapped","shifted"],"probe_pitches":[1,-2,3,8,5,3,-2,3],"shifted_pitches":[1,-2,3,8,6,3,-2,3],"swapped_pitches":[1,-2,3,5,8,3,-2,3],"shift_direction":1,"question_num":181,"has_decoy":false},{"rt":238.10000014305115,"stimulus":"[A] option 1, [L] option 2, [G] neither","key_press":76,"name":"choice","trial_type":"html-keyboard-response","trial_index":219,"time_elapsed":333236,"internal_node_id":"0.0-219.0","subject":"S1C0814","sona":"41442","block":5,"time":"2021-09-15T15:59:59.812Z","response":"2nd","certainty":"high","char":"L","transposition":-1,"order":["shifted","swapped"],"probe_pitches":[8,10,6,3,10,1,-2,6],"shifted_pitches":[8,10,6,2,10,1,-2,6],"swapped_pitches":[8,10,6,10,3,1,-2,6],"shift_direction":-1,"question_num":191,"has_decoy":false}]