[{"rt":1093.3999998569489,"stimulus":"[A] option 1, [L] option 2, [G] neither","key_press":76,"name":"choice","trial_type":"html-keyboard-response","trial_index":10,"time_elapsed":18049,"internal_node_id":"0.0-10.0","subject":"S1C0814","sona":"41442","block":2,"time":"2021-09-15T15:43:19.694Z","response":"2nd","certainty":"high","char":"L","transposition":-3,"order":["shifted","swapped"],"probe_pitches":[12,14,15,14,7,11,7,9],"shifted_pitches":[12,14,15,14,8,11,7,9],"swapped_pitches":[12,14,15,7,14,11,7,9],"shift_direction":1,"question_num":1,"has_decoy":false},{"rt":2124.2999999523163,"stimulus":"[A] option 1, [L] option 2, [G] neither","key_press":71,"name":"choice","trial_type":"html-keyboard-response","trial_index":21,"time_elapsed":35464,"internal_node_id":"0.0-21.0","subject":"S1C0814","sona":"41442","block":2,"time":"2021-09-15T15:43:19.694Z","response":"neither","certainty":"high","char":"G","transposition":-1,"order":["shifted","swapped"],"probe_pitches":[2,0,7,0,9,2,7,4],"shifted_pitches":[2,0,7,-1,9,2,7,4],"swapped_pitches":[2,0,7,9,0,2,7,4],"shift_direction":-1,"question_num":11,"has_decoy":false},{"rt":1364.7000000476837,"stimulus":"[A] option 1, [L] option 2, [G] neither","key_press":71,"name":"choice","trial_type":"html-keyboard-response","trial_index":32,"time_elapsed":60806,"internal_node_id":"0.0-32.0","subject":"S1C0814","sona":"41442","block":2,"time":"2021-09-15T15:43:19.694Z","response":"neither","certainty":"high","char":"G","transposition":2,"order":["shifted","swapped"],"probe_pitches":[4,0,4,2,7,9,4,-3],"shifted_pitches":[4,0,4,2,6,9,4,-3],"swapped_pitches":[4,0,4,7,2,9,4,-3],"shift_direction":-1,"question_num":21,"has_decoy":false},{"rt":1097.4000000953674,"stimulus":"[A] option 1, [L] option 2, [G] neither","key_press":76,"name":"choice","trial_type":"html-keyboard-response","trial_index":43,"time_elapsed":83338,"internal_node_id":"0.0-43.0","subject":"S1C0814","sona":"41442","block":2,"time":"2021-09-15T15:43:19.694Z","response":"2nd","certainty":"high","char":"L","transposition":-3,"order":["swapped","shifted"],"probe_pitches":[-3,1,-1,4,-3,1,9,6],"shifted_pitches":[-3,1,-1,4,-2,1,9,6],"swapped_pitches":[-3,1,-1,-3,4,1,9,6],"shift_direction":1,"question_num":31,"has_decoy":false},{"rt":1172.0999999046326,"stimulus":"[A] option 1, [L] option 2, [G] neither","key_press":76,"name":"choice","trial_type":"html-keyboard-response","trial_index":54,"time_elapsed":102837,"internal_node_id":"0.0-54.0","subject":"S1C0814","sona":"41442","block":2,"time":"2021-09-15T15:43:19.694Z","response":"2nd","certainty":"high","char":"L","transposition":-2,"order":["swapped","shifted"],"probe_pitches":[-3,1,4,6,9,-1,9,6],"shifted_pitches":[-3,1,4,6,8,-1,9,6],"swapped_pitches":[-3,1,4,9,6,-1,9,6],"shift_direction":-1,"question_num":41,"has_decoy":false},{"rt":607.7999999523163,"stimulus":"[A] option 1, [L] option 2, [G] neither","key_press":76,"name":"choice","trial_type":"html-keyboard-response","trial_index":65,"time_elapsed":117912,"internal_node_id":"0.0-65.0","subject":"S1C0814","sona":"41442","block":2,"time":"2021-09-15T15:43:19.694Z","response":"2nd","certainty":"high","char":"L","transposition":3,"order":["swapped","shifted"],"probe_pitches":[5,9,2,7,0,9,5,0],"shifted_pitches":[5,9,2,6,0,9,5,0],"swapped_pitches":[5,9,2,0,7,9,5,0],"shift_direction":-1,"question_num":51,"has_decoy":false},{"rt":3212.300000190735,"stimulus":"[A] option 1, [L] option 2, [G] neither","key_press":65,"name":"choice","trial_type":"html-keyboard-response","trial_index":76,"time_elapsed":135576,"internal_node_id":"0.0-76.0","subject":"S1C0814","sona":"41442","block":2,"time":"2021-09-15T15:43:19.694Z","response":"1st","certainty":"high","char":"A","transposition":-1,"order":["shifted","swapped"],"probe_pitches":[6,2,-1,6,4,-1,9,4],"shifted_pitches":[6,2,-1,7,4,-1,9,4],"swapped_pitches":[6,2,-1,4,6,-1,9,4],"shift_direction":1,"question_num":61,"has_decoy":false},{"rt":573.1999998092651,"stimulus":"[A] option 1, [L] option 2, [G] neither","key_press":76,"name":"choice","trial_type":"html-keyboard-response","trial_index":87,"time_elapsed":150523,"internal_node_id":"0.0-87.0","subject":"S1C0814","sona":"41442","block":2,"time":"2021-09-15T15:43:19.694Z","response":"2nd","certainty":"high","char":"L","transposition":-1,"order":["swapped","shifted"],"probe_pitches":[12,15,14,6,3,9,3,7],"shifted_pitches":[12,15,14,5,3,9,3,7],"swapped_pitches":[12,15,14,3,6,9,3,7],"shift_direction":-1,"question_num":71,"has_decoy":false},{"rt":832.6999998092651,"stimulus":"[A] option 1, [L] option 2, [G] neither","key_press":76,"name":"choice","trial_type":"html-keyboard-response","trial_index":98,"time_elapsed":171052,"internal_node_id":"0.0-98.0","subject":"S1C0814","sona":"41442","block":2,"time":"2021-09-15T15:43:19.694Z","response":"2nd","certainty":"high","char":"L","transposition":-2,"order":["swapped","shifted"],"probe_pitches":[9,6,-1,4,2,-1,4,2],"shifted_pitches":[9,6,-1,4,1,-1,4,2],"swapped_pitches":[9,6,-1,2,4,-1,4,2],"shift_direction":-1,"question_num":81,"has_decoy":false},{"rt":12688.799999952316,"stimulus":"[A] option 1, [L] option 2, [G] neither","key_press":71,"name":"choice","trial_type":"html-keyboard-response","trial_index":109,"time_elapsed":202401,"internal_node_id":"0.0-109.0","subject":"S1C0814","sona":"41442","block":2,"time":"2021-09-15T15:43:19.694Z","response":"neither","certainty":"high","char":"G","transposition":-3,"order":["swapped","shifted"],"probe_pitches":[15,12,9,8,3,4,15,10],"shifted_pitches":[15,12,9,8,2,4,15,10],"swapped_pitches":[15,12,9,3,8,4,15,10],"shift_direction":-1,"question_num":91,"has_decoy":false},{"rt":2941.7000000476837,"stimulus":"[A] option 1, [L] option 2, [G] neither","key_press":76,"name":"choice","trial_type":"html-keyboard-response","trial_index":120,"time_elapsed":223599,"internal_node_id":"0.0-120.0","subject":"S1C0814","sona":"41442","block":2,"time":"2021-09-15T15:43:19.694Z","response":"2nd","certainty":"high","char":"L","transposition":3,"order":["swapped","shifted"],"probe_pitches":[8,5,12,6,15,11,10,3],"shifted_pitches":[8,5,12,7,15,11,10,3],"swapped_pitches":[8,5,12,15,6,11,10,3],"shift_direction":1,"question_num":101,"has_decoy":false},{"rt":1424.2999999523163,"stimulus":"[A] option 1, [L] option 2, [G] neither","key_press":76,"name":"choice","trial_type":"html-keyboard-response","trial_index":131,"time_elapsed":240641,"internal_node_id":"0.0-131.0","subject":"S1C0814","sona":"41442","block":2,"time":"2021-09-15T15:43:19.694Z","response":"2nd","certainty":"high","char":"L","transposition":0,"order":["shifted","swapped"],"probe_pitches":[-3,2,7,0,-3,5,2,5],"shifted_pitches":[-3,2,7,1,-3,5,2,5],"swapped_pitches":[-3,2,7,-3,0,5,2,5],"shift_direction":1,"question_num":111,"has_decoy":false},{"rt":661.5,"stimulus":"[A] option 1, [L] option 2, [G] neither","key_press":76,"name":"choice","trial_type":"html-keyboard-response","trial_index":142,"time_elapsed":257004,"internal_node_id":"0.0-142.0","subject":"S1C0814","sona":"41442","block":2,"time":"2021-09-15T15:43:19.694Z","response":"2nd","certainty":"high","char":"L","transposition":0,"order":["swapped","shifted"],"probe_pitches":[13,15,8,13,11,7,6,11],"shifted_pitches":[13,15,8,13,10,7,6,11],"swapped_pitches":[13,15,8,11,13,7,6,11],"shift_direction":-1,"question_num":121,"has_decoy":false},{"rt":455.09999990463257,"stimulus":"[A] option 1, [L] option 2, [G] neither","key_press":76,"name":"choice","trial_type":"html-keyboard-response","trial_index":153,"time_elapsed":272029,"internal_node_id":"0.0-153.0","subject":"S1C0814","sona":"41442","block":2,"time":"2021-09-15T15:43:19.694Z","response":"2nd","certainty":"high","char":"L","transposition":-1,"order":["shifted","swapped"],"probe_pitches":[10,7,10,9,5,7,4,11],"shifted_pitches":[10,7,10,9,6,7,4,11],"swapped_pitches":[10,7,10,5,9,7,4,11],"shift_direction":1,"question_num":131,"has_decoy":false},{"rt":448,"stimulus":"[A] option 1, [L] option 2, [G] neither","key_press":76,"name":"choice","trial_type":"html-keyboard-response","trial_index":164,"time_elapsed":287526,"internal_node_id":"0.0-164.0","subject":"S1C0814","sona":"41442","block":2,"time":"2021-09-15T15:43:19.694Z","response":"2nd","certainty":"high","char":"L","transposition":-2,"order":["shifted","swapped"],"probe_pitches":[13,8,6,3,10,8,10,15],"shifted_pitches":[13,8,6,3,11,8,10,15],"swapped_pitches":[13,8,6,10,3,8,10,15],"shift_direction":1,"question_num":141,"has_decoy":false},{"rt":417.2000000476837,"stimulus":"[A] option 1, [L] option 2, [G] neither","key_press":65,"name":"choice","trial_type":"html-keyboard-response","trial_index":175,"time_elapsed":303096,"internal_node_id":"0.0-175.0","subject":"S1C0814","sona":"41442","block":2,"time":"2021-09-15T15:43:19.694Z","response":"1st","certainty":"high","char":"A","transposition":-3,"order":["swapped","shifted"],"probe_pitches":[7,2,-1,-3,2,9,4,9],"shifted_pitches":[7,2,-1,-3,3,9,4,9],"swapped_pitches":[7,2,-1,2,-3,9,4,9],"shift_direction":1,"question_num":151,"has_decoy":false},{"rt":365.59999990463257,"stimulus":"[A] option 1, [L] option 2, [G] neither","key_press":76,"name":"choice","trial_type":"html-keyboard-response","trial_index":186,"time_elapsed":318399,"internal_node_id":"0.0-186.0","subject":"S1C0814","sona":"41442","block":2,"time":"2021-09-15T15:43:19.694Z","response":"2nd","certainty":"high","char":"L","transposition":2,"order":["swapped","shifted"],"probe_pitches":[8,4,10,8,11,14,7,11],"shifted_pitches":[8,4,10,9,11,14,7,11],"swapped_pitches":[8,4,10,11,8,14,7,11],"shift_direction":1,"question_num":161,"has_decoy":false},{"rt":124.20000004768372,"stimulus":"[A] option 1, [L] option 2, [G] neither","key_press":76,"name":"choice","trial_type":"html-keyboard-response","trial_index":197,"time_elapsed":333603,"internal_node_id":"0.0-197.0","subject":"S1C0814","sona":"41442","block":2,"time":"2021-09-15T15:43:19.694Z","response":"2nd","certainty":"high","char":"L","transposition":1,"order":["shifted","swapped"],"probe_pitches":[10,7,9,13,15,5,14,6],"shifted_pitches":[10,7,9,12,15,5,14,6],"swapped_pitches":[10,7,9,15,13,5,14,6],"shift_direction":-1,"question_num":171,"has_decoy":false},{"rt":321.09999990463257,"stimulus":"[A] option 1, [L] option 2, [G] neither","key_press":65,"name":"choice","trial_type":"html-keyboard-response","trial_index":208,"time_elapsed":348893,"internal_node_id":"0.0-208.0","subject":"S1C0814","sona":"41442","block":2,"time":"2021-09-15T15:43:19.694Z","response":"1st","certainty":"high","char":"A","transposition":1,"order":["shifted","swapped"],"probe_pitches":[-1,-3,2,4,-1,7,-3,2],"shifted_pitches":[-1,-3,2,5,-1,7,-3,2],"swapped_pitches":[-1,-3,2,-1,4,7,-3,2],"shift_direction":1,"question_num":181,"has_decoy":false},{"rt":303.90000009536743,"stimulus":"[A] option 1, [L] option 2, [G] neither","key_press":76,"name":"choice","trial_type":"html-keyboard-response","trial_index":219,"time_elapsed":364023,"internal_node_id":"0.0-219.0","subject":"S1C0814","sona":"41442","block":2,"time":"2021-09-15T15:43:19.694Z","response":"2nd","certainty":"high","char":"L","transposition":-2,"order":["shifted","swapped"],"probe_pitches":[5,9,15,14,8,4,5,14],"shifted_pitches":[5,9,15,13,8,4,5,14],"swapped_pitches":[5,9,15,8,14,4,5,14],"shift_direction":-1,"question_num":191,"has_decoy":false}]