[{"rt":333.2999999523163,"stimulus":"[A] option 1, [L] option 2, [G] neither","key_press":76,"name":"choice","trial_type":"html-keyboard-response","trial_index":10,"time_elapsed":15078,"internal_node_id":"0.0-10.0","subject":"S1C0814","sona":"41442","block":4,"time":"2021-09-15T15:54:21.138Z","response":"2nd","certainty":"high","char":"L","transposition":3,"order":["swapped","shifted"],"probe_pitches":[9,8,7,10,3,6,10,7],"shifted_pitches":[9,8,7,10,2,6,10,7],"swapped_pitches":[9,8,7,3,10,6,10,7],"shift_direction":-1,"question_num":1,"has_decoy":false},{"rt":445.2999999523163,"stimulus":"[A] option 1, [L] option 2, [G] neither","key_press":76,"name":"choice","trial_type":"html-keyboard-response","trial_index":21,"time_elapsed":30337,"internal_node_id":"0.0-21.0","subject":"S1C0814","sona":"41442","block":4,"time":"2021-09-15T15:54:21.138Z","response":"2nd","certainty":"high","char":"L","transposition":-1,"order":["swapped","shifted"],"probe_pitches":[2,0,4,9,2,0,4,7],"shifted_pitches":[2,0,4,9,1,0,4,7],"swapped_pitches":[2,0,4,2,9,0,4,7],"shift_direction":-1,"question_num":11,"has_decoy":false},{"rt":526.3999998569489,"stimulus":"[A] option 1, [L] option 2, [G] neither","key_press":76,"name":"choice","trial_type":"html-keyboard-response","trial_index":32,"time_elapsed":45144,"internal_node_id":"0.0-32.0","subject":"S1C0814","sona":"41442","block":4,"time":"2021-09-15T15:54:21.138Z","response":"2nd","certainty":"high","char":"L","transposition":-1,"order":["shifted","swapped"],"probe_pitches":[9,7,11,4,8,6,10,0],"shifted_pitches":[9,7,11,5,8,6,10,0],"swapped_pitches":[9,7,11,8,4,6,10,0],"shift_direction":1,"question_num":21,"has_decoy":false},{"rt":189.39999985694885,"stimulus":"[A] option 1, [L] option 2, [G] neither","key_press":76,"name":"choice","trial_type":"html-keyboard-response","trial_index":43,"time_elapsed":60087,"internal_node_id":"0.0-43.0","subject":"S1C0814","sona":"41442","block":4,"time":"2021-09-15T15:54:21.138Z","response":"2nd","certainty":"high","char":"L","transposition":1,"order":["shifted","swapped"],"probe_pitches":[5,8,6,8,1,2,10,4],"shifted_pitches":[5,8,6,7,1,2,10,4],"swapped_pitches":[5,8,6,1,8,2,10,4],"shift_direction":-1,"question_num":31,"has_decoy":false},{"rt":1180.2999999523163,"stimulus":"[A] option 1, [L] option 2, [G] neither","key_press":71,"name":"choice","trial_type":"html-keyboard-response","trial_index":54,"time_elapsed":75467,"internal_node_id":"0.0-54.0","subject":"S1C0814","sona":"41442","block":4,"time":"2021-09-15T15:54:21.138Z","response":"neither","certainty":"high","char":"G","transposition":2,"order":["swapped","shifted"],"probe_pitches":[1,4,6,11,4,1,0,9],"shifted_pitches":[1,4,6,10,4,1,0,9],"swapped_pitches":[1,4,6,4,11,1,0,9],"shift_direction":-1,"question_num":41,"has_decoy":false},{"rt":336.2999999523163,"stimulus":"[A] option 1, [L] option 2, [G] neither","key_press":71,"name":"choice","trial_type":"html-keyboard-response","trial_index":65,"time_elapsed":90154,"internal_node_id":"0.0-65.0","subject":"S1C0814","sona":"41442","block":4,"time":"2021-09-15T15:54:21.138Z","response":"neither","certainty":"high","char":"G","transposition":0,"order":["shifted","swapped"],"probe_pitches":[1,6,-1,4,6,9,6,1],"shifted_pitches":[1,6,-1,4,7,9,6,1],"swapped_pitches":[1,6,-1,6,4,9,6,1],"shift_direction":1,"question_num":51,"has_decoy":false},{"rt":1093.9000000953674,"stimulus":"[A] option 1, [L] option 2, [G] neither","key_press":71,"name":"choice","trial_type":"html-keyboard-response","trial_index":76,"time_elapsed":105770,"internal_node_id":"0.0-76.0","subject":"S1C0814","sona":"41442","block":4,"time":"2021-09-15T15:54:21.138Z","response":"neither","certainty":"high","char":"G","transposition":0,"order":["swapped","shifted"],"probe_pitches":[-1,0,7,6,0,8,10,6],"shifted_pitches":[-1,0,7,6,1,8,10,6],"swapped_pitches":[-1,0,7,0,6,8,10,6],"shift_direction":1,"question_num":61,"has_decoy":false},{"rt":2899.600000143051,"stimulus":"[A] option 1, [L] option 2, [G] neither","key_press":71,"name":"choice","trial_type":"html-keyboard-response","trial_index":87,"time_elapsed":122978,"internal_node_id":"0.0-87.0","subject":"S1C0814","sona":"41442","block":4,"time":"2021-09-15T15:54:21.138Z","response":"neither","certainty":"high","char":"G","transposition":-2,"order":["swapped","shifted"],"probe_pitches":[10,9,6,2,-1,9,10,-1],"shifted_pitches":[10,9,6,3,-1,9,10,-1],"swapped_pitches":[10,9,6,-1,2,9,10,-1],"shift_direction":1,"question_num":71,"has_decoy":false},{"rt":1297.5999999046326,"stimulus":"[A] option 1, [L] option 2, [G] neither","key_press":76,"name":"choice","trial_type":"html-keyboard-response","trial_index":98,"time_elapsed":141579,"internal_node_id":"0.0-98.0","subject":"S1C0814","sona":"41442","block":4,"time":"2021-09-15T15:54:21.138Z","response":"2nd","certainty":"high","char":"L","transposition":-3,"order":["shifted","swapped"],"probe_pitches":[-1,-3,1,6,9,-1,4,1],"shifted_pitches":[-1,-3,1,6,10,-1,4,1],"swapped_pitches":[-1,-3,1,9,6,-1,4,1],"shift_direction":1,"question_num":81,"has_decoy":false},{"rt":4740.099999904633,"stimulus":"[A] option 1, [L] option 2, [G] neither","key_press":71,"name":"choice","trial_type":"html-keyboard-response","trial_index":109,"time_elapsed":161534,"internal_node_id":"0.0-109.0","subject":"S1C0814","sona":"41442","block":4,"time":"2021-09-15T15:54:21.138Z","response":"neither","certainty":"high","char":"G","transposition":1,"order":["swapped","shifted"],"probe_pitches":[0,5,7,2,-3,7,9,-3],"shifted_pitches":[0,5,7,1,-3,7,9,-3],"swapped_pitches":[0,5,7,-3,2,7,9,-3],"shift_direction":-1,"question_num":91,"has_decoy":false},{"rt":2275,"stimulus":"[A] option 1, [L] option 2, [G] neither","key_press":71,"name":"choice","trial_type":"html-keyboard-response","trial_index":120,"time_elapsed":181880,"internal_node_id":"0.0-120.0","subject":"S1C0814","sona":"41442","block":4,"time":"2021-09-15T15:54:21.138Z","response":"neither","certainty":"high","char":"G","transposition":-1,"order":["shifted","swapped"],"probe_pitches":[-1,5,10,2,5,6,1,7],"shifted_pitches":[-1,5,10,2,4,6,1,7],"swapped_pitches":[-1,5,10,5,2,6,1,7],"shift_direction":-1,"question_num":101,"has_decoy":false},{"rt":401.89999985694885,"stimulus":"[A] option 1, [L] option 2, [G] neither","key_press":65,"name":"choice","trial_type":"html-keyboard-response","trial_index":131,"time_elapsed":196726,"internal_node_id":"0.0-131.0","subject":"S1C0814","sona":"41442","block":4,"time":"2021-09-15T15:54:21.138Z","response":"1st","certainty":"high","char":"A","transposition":3,"order":["shifted","swapped"],"probe_pitches":[-3,-1,2,4,-3,2,6,2],"shifted_pitches":[-3,-1,2,5,-3,2,6,2],"swapped_pitches":[-3,-1,2,-3,4,2,6,2],"shift_direction":1,"question_num":111,"has_decoy":false},{"rt":420.59999990463257,"stimulus":"[A] option 1, [L] option 2, [G] neither","key_press":65,"name":"choice","trial_type":"html-keyboard-response","trial_index":142,"time_elapsed":211209,"internal_node_id":"0.0-142.0","subject":"S1C0814","sona":"41442","block":4,"time":"2021-09-15T15:54:21.138Z","response":"1st","certainty":"high","char":"A","transposition":-3,"order":["shifted","swapped"],"probe_pitches":[2,4,-1,7,2,4,-1,9],"shifted_pitches":[2,4,-1,7,3,4,-1,9],"swapped_pitches":[2,4,-1,2,7,4,-1,9],"shift_direction":1,"question_num":121,"has_decoy":false},{"rt":322.7999999523163,"stimulus":"[A] option 1, [L] option 2, [G] neither","key_press":76,"name":"choice","trial_type":"html-keyboard-response","trial_index":153,"time_elapsed":226099,"internal_node_id":"0.0-153.0","subject":"S1C0814","sona":"41442","block":4,"time":"2021-09-15T15:54:21.138Z","response":"2nd","certainty":"high","char":"L","transposition":-2,"order":["swapped","shifted"],"probe_pitches":[5,0,5,2,-3,7,0,2],"shifted_pitches":[5,0,5,2,-4,7,0,2],"swapped_pitches":[5,0,5,-3,2,7,0,2],"shift_direction":-1,"question_num":131,"has_decoy":false},{"rt":351.7999999523163,"stimulus":"[A] option 1, [L] option 2, [G] neither","key_press":76,"name":"choice","trial_type":"html-keyboard-response","trial_index":164,"time_elapsed":240751,"internal_node_id":"0.0-164.0","subject":"S1C0814","sona":"41442","block":4,"time":"2021-09-15T15:54:21.138Z","response":"2nd","certainty":"high","char":"L","transposition":-2,"order":["swapped","shifted"],"probe_pitches":[6,2,6,4,-1,9,-1,9],"shifted_pitches":[6,2,6,5,-1,9,-1,9],"swapped_pitches":[6,2,6,-1,4,9,-1,9],"shift_direction":1,"question_num":141,"has_decoy":false},{"rt":430.39999985694885,"stimulus":"[A] option 1, [L] option 2, [G] neither","key_press":76,"name":"choice","trial_type":"html-keyboard-response","trial_index":175,"time_elapsed":255582,"internal_node_id":"0.0-175.0","subject":"S1C0814","sona":"41442","block":4,"time":"2021-09-15T15:54:21.138Z","response":"2nd","certainty":"high","char":"L","transposition":-3,"order":["shifted","swapped"],"probe_pitches":[-1,4,10,7,1,0,6,3],"shifted_pitches":[-1,4,10,8,1,0,6,3],"swapped_pitches":[-1,4,10,1,7,0,6,3],"shift_direction":1,"question_num":151,"has_decoy":false},{"rt":1102.5,"stimulus":"[A] option 1, [L] option 2, [G] neither","key_press":71,"name":"choice","trial_type":"html-keyboard-response","trial_index":186,"time_elapsed":271017,"internal_node_id":"0.0-186.0","subject":"S1C0814","sona":"41442","block":4,"time":"2021-09-15T15:54:21.138Z","response":"neither","certainty":"high","char":"G","transposition":-1,"order":["swapped","shifted"],"probe_pitches":[9,7,2,4,0,2,-3,2],"shifted_pitches":[9,7,2,3,0,2,-3,2],"swapped_pitches":[9,7,2,0,4,2,-3,2],"shift_direction":-1,"question_num":161,"has_decoy":false},{"rt":1485.5,"stimulus":"[A] option 1, [L] option 2, [G] neither","key_press":71,"name":"choice","trial_type":"html-keyboard-response","trial_index":197,"time_elapsed":286834,"internal_node_id":"0.0-197.0","subject":"S1C0814","sona":"41442","block":4,"time":"2021-09-15T15:54:21.138Z","response":"neither","certainty":"high","char":"G","transposition":-2,"order":["swapped","shifted"],"probe_pitches":[11,7,2,6,10,2,3,10],"shifted_pitches":[11,7,2,6,9,2,3,10],"swapped_pitches":[11,7,2,10,6,2,3,10],"shift_direction":-1,"question_num":171,"has_decoy":false},{"rt":311.2000000476837,"stimulus":"[A] option 1, [L] option 2, [G] neither","key_press":76,"name":"choice","trial_type":"html-keyboard-response","trial_index":208,"time_elapsed":301596,"internal_node_id":"0.0-208.0","subject":"S1C0814","sona":"41442","block":4,"time":"2021-09-15T15:54:21.138Z","response":"2nd","certainty":"high","char":"L","transposition":-3,"order":["shifted","swapped"],"probe_pitches":[11,9,4,7,5,9,2,4],"shifted_pitches":[11,9,4,7,6,9,2,4],"swapped_pitches":[11,9,4,5,7,9,2,4],"shift_direction":1,"question_num":181,"has_decoy":false},{"rt":1534.5,"stimulus":"[A] option 1, [L] option 2, [G] neither","key_press":71,"name":"choice","trial_type":"html-keyboard-response","trial_index":219,"time_elapsed":317716,"internal_node_id":"0.0-219.0","subject":"S1C0814","sona":"41442","block":4,"time":"2021-09-15T15:54:21.138Z","response":"neither","certainty":"high","char":"G","transposition":2,"order":["shifted","swapped"],"probe_pitches":[2,7,4,2,7,9,4,-1],"shifted_pitches":[2,7,4,1,7,9,4,-1],"swapped_pitches":[2,7,4,7,2,9,4,-1],"shift_direction":-1,"question_num":191,"has_decoy":false}]