[{"rt":929.7000000476837,"stimulus":"[A] option 1, [L] option 2, [G] neither","key_press":76,"name":"choice","trial_type":"html-keyboard-response","trial_index":10,"time_elapsed":16107,"internal_node_id":"0.0-10.0","subject":"S1C0814","sona":"41442","block":3,"time":"2021-09-15T15:48:59.182Z","response":"2nd","certainty":"high","char":"L","transposition":0,"order":["swapped","shifted"],"probe_pitches":[6,4,5,3,11,10,7,8],"shifted_pitches":[6,4,5,3,12,10,7,8],"swapped_pitches":[6,4,5,11,3,10,7,8],"shift_direction":1,"question_num":1,"has_decoy":false},{"rt":878.2000000476837,"stimulus":"[A] option 1, [L] option 2, [G] neither","key_press":65,"name":"choice","trial_type":"html-keyboard-response","trial_index":21,"time_elapsed":31810,"internal_node_id":"0.0-21.0","subject":"S1C0814","sona":"41442","block":3,"time":"2021-09-15T15:48:59.182Z","response":"1st","certainty":"high","char":"A","transposition":-2,"order":["swapped","shifted"],"probe_pitches":[11,8,6,-1,3,1,3,8],"shifted_pitches":[11,8,6,-1,4,1,3,8],"swapped_pitches":[11,8,6,3,-1,1,3,8],"shift_direction":1,"question_num":11,"has_decoy":false},{"rt":1228.8999998569489,"stimulus":"[A] option 1, [L] option 2, [G] neither","key_press":71,"name":"choice","trial_type":"html-keyboard-response","trial_index":32,"time_elapsed":48630,"internal_node_id":"0.0-32.0","subject":"S1C0814","sona":"41442","block":3,"time":"2021-09-15T15:48:59.182Z","response":"neither","certainty":"high","char":"G","transposition":-3,"order":["swapped","shifted"],"probe_pitches":[14,15,8,5,3,11,13,14],"shifted_pitches":[14,15,8,6,3,11,13,14],"swapped_pitches":[14,15,8,3,5,11,13,14],"shift_direction":1,"question_num":21,"has_decoy":false},{"rt":980.0999999046326,"stimulus":"[A] option 1, [L] option 2, [G] neither","key_press":76,"name":"choice","trial_type":"html-keyboard-response","trial_index":43,"time_elapsed":64696,"internal_node_id":"0.0-43.0","subject":"S1C0814","sona":"41442","block":3,"time":"2021-09-15T15:48:59.182Z","response":"2nd","certainty":"high","char":"L","transposition":-3,"order":["swapped","shifted"],"probe_pitches":[11,6,4,9,2,6,11,2],"shifted_pitches":[11,6,4,9,1,6,11,2],"swapped_pitches":[11,6,4,2,9,6,11,2],"shift_direction":-1,"question_num":31,"has_decoy":false},{"rt":1558.5999999046326,"stimulus":"[A] option 1, [L] option 2, [G] neither","key_press":71,"name":"choice","trial_type":"html-keyboard-response","trial_index":54,"time_elapsed":81531,"internal_node_id":"0.0-54.0","subject":"S1C0814","sona":"41442","block":3,"time":"2021-09-15T15:48:59.182Z","response":"neither","certainty":"high","char":"G","transposition":-1,"order":["shifted","swapped"],"probe_pitches":[5,9,10,13,9,6,11,7],"shifted_pitches":[5,9,10,13,8,6,11,7],"swapped_pitches":[5,9,10,9,13,6,11,7],"shift_direction":-1,"question_num":41,"has_decoy":false},{"rt":1178.5,"stimulus":"[A] option 1, [L] option 2, [G] neither","key_press":71,"name":"choice","trial_type":"html-keyboard-response","trial_index":65,"time_elapsed":101316,"internal_node_id":"0.0-65.0","subject":"S1C0814","sona":"41442","block":3,"time":"2021-09-15T15:48:59.182Z","response":"neither","certainty":"high","char":"G","transposition":-2,"order":["swapped","shifted"],"probe_pitches":[6,8,3,1,6,8,3,11],"shifted_pitches":[6,8,3,0,6,8,3,11],"swapped_pitches":[6,8,3,6,1,8,3,11],"shift_direction":-1,"question_num":51,"has_decoy":false},{"rt":2467,"stimulus":"[A] option 1, [L] option 2, [G] neither","key_press":65,"name":"choice","trial_type":"html-keyboard-response","trial_index":76,"time_elapsed":119234,"internal_node_id":"0.0-76.0","subject":"S1C0814","sona":"41442","block":3,"time":"2021-09-15T15:48:59.182Z","response":"1st","certainty":"high","char":"A","transposition":1,"order":["swapped","shifted"],"probe_pitches":[13,8,9,3,7,15,9,10],"shifted_pitches":[13,8,9,2,7,15,9,10],"swapped_pitches":[13,8,9,7,3,15,9,10],"shift_direction":-1,"question_num":61,"has_decoy":false},{"rt":1903.5999999046326,"stimulus":"[A] option 1, [L] option 2, [G] neither","key_press":71,"name":"choice","trial_type":"html-keyboard-response","trial_index":87,"time_elapsed":146957,"internal_node_id":"0.0-87.0","subject":"S1C0814","sona":"41442","block":3,"time":"2021-09-15T15:48:59.182Z","response":"neither","certainty":"high","char":"G","transposition":3,"order":["shifted","swapped"],"probe_pitches":[4,1,6,8,11,4,1,-1],"shifted_pitches":[4,1,6,8,10,4,1,-1],"swapped_pitches":[4,1,6,11,8,4,1,-1],"shift_direction":-1,"question_num":71,"has_decoy":false},{"rt":626.2999999523163,"stimulus":"[A] option 1, [L] option 2, [G] neither","key_press":76,"name":"choice","trial_type":"html-keyboard-response","trial_index":98,"time_elapsed":163448,"internal_node_id":"0.0-98.0","subject":"S1C0814","sona":"41442","block":3,"time":"2021-09-15T15:48:59.182Z","response":"2nd","certainty":"high","char":"L","transposition":-1,"order":["shifted","swapped"],"probe_pitches":[10,6,3,8,10,5,10,7],"shifted_pitches":[10,6,3,8,11,5,10,7],"swapped_pitches":[10,6,3,10,8,5,10,7],"shift_direction":1,"question_num":81,"has_decoy":false},{"rt":2421.0999999046326,"stimulus":"[A] option 1, [L] option 2, [G] neither","key_press":65,"name":"choice","trial_type":"html-keyboard-response","trial_index":109,"time_elapsed":180151,"internal_node_id":"0.0-109.0","subject":"S1C0814","sona":"41442","block":3,"time":"2021-09-15T15:48:59.182Z","response":"1st","certainty":"high","char":"A","transposition":-3,"order":["shifted","swapped"],"probe_pitches":[-1,2,9,11,7,9,4,2],"shifted_pitches":[-1,2,9,11,8,9,4,2],"swapped_pitches":[-1,2,9,7,11,9,4,2],"shift_direction":1,"question_num":91,"has_decoy":false},{"rt":605.2999999523163,"stimulus":"[A] option 1, [L] option 2, [G] neither","key_press":76,"name":"choice","trial_type":"html-keyboard-response","trial_index":120,"time_elapsed":196341,"internal_node_id":"0.0-120.0","subject":"S1C0814","sona":"41442","block":3,"time":"2021-09-15T15:48:59.182Z","response":"2nd","certainty":"high","char":"L","transposition":-3,"order":["swapped","shifted"],"probe_pitches":[15,13,12,11,4,6,15,4],"shifted_pitches":[15,13,12,10,4,6,15,4],"swapped_pitches":[15,13,12,4,11,6,15,4],"shift_direction":-1,"question_num":101,"has_decoy":false},{"rt":1715.2999999523163,"stimulus":"[A] option 1, [L] option 2, [G] neither","key_press":71,"name":"choice","trial_type":"html-keyboard-response","trial_index":131,"time_elapsed":212406,"internal_node_id":"0.0-131.0","subject":"S1C0814","sona":"41442","block":3,"time":"2021-09-15T15:48:59.182Z","response":"neither","certainty":"high","char":"G","transposition":-2,"order":["shifted","swapped"],"probe_pitches":[6,5,12,5,6,13,11,13],"shifted_pitches":[6,5,12,5,7,13,11,13],"swapped_pitches":[6,5,12,6,5,13,11,13],"shift_direction":1,"question_num":111,"has_decoy":false},{"rt":2009.7999999523163,"stimulus":"[A] option 1, [L] option 2, [G] neither","key_press":76,"name":"choice","trial_type":"html-keyboard-response","trial_index":142,"time_elapsed":229565,"internal_node_id":"0.0-142.0","subject":"S1C0814","sona":"41442","block":3,"time":"2021-09-15T15:48:59.182Z","response":"2nd","certainty":"high","char":"L","transposition":2,"order":["shifted","swapped"],"probe_pitches":[4,1,8,4,6,11,1,6],"shifted_pitches":[4,1,8,4,7,11,1,6],"swapped_pitches":[4,1,8,6,4,11,1,6],"shift_direction":1,"question_num":121,"has_decoy":false},{"rt":431.09999990463257,"stimulus":"[A] option 1, [L] option 2, [G] neither","key_press":65,"name":"choice","trial_type":"html-keyboard-response","trial_index":153,"time_elapsed":244919,"internal_node_id":"0.0-153.0","subject":"S1C0814","sona":"41442","block":3,"time":"2021-09-15T15:48:59.182Z","response":"1st","certainty":"high","char":"A","transposition":-1,"order":["swapped","shifted"],"probe_pitches":[6,4,1,4,11,9,4,6],"shifted_pitches":[6,4,1,5,11,9,4,6],"swapped_pitches":[6,4,1,11,4,9,4,6],"shift_direction":1,"question_num":131,"has_decoy":false},{"rt":664.8000001907349,"stimulus":"[A] option 1, [L] option 2, [G] neither","key_press":65,"name":"choice","trial_type":"html-keyboard-response","trial_index":164,"time_elapsed":259794,"internal_node_id":"0.0-164.0","subject":"S1C0814","sona":"41442","block":3,"time":"2021-09-15T15:48:59.182Z","response":"1st","certainty":"high","char":"A","transposition":1,"order":["shifted","swapped"],"probe_pitches":[2,-1,4,2,6,9,2,9],"shifted_pitches":[2,-1,4,3,6,9,2,9],"swapped_pitches":[2,-1,4,6,2,9,2,9],"shift_direction":1,"question_num":141,"has_decoy":false},{"rt":314.2000000476837,"stimulus":"[A] option 1, [L] option 2, [G] neither","key_press":65,"name":"choice","trial_type":"html-keyboard-response","trial_index":175,"time_elapsed":274387,"internal_node_id":"0.0-175.0","subject":"S1C0814","sona":"41442","block":3,"time":"2021-09-15T15:48:59.182Z","response":"1st","certainty":"high","char":"A","transposition":0,"order":["shifted","swapped"],"probe_pitches":[-1,2,9,11,7,4,9,7],"shifted_pitches":[-1,2,9,10,7,4,9,7],"swapped_pitches":[-1,2,9,7,11,4,9,7],"shift_direction":-1,"question_num":151,"has_decoy":false},{"rt":510.40000009536743,"stimulus":"[A] option 1, [L] option 2, [G] neither","key_press":76,"name":"choice","trial_type":"html-keyboard-response","trial_index":186,"time_elapsed":289175,"internal_node_id":"0.0-186.0","subject":"S1C0814","sona":"41442","block":3,"time":"2021-09-15T15:48:59.182Z","response":"2nd","certainty":"high","char":"L","transposition":3,"order":["shifted","swapped"],"probe_pitches":[4,10,6,8,15,11,6,8],"shifted_pitches":[4,10,6,9,15,11,6,8],"swapped_pitches":[4,10,6,15,8,11,6,8],"shift_direction":1,"question_num":161,"has_decoy":false},{"rt":352.40000009536743,"stimulus":"[A] option 1, [L] option 2, [G] neither","key_press":76,"name":"choice","trial_type":"html-keyboard-response","trial_index":197,"time_elapsed":303823,"internal_node_id":"0.0-197.0","subject":"S1C0814","sona":"41442","block":3,"time":"2021-09-15T15:48:59.182Z","response":"2nd","certainty":"high","char":"L","transposition":2,"order":["shifted","swapped"],"probe_pitches":[3,4,3,5,14,12,3,8],"shifted_pitches":[3,4,3,5,13,12,3,8],"swapped_pitches":[3,4,3,14,5,12,3,8],"shift_direction":-1,"question_num":171,"has_decoy":false},{"rt":457,"stimulus":"[A] option 1, [L] option 2, [G] neither","key_press":71,"name":"choice","trial_type":"html-keyboard-response","trial_index":208,"time_elapsed":319271,"internal_node_id":"0.0-208.0","subject":"S1C0814","sona":"41442","block":3,"time":"2021-09-15T15:48:59.182Z","response":"neither","certainty":"high","char":"G","transposition":-1,"order":["swapped","shifted"],"probe_pitches":[-1,4,1,4,6,9,1,4],"shifted_pitches":[-1,4,1,3,6,9,1,4],"swapped_pitches":[-1,4,1,6,4,9,1,4],"shift_direction":-1,"question_num":181,"has_decoy":false},{"rt":491.59999990463257,"stimulus":"[A] option 1, [L] option 2, [G] neither","key_press":65,"name":"choice","trial_type":"html-keyboard-response","trial_index":219,"time_elapsed":334543,"internal_node_id":"0.0-219.0","subject":"S1C0814","sona":"41442","block":3,"time":"2021-09-15T15:48:59.182Z","response":"1st","certainty":"high","char":"A","transposition":-2,"order":["swapped","shifted"],"probe_pitches":[3,7,3,6,15,10,14,4],"shifted_pitches":[3,7,3,5,15,10,14,4],"swapped_pitches":[3,7,3,15,6,10,14,4],"shift_direction":-1,"question_num":191,"has_decoy":false}]