[{"rt":177.5,"stimulus":"[A] option 1, [L] option 2, [G] neither","key_press":76,"name":"choice","trial_type":"html-keyboard-response","trial_index":10,"time_elapsed":14448,"internal_node_id":"0.0-10.0","subject":"S1C0814","sona":"41442","block":6,"time":"2021-09-15T16:05:50.689Z","response":"2nd","certainty":"high","char":"L","transposition":-2,"order":["shifted","swapped"],"probe_pitches":[10,5,8,0,5,8,3,10],"shifted_pitches":[10,5,8,1,5,8,3,10],"swapped_pitches":[10,5,8,5,0,8,3,10],"shift_direction":1,"question_num":1,"has_decoy":false},{"rt":2903.5999999046326,"stimulus":"[A] option 1, [L] option 2, [G] neither","key_press":71,"name":"choice","trial_type":"html-keyboard-response","trial_index":21,"time_elapsed":31616,"internal_node_id":"0.0-21.0","subject":"S1C0814","sona":"41442","block":6,"time":"2021-09-15T16:05:50.689Z","response":"neither","certainty":"high","char":"G","transposition":-1,"order":["shifted","swapped"],"probe_pitches":[9,7,4,7,9,6,3,2],"shifted_pitches":[9,7,4,7,8,6,3,2],"swapped_pitches":[9,7,4,9,7,6,3,2],"shift_direction":-1,"question_num":11,"has_decoy":false},{"rt":2910.5999999046326,"stimulus":"[A] option 1, [L] option 2, [G] neither","key_press":71,"name":"choice","trial_type":"html-keyboard-response","trial_index":32,"time_elapsed":48925,"internal_node_id":"0.0-32.0","subject":"S1C0814","sona":"41442","block":6,"time":"2021-09-15T16:05:50.689Z","response":"neither","certainty":"high","char":"G","transposition":-3,"order":["swapped","shifted"],"probe_pitches":[3,5,-2,5,0,7,0,10],"shifted_pitches":[3,5,-2,5,-1,7,0,10],"swapped_pitches":[3,5,-2,0,5,7,0,10],"shift_direction":-1,"question_num":21,"has_decoy":false},{"rt":3917.2999999523163,"stimulus":"[A] option 1, [L] option 2, [G] neither","key_press":71,"name":"choice","trial_type":"html-keyboard-response","trial_index":43,"time_elapsed":69078,"internal_node_id":"0.0-43.0","subject":"S1C0814","sona":"41442","block":6,"time":"2021-09-15T16:05:50.689Z","response":"neither","certainty":"high","char":"G","transposition":-3,"order":["shifted","swapped"],"probe_pitches":[11,9,6,9,7,5,1,9],"shifted_pitches":[11,9,6,10,7,5,1,9],"swapped_pitches":[11,9,6,7,9,5,1,9],"shift_direction":1,"question_num":31,"has_decoy":false},{"rt":3373.5,"stimulus":"[A] option 1, [L] option 2, [G] neither","key_press":76,"name":"choice","trial_type":"html-keyboard-response","trial_index":54,"time_elapsed":94870,"internal_node_id":"0.0-54.0","subject":"S1C0814","sona":"41442","block":6,"time":"2021-09-15T16:05:50.689Z","response":"2nd","certainty":"high","char":"L","transposition":-1,"order":["shifted","swapped"],"probe_pitches":[3,1,8,3,-2,5,8,10],"shifted_pitches":[3,1,8,3,-3,5,8,10],"swapped_pitches":[3,1,8,-2,3,5,8,10],"shift_direction":-1,"question_num":41,"has_decoy":false},{"rt":296.7000000476837,"stimulus":"[A] option 1, [L] option 2, [G] neither","key_press":76,"name":"choice","trial_type":"html-keyboard-response","trial_index":65,"time_elapsed":109500,"internal_node_id":"0.0-65.0","subject":"S1C0814","sona":"41442","block":6,"time":"2021-09-15T16:05:50.689Z","response":"2nd","certainty":"high","char":"L","transposition":0,"order":["shifted","swapped"],"probe_pitches":[10,8,5,0,8,3,5,-2],"shifted_pitches":[10,8,5,1,8,3,5,-2],"swapped_pitches":[10,8,5,8,0,3,5,-2],"shift_direction":1,"question_num":51,"has_decoy":false},{"rt":1224.2999999523163,"stimulus":"[A] option 1, [L] option 2, [G] neither","key_press":71,"name":"choice","trial_type":"html-keyboard-response","trial_index":76,"time_elapsed":125308,"internal_node_id":"0.0-76.0","subject":"S1C0814","sona":"41442","block":6,"time":"2021-09-15T16:05:50.689Z","response":"neither","certainty":"high","char":"G","transposition":-2,"order":["swapped","shifted"],"probe_pitches":[9,11,10,7,1,4,-1,3],"shifted_pitches":[9,11,10,7,2,4,-1,3],"swapped_pitches":[9,11,10,1,7,4,-1,3],"shift_direction":1,"question_num":61,"has_decoy":false},{"rt":6954.799999952316,"stimulus":"[A] option 1, [L] option 2, [G] neither","key_press":71,"name":"choice","trial_type":"html-keyboard-response","trial_index":87,"time_elapsed":148185,"internal_node_id":"0.0-87.0","subject":"S1C0814","sona":"41442","block":6,"time":"2021-09-15T16:05:50.689Z","response":"neither","certainty":"high","char":"G","transposition":0,"order":["shifted","swapped"],"probe_pitches":[6,5,10,5,8,4,3,11],"shifted_pitches":[6,5,10,5,9,4,3,11],"swapped_pitches":[6,5,10,8,5,4,3,11],"shift_direction":1,"question_num":71,"has_decoy":false},{"rt":336.30000019073486,"stimulus":"[A] option 1, [L] option 2, [G] neither","key_press":76,"name":"choice","trial_type":"html-keyboard-response","trial_index":98,"time_elapsed":165897,"internal_node_id":"0.0-98.0","subject":"S1C0814","sona":"41442","block":6,"time":"2021-09-15T16:05:50.689Z","response":"2nd","certainty":"high","char":"L","transposition":2,"order":["swapped","shifted"],"probe_pitches":[-2,3,6,3,1,8,6,3],"shifted_pitches":[-2,3,6,2,1,8,6,3],"swapped_pitches":[-2,3,6,1,3,8,6,3],"shift_direction":-1,"question_num":81,"has_decoy":false},{"rt":1296.9000000953674,"stimulus":"[A] option 1, [L] option 2, [G] neither","key_press":71,"name":"choice","trial_type":"html-keyboard-response","trial_index":109,"time_elapsed":181541,"internal_node_id":"0.0-109.0","subject":"S1C0814","sona":"41442","block":6,"time":"2021-09-15T16:05:50.689Z","response":"neither","certainty":"high","char":"G","transposition":-3,"order":["swapped","shifted"],"probe_pitches":[2,1,6,4,3,7,1,11],"shifted_pitches":[2,1,6,5,3,7,1,11],"swapped_pitches":[2,1,6,3,4,7,1,11],"shift_direction":1,"question_num":91,"has_decoy":false},{"rt":347,"stimulus":"[A] option 1, [L] option 2, [G] neither","key_press":76,"name":"choice","trial_type":"html-keyboard-response","trial_index":120,"time_elapsed":197167,"internal_node_id":"0.0-120.0","subject":"S1C0814","sona":"41442","block":6,"time":"2021-09-15T16:05:50.689Z","response":"2nd","certainty":"high","char":"L","transposition":3,"order":["shifted","swapped"],"probe_pitches":[3,9,10,8,4,9,0,2],"shifted_pitches":[3,9,10,7,4,9,0,2],"swapped_pitches":[3,9,10,4,8,9,0,2],"shift_direction":-1,"question_num":101,"has_decoy":false},{"rt":2443.7000000476837,"stimulus":"[A] option 1, [L] option 2, [G] neither","key_press":71,"name":"choice","trial_type":"html-keyboard-response","trial_index":131,"time_elapsed":214138,"internal_node_id":"0.0-131.0","subject":"S1C0814","sona":"41442","block":6,"time":"2021-09-15T16:05:50.689Z","response":"neither","certainty":"high","char":"G","transposition":-1,"order":["swapped","shifted"],"probe_pitches":[7,10,5,7,2,10,0,-2],"shifted_pitches":[7,10,5,7,3,10,0,-2],"swapped_pitches":[7,10,5,2,7,10,0,-2],"shift_direction":1,"question_num":111,"has_decoy":false},{"rt":1572.2000000476837,"stimulus":"[A] option 1, [L] option 2, [G] neither","key_press":76,"name":"choice","trial_type":"html-keyboard-response","trial_index":142,"time_elapsed":230867,"internal_node_id":"0.0-142.0","subject":"S1C0814","sona":"41442","block":6,"time":"2021-09-15T16:05:50.689Z","response":"2nd","certainty":"high","char":"L","transposition":1,"order":["swapped","shifted"],"probe_pitches":[-2,3,-2,5,3,1,8,10],"shifted_pitches":[-2,3,-2,5,4,1,8,10],"swapped_pitches":[-2,3,-2,3,5,1,8,10],"shift_direction":1,"question_num":121,"has_decoy":false},{"rt":280.90000009536743,"stimulus":"[A] option 1, [L] option 2, [G] neither","key_press":71,"name":"choice","trial_type":"html-keyboard-response","trial_index":153,"time_elapsed":245592,"internal_node_id":"0.0-153.0","subject":"S1C0814","sona":"41442","block":6,"time":"2021-09-15T16:05:50.689Z","response":"neither","certainty":"high","char":"G","transposition":-3,"order":["shifted","swapped"],"probe_pitches":[-2,0,-2,0,3,5,7,-2],"shifted_pitches":[-2,0,-2,-1,3,5,7,-2],"swapped_pitches":[-2,0,-2,3,0,5,7,-2],"shift_direction":-1,"question_num":131,"has_decoy":false},{"rt":3037.5999999046326,"stimulus":"[A] option 1, [L] option 2, [G] neither","key_press":71,"name":"choice","trial_type":"html-keyboard-response","trial_index":164,"time_elapsed":263767,"internal_node_id":"0.0-164.0","subject":"S1C0814","sona":"41442","block":6,"time":"2021-09-15T16:05:50.689Z","response":"neither","certainty":"high","char":"G","transposition":-1,"order":["swapped","shifted"],"probe_pitches":[8,4,0,2,4,-1,6,9],"shifted_pitches":[8,4,0,1,4,-1,6,9],"swapped_pitches":[8,4,0,4,2,-1,6,9],"shift_direction":-1,"question_num":141,"has_decoy":false},{"rt":1889.7999999523163,"stimulus":"[A] option 1, [L] option 2, [G] neither","key_press":71,"name":"choice","trial_type":"html-keyboard-response","trial_index":175,"time_elapsed":280443,"internal_node_id":"0.0-175.0","subject":"S1C0814","sona":"41442","block":6,"time":"2021-09-15T16:05:50.689Z","response":"neither","certainty":"high","char":"G","transposition":-2,"order":["swapped","shifted"],"probe_pitches":[-2,0,7,5,0,7,-2,2],"shifted_pitches":[-2,0,7,5,-1,7,-2,2],"swapped_pitches":[-2,0,7,0,5,7,-2,2],"shift_direction":-1,"question_num":151,"has_decoy":false},{"rt":2448.2000000476837,"stimulus":"[A] option 1, [L] option 2, [G] neither","key_press":71,"name":"choice","trial_type":"html-keyboard-response","trial_index":186,"time_elapsed":297561,"internal_node_id":"0.0-186.0","subject":"S1C0814","sona":"41442","block":6,"time":"2021-09-15T16:05:50.689Z","response":"neither","certainty":"high","char":"G","transposition":-2,"order":["shifted","swapped"],"probe_pitches":[4,7,1,2,7,-1,7,4],"shifted_pitches":[4,7,1,2,6,-1,7,4],"swapped_pitches":[4,7,1,7,2,-1,7,4],"shift_direction":-1,"question_num":161,"has_decoy":false},{"rt":1309.7000000476837,"stimulus":"[A] option 1, [L] option 2, [G] neither","key_press":71,"name":"choice","trial_type":"html-keyboard-response","trial_index":197,"time_elapsed":313335,"internal_node_id":"0.0-197.0","subject":"S1C0814","sona":"41442","block":6,"time":"2021-09-15T16:05:50.689Z","response":"neither","certainty":"high","char":"G","transposition":2,"order":["swapped","shifted"],"probe_pitches":[0,5,-1,4,8,11,8,7],"shifted_pitches":[0,5,-1,3,8,11,8,7],"swapped_pitches":[0,5,-1,8,4,11,8,7],"shift_direction":-1,"question_num":171,"has_decoy":false},{"rt":1590.5,"stimulus":"[A] option 1, [L] option 2, [G] neither","key_press":76,"name":"choice","trial_type":"html-keyboard-response","trial_index":208,"time_elapsed":329504,"internal_node_id":"0.0-208.0","subject":"S1C0814","sona":"41442","block":6,"time":"2021-09-15T16:05:50.689Z","response":"2nd","certainty":"high","char":"L","transposition":1,"order":["swapped","shifted"],"probe_pitches":[2,3,6,9,3,7,2,6],"shifted_pitches":[2,3,6,9,4,7,2,6],"swapped_pitches":[2,3,6,3,9,7,2,6],"shift_direction":1,"question_num":181,"has_decoy":false},{"rt":668.5,"stimulus":"[A] option 1, [L] option 2, [G] neither","key_press":65,"name":"choice","trial_type":"html-keyboard-response","trial_index":219,"time_elapsed":345734,"internal_node_id":"0.0-219.0","subject":"S1C0814","sona":"41442","block":6,"time":"2021-09-15T16:05:50.689Z","response":"1st","certainty":"high","char":"A","transposition":3,"order":["shifted","swapped"],"probe_pitches":[3,-2,1,6,3,8,6,1],"shifted_pitches":[3,-2,1,7,3,8,6,1],"swapped_pitches":[3,-2,1,3,6,8,6,1],"shift_direction":1,"question_num":191,"has_decoy":false}]