[{"rt":8527.600000143051,"stimulus":"[A] option 1, [L] option 2, [G] neither","key_press":76,"name":"choice","trial_type":"html-keyboard-response","trial_index":15,"time_elapsed":95055,"internal_node_id":"0.0-15.0","response":"2nd","certainty":"high","char":"L","transposition":3,"order":["swapped","shifted"],"probe_pitches":[3,-1,3,-1,8,6,1,8],"shifted_pitches":[3,-1,3,-2,8,6,1,8],"swapped_pitches":[3,-1,3,8,-1,6,1,8],"shift_direction":-1,"question_num":1,"has_decoy":false,"subject":"S1C0814","sona":"41442","block":1,"time":"2021-09-15T15:37:13.133Z"},{"rt":9291.400000095367,"stimulus":"[A] option 1, [L] option 2, [G] neither","key_press":65,"name":"choice","trial_type":"html-keyboard-response","trial_index":26,"time_elapsed":122096,"internal_node_id":"0.0-26.0","response":"1st","certainty":"high","char":"A","transposition":-1,"order":["swapped","shifted"],"probe_pitches":[3,2,4,8,6,1,0,6],"shifted_pitches":[3,2,4,8,7,1,0,6],"swapped_pitches":[3,2,4,6,8,1,0,6],"shift_direction":1,"question_num":11,"has_decoy":false,"subject":"S1C0814","sona":"41442","block":1,"time":"2021-09-15T15:37:13.133Z"},{"rt":4646.200000047684,"stimulus":"[A] option 1, [L] option 2, [G] neither","key_press":76,"name":"choice","trial_type":"html-keyboard-response","trial_index":37,"time_elapsed":144134,"internal_node_id":"0.0-37.0","response":"2nd","certainty":"high","char":"L","transposition":-3,"order":["swapped","shifted"],"probe_pitches":[-1,2,9,7,-1,4,-1,7],"shifted_pitches":[-1,2,9,7,-2,4,-1,7],"swapped_pitches":[-1,2,9,-1,7,4,-1,7],"shift_direction":-1,"question_num":21,"has_decoy":false,"subject":"S1C0814","sona":"41442","block":1,"time":"2021-09-15T15:37:13.133Z"},{"rt":1650.0999999046326,"stimulus":"[A] option 1, [L] option 2, [G] neither","key_press":76,"name":"choice","trial_type":"html-keyboard-response","trial_index":48,"time_elapsed":162456,"internal_node_id":"0.0-48.0","response":"2nd","certainty":"high","char":"L","transposition":2,"order":["swapped","shifted"],"probe_pitches":[7,12,6,1,4,12,11,4],"shifted_pitches":[7,12,6,1,3,12,11,4],"swapped_pitches":[7,12,6,4,1,12,11,4],"shift_direction":-1,"question_num":31,"has_decoy":false,"subject":"S1C0814","sona":"41442","block":1,"time":"2021-09-15T15:37:13.133Z"},{"rt":931.8999998569489,"stimulus":"[A] option 1, [L] option 2, [G] neither","key_press":76,"name":"choice","trial_type":"html-keyboard-response","trial_index":59,"time_elapsed":179274,"internal_node_id":"0.0-59.0","response":"2nd","certainty":"high","char":"L","transposition":-2,"order":["swapped","shifted"],"probe_pitches":[2,4,2,4,9,11,7,9],"shifted_pitches":[2,4,2,3,9,11,7,9],"swapped_pitches":[2,4,2,9,4,11,7,9],"shift_direction":-1,"question_num":41,"has_decoy":false,"subject":"S1C0814","sona":"41442","block":1,"time":"2021-09-15T15:37:13.133Z"},{"rt":1369.7999999523163,"stimulus":"[A] option 1, [L] option 2, [G] neither","key_press":76,"name":"choice","trial_type":"html-keyboard-response","trial_index":70,"time_elapsed":196252,"internal_node_id":"0.0-70.0","response":"2nd","certainty":"high","char":"L","transposition":2,"order":["swapped","shifted"],"probe_pitches":[4,9,2,9,6,-1,2,11],"shifted_pitches":[4,9,2,9,5,-1,2,11],"swapped_pitches":[4,9,2,6,9,-1,2,11],"shift_direction":-1,"question_num":51,"has_decoy":false,"subject":"S1C0814","sona":"41442","block":1,"time":"2021-09-15T15:37:13.133Z"},{"rt":463.39999985694885,"stimulus":"[A] option 1, [L] option 2, [G] neither","key_press":76,"name":"choice","trial_type":"html-keyboard-response","trial_index":81,"time_elapsed":213338,"internal_node_id":"0.0-81.0","response":"2nd","certainty":"high","char":"L","transposition":-2,"order":["shifted","swapped"],"probe_pitches":[0,2,4,2,6,9,8,10],"shifted_pitches":[0,2,4,2,5,9,8,10],"swapped_pitches":[0,2,4,6,2,9,8,10],"shift_direction":-1,"question_num":61,"has_decoy":false,"subject":"S1C0814","sona":"41442","block":1,"time":"2021-09-15T15:37:13.133Z"},{"rt":1430,"stimulus":"[A] option 1, [L] option 2, [G] neither","key_press":76,"name":"choice","trial_type":"html-keyboard-response","trial_index":92,"time_elapsed":234748,"internal_node_id":"0.0-92.0","response":"2nd","certainty":"high","char":"L","transposition":-3,"order":["shifted","swapped"],"probe_pitches":[11,7,5,1,8,5,9,0],"shifted_pitches":[11,7,5,2,8,5,9,0],"swapped_pitches":[11,7,5,8,1,5,9,0],"shift_direction":1,"question_num":71,"has_decoy":false,"subject":"S1C0814","sona":"41442","block":1,"time":"2021-09-15T15:37:13.133Z"},{"rt":3306.2999999523163,"stimulus":"[A] option 1, [L] option 2, [G] neither","key_press":76,"name":"choice","trial_type":"html-keyboard-response","trial_index":103,"time_elapsed":256037,"internal_node_id":"0.0-103.0","response":"2nd","certainty":"high","char":"L","transposition":1,"order":["shifted","swapped"],"probe_pitches":[0,1,4,9,5,7,0,9],"shifted_pitches":[0,1,4,8,5,7,0,9],"swapped_pitches":[0,1,4,5,9,7,0,9],"shift_direction":-1,"question_num":81,"has_decoy":false,"subject":"S1C0814","sona":"41442","block":1,"time":"2021-09-15T15:37:13.133Z"},{"rt":1918.7000000476837,"stimulus":"[A] option 1, [L] option 2, [G] neither","key_press":65,"name":"choice","trial_type":"html-keyboard-response","trial_index":114,"time_elapsed":273492,"internal_node_id":"0.0-114.0","response":"1st","certainty":"high","char":"A","transposition":-1,"order":["swapped","shifted"],"probe_pitches":[6,1,-1,1,4,6,8,4],"shifted_pitches":[6,1,-1,1,5,6,8,4],"swapped_pitches":[6,1,-1,4,1,6,8,4],"shift_direction":1,"question_num":91,"has_decoy":false,"subject":"S1C0814","sona":"41442","block":1,"time":"2021-09-15T15:37:13.133Z"},{"rt":1910.5,"stimulus":"[A] option 1, [L] option 2, [G] neither","key_press":71,"name":"choice","trial_type":"html-keyboard-response","trial_index":125,"time_elapsed":290439,"internal_node_id":"0.0-125.0","response":"neither","certainty":"high","char":"G","transposition":-3,"order":["shifted","swapped"],"probe_pitches":[3,1,8,11,6,-1,3,11],"shifted_pitches":[3,1,8,11,7,-1,3,11],"swapped_pitches":[3,1,8,6,11,-1,3,11],"shift_direction":1,"question_num":101,"has_decoy":false,"subject":"S1C0814","sona":"41442","block":1,"time":"2021-09-15T15:37:13.133Z"},{"rt":1055.1000001430511,"stimulus":"[A] option 1, [L] option 2, [G] neither","key_press":65,"name":"choice","trial_type":"html-keyboard-response","trial_index":136,"time_elapsed":307680,"internal_node_id":"0.0-136.0","response":"1st","certainty":"high","char":"A","transposition":0,"order":["shifted","swapped"],"probe_pitches":[4,6,9,4,1,-1,1,9],"shifted_pitches":[4,6,9,5,1,-1,1,9],"swapped_pitches":[4,6,9,1,4,-1,1,9],"shift_direction":1,"question_num":111,"has_decoy":false,"subject":"S1C0814","sona":"41442","block":1,"time":"2021-09-15T15:37:13.133Z"},{"rt":844.3999998569489,"stimulus":"[A] option 1, [L] option 2, [G] neither","key_press":65,"name":"choice","trial_type":"html-keyboard-response","trial_index":147,"time_elapsed":323757,"internal_node_id":"0.0-147.0","response":"1st","certainty":"high","char":"A","transposition":-2,"order":["shifted","swapped"],"probe_pitches":[-1,2,6,11,2,9,4,6],"shifted_pitches":[-1,2,6,12,2,9,4,6],"swapped_pitches":[-1,2,6,2,11,9,4,6],"shift_direction":1,"question_num":121,"has_decoy":false,"subject":"S1C0814","sona":"41442","block":1,"time":"2021-09-15T15:37:13.133Z"},{"rt":4097.100000143051,"stimulus":"[A] option 1, [L] option 2, [G] neither","key_press":65,"name":"choice","trial_type":"html-keyboard-response","trial_index":158,"time_elapsed":343170,"internal_node_id":"0.0-158.0","response":"1st","certainty":"high","char":"A","transposition":-2,"order":["shifted","swapped"],"probe_pitches":[6,5,6,4,11,3,0,3],"shifted_pitches":[6,5,6,4,10,3,0,3],"swapped_pitches":[6,5,6,11,4,3,0,3],"shift_direction":-1,"question_num":131,"has_decoy":false,"subject":"S1C0814","sona":"41442","block":1,"time":"2021-09-15T15:37:13.133Z"},{"rt":773.4000000953674,"stimulus":"[A] option 1, [L] option 2, [G] neither","key_press":76,"name":"choice","trial_type":"html-keyboard-response","trial_index":169,"time_elapsed":359521,"internal_node_id":"0.0-169.0","response":"2nd","certainty":"high","char":"L","transposition":-3,"order":["shifted","swapped"],"probe_pitches":[7,4,8,0,9,1,8,1],"shifted_pitches":[7,4,8,-1,9,1,8,1],"swapped_pitches":[7,4,8,9,0,1,8,1],"shift_direction":-1,"question_num":141,"has_decoy":false,"subject":"S1C0814","sona":"41442","block":1,"time":"2021-09-15T15:37:13.133Z"},{"rt":1953.5999999046326,"stimulus":"[A] option 1, [L] option 2, [G] neither","key_press":65,"name":"choice","trial_type":"html-keyboard-response","trial_index":180,"time_elapsed":376712,"internal_node_id":"0.0-180.0","response":"1st","certainty":"high","char":"A","transposition":-1,"order":["swapped","shifted"],"probe_pitches":[10,7,0,5,11,8,3,5],"shifted_pitches":[10,7,0,6,11,8,3,5],"swapped_pitches":[10,7,0,11,5,8,3,5],"shift_direction":1,"question_num":151,"has_decoy":false,"subject":"S1C0814","sona":"41442","block":1,"time":"2021-09-15T15:37:13.133Z"},{"rt":702.2999999523163,"stimulus":"[A] option 1, [L] option 2, [G] neither","key_press":76,"name":"choice","trial_type":"html-keyboard-response","trial_index":191,"time_elapsed":391903,"internal_node_id":"0.0-191.0","response":"2nd","certainty":"high","char":"L","transposition":0,"order":["swapped","shifted"],"probe_pitches":[10,7,4,7,8,11,10,11],"shifted_pitches":[10,7,4,7,9,11,10,11],"swapped_pitches":[10,7,4,8,7,11,10,11],"shift_direction":1,"question_num":161,"has_decoy":false,"subject":"S1C0814","sona":"41442","block":1,"time":"2021-09-15T15:37:13.133Z"},{"rt":876.4000000953674,"stimulus":"[A] option 1, [L] option 2, [G] neither","key_press":65,"name":"choice","trial_type":"html-keyboard-response","trial_index":202,"time_elapsed":408589,"internal_node_id":"0.0-202.0","response":"1st","certainty":"high","char":"A","transposition":-1,"order":["shifted","swapped"],"probe_pitches":[1,-1,1,4,-1,9,-1,6],"shifted_pitches":[1,-1,1,4,0,9,-1,6],"swapped_pitches":[1,-1,1,-1,4,9,-1,6],"shift_direction":1,"question_num":171,"has_decoy":false,"subject":"S1C0814","sona":"41442","block":1,"time":"2021-09-15T15:37:13.133Z"},{"rt":1168.5999999046326,"stimulus":"[A] option 1, [L] option 2, [G] neither","key_press":76,"name":"choice","trial_type":"html-keyboard-response","trial_index":213,"time_elapsed":425324,"internal_node_id":"0.0-213.0","response":"2nd","certainty":"high","char":"L","transposition":3,"order":["swapped","shifted"],"probe_pitches":[10,11,5,3,0,2,10,5],"shifted_pitches":[10,11,5,4,0,2,10,5],"swapped_pitches":[10,11,5,0,3,2,10,5],"shift_direction":1,"question_num":181,"has_decoy":false,"subject":"S1C0814","sona":"41442","block":1,"time":"2021-09-15T15:37:13.133Z"},{"rt":1041.9000000953674,"stimulus":"[A] option 1, [L] option 2, [G] neither","key_press":65,"name":"choice","trial_type":"html-keyboard-response","trial_index":224,"time_elapsed":441070,"internal_node_id":"0.0-224.0","response":"1st","certainty":"high","char":"A","transposition":1,"order":["shifted","swapped"],"probe_pitches":[1,4,11,4,1,8,6,8],"shifted_pitches":[1,4,11,3,1,8,6,8],"swapped_pitches":[1,4,11,1,4,8,6,8],"shift_direction":-1,"question_num":191,"has_decoy":false,"subject":"S1C0814","sona":"41442","block":1,"time":"2021-09-15T15:37:13.133Z"}]