[{"rt":876.9000000953674,"stimulus":"[A] option 1, [L] option 2, [G] neither","key_press":76,"name":"choice","trial_type":"html-keyboard-response","trial_index":10,"time_elapsed":49609,"internal_node_id":"0.0-10.0","subject":"S1C1236","sona":"41514","block":5,"time":"2021-09-18T19:22:36.487Z","response":"2nd","certainty":"high","char":"L","transposition":3,"order":["shifted","swapped"],"probe_pitches":[13,15,13,7,5,9,4,8,14,9,8,5],"shifted_pitches":[13,15,13,7,5,10,4,8,14,9,8,5],"swapped_pitches":[13,15,13,7,5,4,9,8,14,9,8,5],"shift_direction":1,"question_num":1,"has_decoy":false},{"rt":1097.6999999284744,"stimulus":"[A] option 1, [L] option 2, [G] neither","key_press":71,"name":"choice","trial_type":"html-keyboard-response","trial_index":21,"time_elapsed":69472,"internal_node_id":"0.0-21.0","subject":"S1C1236","sona":"41514","block":5,"time":"2021-09-18T19:22:36.487Z","response":"neither","certainty":"high","char":"G","transposition":-3,"order":["shifted","swapped"],"probe_pitches":[15,13,14,13,5,9,12,4,5,4,3,7],"shifted_pitches":[15,13,14,13,5,8,12,4,5,4,3,7],"swapped_pitches":[15,13,14,13,5,12,9,4,5,4,3,7],"shift_direction":-1,"question_num":11,"has_decoy":false},{"rt":862.6000000238419,"stimulus":"[A] option 1, [L] option 2, [G] neither","key_press":71,"name":"choice","trial_type":"html-keyboard-response","trial_index":32,"time_elapsed":89013,"internal_node_id":"0.0-32.0","subject":"S1C1236","sona":"41514","block":5,"time":"2021-09-18T19:22:36.487Z","response":"neither","certainty":"high","char":"G","transposition":-1,"order":["shifted","swapped"],"probe_pitches":[15,10,3,10,12,10,3,12,8,15,5,3],"shifted_pitches":[15,10,3,10,12,9,3,12,8,15,5,3],"swapped_pitches":[15,10,3,10,12,3,10,12,8,15,5,3],"shift_direction":-1,"question_num":21,"has_decoy":false},{"rt":2256.2999999523163,"stimulus":"[A] option 1, [L] option 2, [G] neither","key_press":76,"name":"choice","trial_type":"html-keyboard-response","trial_index":43,"time_elapsed":110119,"internal_node_id":"0.0-43.0","subject":"S1C1236","sona":"41514","block":5,"time":"2021-09-18T19:22:36.487Z","response":"2nd","certainty":"high","char":"L","transposition":-2,"order":["swapped","shifted"],"probe_pitches":[11,13,7,10,13,3,8,15,3,10,15,8],"shifted_pitches":[11,13,7,10,13,3,9,15,3,10,15,8],"swapped_pitches":[11,13,7,10,13,8,3,15,3,10,15,8],"shift_direction":1,"question_num":31,"has_decoy":false},{"rt":3897.100000023842,"stimulus":"[A] option 1, [L] option 2, [G] neither","key_press":76,"name":"choice","trial_type":"html-keyboard-response","trial_index":54,"time_elapsed":132576,"internal_node_id":"0.0-54.0","subject":"S1C1236","sona":"41514","block":5,"time":"2021-09-18T19:22:36.487Z","response":"2nd","certainty":"high","char":"L","transposition":1,"order":["swapped","shifted"],"probe_pitches":[4,6,9,5,6,3,10,5,4,15,7,12],"shifted_pitches":[4,6,9,5,6,3,11,5,4,15,7,12],"swapped_pitches":[4,6,9,5,6,10,3,5,4,15,7,12],"shift_direction":1,"question_num":41,"has_decoy":false},{"rt":743.8999999761581,"stimulus":"[A] option 1, [L] option 2, [G] neither","key_press":76,"name":"choice","trial_type":"html-keyboard-response","trial_index":65,"time_elapsed":152378,"internal_node_id":"0.0-65.0","subject":"S1C1236","sona":"41514","block":5,"time":"2021-09-18T19:22:36.487Z","response":"2nd","certainty":"high","char":"L","transposition":0,"order":["shifted","swapped"],"probe_pitches":[15,13,15,10,5,13,3,8,13,3,15,13],"shifted_pitches":[15,13,15,10,5,13,2,8,13,3,15,13],"swapped_pitches":[15,13,15,10,5,3,13,8,13,3,15,13],"shift_direction":-1,"question_num":51,"has_decoy":false},{"rt":1343.8999999761581,"stimulus":"[A] option 1, [L] option 2, [G] neither","key_press":65,"name":"choice","trial_type":"html-keyboard-response","trial_index":76,"time_elapsed":172249,"internal_node_id":"0.0-76.0","subject":"S1C1236","sona":"41514","block":5,"time":"2021-09-18T19:22:36.487Z","response":"1st","certainty":"high","char":"A","transposition":2,"order":["swapped","shifted"],"probe_pitches":[10,5,12,15,7,12,10,3,5,12,3,15],"shifted_pitches":[10,5,12,15,7,12,11,3,5,12,3,15],"swapped_pitches":[10,5,12,15,7,10,12,3,5,12,3,15],"shift_direction":1,"question_num":61,"has_decoy":false},{"rt":333.7999999523163,"stimulus":"[A] option 1, [L] option 2, [G] neither","key_press":76,"name":"choice","trial_type":"html-keyboard-response","trial_index":87,"time_elapsed":191141,"internal_node_id":"0.0-87.0","subject":"S1C1236","sona":"41514","block":5,"time":"2021-09-18T19:22:36.487Z","response":"2nd","certainty":"high","char":"L","transposition":-2,"order":["swapped","shifted"],"probe_pitches":[15,13,15,10,15,5,13,10,13,10,15,8],"shifted_pitches":[15,13,15,10,15,4,13,10,13,10,15,8],"swapped_pitches":[15,13,15,10,15,13,5,10,13,10,15,8],"shift_direction":-1,"question_num":71,"has_decoy":false},{"rt":320.7999999523163,"stimulus":"[A] option 1, [L] option 2, [G] neither","key_press":76,"name":"choice","trial_type":"html-keyboard-response","trial_index":98,"time_elapsed":209928,"internal_node_id":"0.0-98.0","subject":"S1C1236","sona":"41514","block":5,"time":"2021-09-18T19:22:36.487Z","response":"2nd","certainty":"high","char":"L","transposition":1,"order":["swapped","shifted"],"probe_pitches":[5,7,5,10,3,12,15,3,12,5,7,15],"shifted_pitches":[5,7,5,10,3,11,15,3,12,5,7,15],"swapped_pitches":[5,7,5,10,3,15,12,3,12,5,7,15],"shift_direction":-1,"question_num":81,"has_decoy":false},{"rt":413.1999999284744,"stimulus":"[A] option 1, [L] option 2, [G] neither","key_press":76,"name":"choice","trial_type":"html-keyboard-response","trial_index":109,"time_elapsed":228863,"internal_node_id":"0.0-109.0","subject":"S1C1236","sona":"41514","block":5,"time":"2021-09-18T19:22:36.487Z","response":"2nd","certainty":"high","char":"L","transposition":-1,"order":["shifted","swapped"],"probe_pitches":[11,6,8,3,8,13,11,3,6,15,3,15],"shifted_pitches":[11,6,8,3,8,13,12,3,6,15,3,15],"swapped_pitches":[11,6,8,3,8,11,13,3,6,15,3,15],"shift_direction":1,"question_num":91,"has_decoy":false},{"rt":1412.2000000476837,"stimulus":"[A] option 1, [L] option 2, [G] neither","key_press":76,"name":"choice","trial_type":"html-keyboard-response","trial_index":120,"time_elapsed":248934,"internal_node_id":"0.0-120.0","subject":"S1C1236","sona":"41514","block":5,"time":"2021-09-18T19:22:36.487Z","response":"2nd","certainty":"high","char":"L","transposition":-1,"order":["shifted","swapped"],"probe_pitches":[8,11,7,15,9,13,5,14,3,15,3,9],"shifted_pitches":[8,11,7,15,9,12,5,14,3,15,3,9],"swapped_pitches":[8,11,7,15,9,5,13,14,3,15,3,9],"shift_direction":-1,"question_num":101,"has_decoy":false},{"rt":777,"stimulus":"[A] option 1, [L] option 2, [G] neither","key_press":65,"name":"choice","trial_type":"html-keyboard-response","trial_index":131,"time_elapsed":268235,"internal_node_id":"0.0-131.0","subject":"S1C1236","sona":"41514","block":5,"time":"2021-09-18T19:22:36.487Z","response":"1st","certainty":"high","char":"A","transposition":-2,"order":["swapped","shifted"],"probe_pitches":[4,7,8,13,7,13,6,12,13,6,13,8],"shifted_pitches":[4,7,8,13,7,14,6,12,13,6,13,8],"swapped_pitches":[4,7,8,13,7,6,13,12,13,6,13,8],"shift_direction":1,"question_num":111,"has_decoy":false},{"rt":245.70000004768372,"stimulus":"[A] option 1, [L] option 2, [G] neither","key_press":76,"name":"choice","trial_type":"html-keyboard-response","trial_index":142,"time_elapsed":286872,"internal_node_id":"0.0-142.0","subject":"S1C1236","sona":"41514","block":5,"time":"2021-09-18T19:22:36.487Z","response":"2nd","certainty":"high","char":"L","transposition":2,"order":["swapped","shifted"],"probe_pitches":[12,10,3,6,3,8,14,11,14,5,14,6],"shifted_pitches":[12,10,3,6,3,7,14,11,14,5,14,6],"swapped_pitches":[12,10,3,6,3,14,8,11,14,5,14,6],"shift_direction":-1,"question_num":121,"has_decoy":false},{"rt":1105.3000000715256,"stimulus":"[A] option 1, [L] option 2, [G] neither","key_press":76,"name":"choice","trial_type":"html-keyboard-response","trial_index":153,"time_elapsed":309343,"internal_node_id":"0.0-153.0","subject":"S1C1236","sona":"41514","block":5,"time":"2021-09-18T19:22:36.487Z","response":"2nd","certainty":"high","char":"L","transposition":-2,"order":["shifted","swapped"],"probe_pitches":[6,3,10,6,8,10,13,15,10,3,8,13],"shifted_pitches":[6,3,10,6,8,11,13,15,10,3,8,13],"swapped_pitches":[6,3,10,6,8,13,10,15,10,3,8,13],"shift_direction":1,"question_num":131,"has_decoy":false},{"rt":711.6999999284744,"stimulus":"[A] option 1, [L] option 2, [G] neither","key_press":65,"name":"choice","trial_type":"html-keyboard-response","trial_index":164,"time_elapsed":328800,"internal_node_id":"0.0-164.0","subject":"S1C1236","sona":"41514","block":5,"time":"2021-09-18T19:22:36.487Z","response":"1st","certainty":"high","char":"A","transposition":0,"order":["swapped","shifted"],"probe_pitches":[9,3,10,6,3,4,14,10,11,10,14,7],"shifted_pitches":[9,3,10,6,3,4,13,10,11,10,14,7],"swapped_pitches":[9,3,10,6,3,14,4,10,11,10,14,7],"shift_direction":-1,"question_num":141,"has_decoy":false},{"rt":2377.100000023842,"stimulus":"[A] option 1, [L] option 2, [G] neither","key_press":71,"name":"choice","trial_type":"html-keyboard-response","trial_index":175,"time_elapsed":349751,"internal_node_id":"0.0-175.0","subject":"S1C1236","sona":"41514","block":5,"time":"2021-09-18T19:22:36.487Z","response":"neither","certainty":"high","char":"G","transposition":-1,"order":["shifted","swapped"],"probe_pitches":[11,8,3,9,12,10,6,13,4,8,4,9],"shifted_pitches":[11,8,3,9,12,10,5,13,4,8,4,9],"swapped_pitches":[11,8,3,9,12,6,10,13,4,8,4,9],"shift_direction":-1,"question_num":151,"has_decoy":false},{"rt":2494.100000023842,"stimulus":"[A] option 1, [L] option 2, [G] neither","key_press":71,"name":"choice","trial_type":"html-keyboard-response","trial_index":186,"time_elapsed":372529,"internal_node_id":"0.0-186.0","subject":"S1C1236","sona":"41514","block":5,"time":"2021-09-18T19:22:36.487Z","response":"neither","certainty":"high","char":"G","transposition":3,"order":["shifted","swapped"],"probe_pitches":[10,12,8,3,10,8,15,5,3,15,5,8],"shifted_pitches":[10,12,8,3,10,9,15,5,3,15,5,8],"swapped_pitches":[10,12,8,3,10,15,8,5,3,15,5,8],"shift_direction":1,"question_num":161,"has_decoy":false},{"rt":616.5,"stimulus":"[A] option 1, [L] option 2, [G] neither","key_press":76,"name":"choice","trial_type":"html-keyboard-response","trial_index":197,"time_elapsed":394598,"internal_node_id":"0.0-197.0","subject":"S1C1236","sona":"41514","block":5,"time":"2021-09-18T19:22:36.487Z","response":"2nd","certainty":"high","char":"L","transposition":-3,"order":["shifted","swapped"],"probe_pitches":[14,15,12,10,14,13,5,10,8,9,8,14],"shifted_pitches":[14,15,12,10,14,13,6,10,8,9,8,14],"swapped_pitches":[14,15,12,10,14,5,13,10,8,9,8,14],"shift_direction":1,"question_num":171,"has_decoy":false},{"rt":739.1999999284744,"stimulus":"[A] option 1, [L] option 2, [G] neither","key_press":76,"name":"choice","trial_type":"html-keyboard-response","trial_index":208,"time_elapsed":413639,"internal_node_id":"0.0-208.0","subject":"S1C1236","sona":"41514","block":5,"time":"2021-09-18T19:22:36.487Z","response":"2nd","certainty":"high","char":"L","transposition":-3,"order":["swapped","shifted"],"probe_pitches":[3,6,13,6,11,13,8,11,6,11,13,6],"shifted_pitches":[3,6,13,6,11,13,9,11,6,11,13,6],"swapped_pitches":[3,6,13,6,11,8,13,11,6,11,13,6],"shift_direction":1,"question_num":181,"has_decoy":false},{"rt":1095.1000000238419,"stimulus":"[A] option 1, [L] option 2, [G] neither","key_press":76,"name":"choice","trial_type":"html-keyboard-response","trial_index":219,"time_elapsed":433723,"internal_node_id":"0.0-219.0","subject":"S1C1236","sona":"41514","block":5,"time":"2021-09-18T19:22:36.487Z","response":"2nd","certainty":"high","char":"L","transposition":-3,"order":["swapped","shifted"],"probe_pitches":[10,13,8,15,10,3,8,6,10,6,3,13],"shifted_pitches":[10,13,8,15,10,3,7,6,10,6,3,13],"swapped_pitches":[10,13,8,15,10,8,3,6,10,6,3,13],"shift_direction":-1,"question_num":191,"has_decoy":false}]