[{"rt":1393.3999999761581,"stimulus":"[A] option 1, [L] option 2, [G] neither","key_press":65,"name":"choice","trial_type":"html-keyboard-response","trial_index":10,"time_elapsed":22465,"internal_node_id":"0.0-10.0","subject":"S1C1236","sona":"41514","block":2,"time":"2021-09-18T19:00:21.489Z","response":"1st","certainty":"high","char":"A","transposition":-3,"order":["shifted","swapped"],"probe_pitches":[12,6,10,7,14,9,4,3,9,10,14,15],"shifted_pitches":[12,6,10,7,14,8,4,3,9,10,14,15],"swapped_pitches":[12,6,10,7,14,4,9,3,9,10,14,15],"shift_direction":-1,"question_num":1,"has_decoy":false},{"rt":825.2999999523163,"stimulus":"[A] option 1, [L] option 2, [G] neither","key_press":71,"name":"choice","trial_type":"html-keyboard-response","trial_index":21,"time_elapsed":42644,"internal_node_id":"0.0-21.0","subject":"S1C1236","sona":"41514","block":2,"time":"2021-09-18T19:00:21.489Z","response":"neither","certainty":"high","char":"G","transposition":1,"order":["swapped","shifted"],"probe_pitches":[3,-2,5,7,5,10,3,-2,5,0,3,0],"shifted_pitches":[3,-2,5,7,5,10,4,-2,5,0,3,0],"swapped_pitches":[3,-2,5,7,5,3,10,-2,5,0,3,0],"shift_direction":1,"question_num":11,"has_decoy":false},{"rt":911.4000000953674,"stimulus":"[A] option 1, [L] option 2, [G] neither","key_press":65,"name":"choice","trial_type":"html-keyboard-response","trial_index":32,"time_elapsed":63647,"internal_node_id":"0.0-32.0","subject":"S1C1236","sona":"41514","block":2,"time":"2021-09-18T19:00:21.489Z","response":"1st","certainty":"high","char":"A","transposition":-1,"order":["shifted","swapped"],"probe_pitches":[5,7,8,15,13,10,3,12,6,7,11,4],"shifted_pitches":[5,7,8,15,13,9,3,12,6,7,11,4],"swapped_pitches":[5,7,8,15,13,3,10,12,6,7,11,4],"shift_direction":-1,"question_num":21,"has_decoy":false},{"rt":421.39999997615814,"stimulus":"[A] option 1, [L] option 2, [G] neither","key_press":76,"name":"choice","trial_type":"html-keyboard-response","trial_index":43,"time_elapsed":82901,"internal_node_id":"0.0-43.0","subject":"S1C1236","sona":"41514","block":2,"time":"2021-09-18T19:00:21.489Z","response":"2nd","certainty":"high","char":"L","transposition":-1,"order":["swapped","shifted"],"probe_pitches":[0,-2,2,5,7,5,2,10,7,0,7,5],"shifted_pitches":[0,-2,2,5,7,4,2,10,7,0,7,5],"swapped_pitches":[0,-2,2,5,7,2,5,10,7,0,7,5],"shift_direction":-1,"question_num":31,"has_decoy":false},{"rt":1566.5,"stimulus":"[A] option 1, [L] option 2, [G] neither","key_press":71,"name":"choice","trial_type":"html-keyboard-response","trial_index":54,"time_elapsed":103604,"internal_node_id":"0.0-54.0","subject":"S1C1236","sona":"41514","block":2,"time":"2021-09-18T19:00:21.489Z","response":"neither","certainty":"high","char":"G","transposition":-1,"order":["shifted","swapped"],"probe_pitches":[10,8,10,8,3,1,-2,3,1,5,3,1],"shifted_pitches":[10,8,10,8,3,2,-2,3,1,5,3,1],"swapped_pitches":[10,8,10,8,3,-2,1,3,1,5,3,1],"shift_direction":1,"question_num":41,"has_decoy":false},{"rt":374.60000002384186,"stimulus":"[A] option 1, [L] option 2, [G] neither","key_press":76,"name":"choice","trial_type":"html-keyboard-response","trial_index":65,"time_elapsed":123816,"internal_node_id":"0.0-65.0","subject":"S1C1236","sona":"41514","block":2,"time":"2021-09-18T19:00:21.489Z","response":"2nd","certainty":"high","char":"L","transposition":-3,"order":["swapped","shifted"],"probe_pitches":[13,8,13,11,15,10,8,5,9,4,8,10],"shifted_pitches":[13,8,13,11,15,10,7,5,9,4,8,10],"swapped_pitches":[13,8,13,11,15,8,10,5,9,4,8,10],"shift_direction":-1,"question_num":51,"has_decoy":false},{"rt":1414.2999999523163,"stimulus":"[A] option 1, [L] option 2, [G] neither","key_press":71,"name":"choice","trial_type":"html-keyboard-response","trial_index":76,"time_elapsed":144348,"internal_node_id":"0.0-76.0","subject":"S1C1236","sona":"41514","block":2,"time":"2021-09-18T19:00:21.489Z","response":"neither","certainty":"high","char":"G","transposition":-3,"order":["swapped","shifted"],"probe_pitches":[0,3,10,5,0,5,-2,7,-2,10,5,3],"shifted_pitches":[0,3,10,5,0,5,-1,7,-2,10,5,3],"swapped_pitches":[0,3,10,5,0,-2,5,7,-2,10,5,3],"shift_direction":1,"question_num":61,"has_decoy":false},{"rt":1547.8999999761581,"stimulus":"[A] option 1, [L] option 2, [G] neither","key_press":71,"name":"choice","trial_type":"html-keyboard-response","trial_index":87,"time_elapsed":164658,"internal_node_id":"0.0-87.0","subject":"S1C1236","sona":"41514","block":2,"time":"2021-09-18T19:00:21.489Z","response":"neither","certainty":"high","char":"G","transposition":2,"order":["shifted","swapped"],"probe_pitches":[11,8,4,7,13,11,4,6,7,15,12,6],"shifted_pitches":[11,8,4,7,13,10,4,6,7,15,12,6],"swapped_pitches":[11,8,4,7,13,4,11,6,7,15,12,6],"shift_direction":-1,"question_num":71,"has_decoy":false},{"rt":600.3999999761581,"stimulus":"[A] option 1, [L] option 2, [G] neither","key_press":76,"name":"choice","trial_type":"html-keyboard-response","trial_index":98,"time_elapsed":184318,"internal_node_id":"0.0-98.0","subject":"S1C1236","sona":"41514","block":2,"time":"2021-09-18T19:00:21.489Z","response":"2nd","certainty":"high","char":"L","transposition":-2,"order":["shifted","swapped"],"probe_pitches":[10,5,3,8,5,1,-2,8,-2,10,5,10],"shifted_pitches":[10,5,3,8,5,2,-2,8,-2,10,5,10],"swapped_pitches":[10,5,3,8,5,-2,1,8,-2,10,5,10],"shift_direction":1,"question_num":81,"has_decoy":false},{"rt":1241,"stimulus":"[A] option 1, [L] option 2, [G] neither","key_press":76,"name":"choice","trial_type":"html-keyboard-response","trial_index":109,"time_elapsed":205108,"internal_node_id":"0.0-109.0","subject":"S1C1236","sona":"41514","block":2,"time":"2021-09-18T19:00:21.489Z","response":"2nd","certainty":"high","char":"L","transposition":-2,"order":["swapped","shifted"],"probe_pitches":[6,5,9,12,3,6,12,9,11,15,3,10],"shifted_pitches":[6,5,9,12,3,6,13,9,11,15,3,10],"swapped_pitches":[6,5,9,12,3,12,6,9,11,15,3,10],"shift_direction":1,"question_num":91,"has_decoy":false},{"rt":444.39999997615814,"stimulus":"[A] option 1, [L] option 2, [G] neither","key_press":76,"name":"choice","trial_type":"html-keyboard-response","trial_index":120,"time_elapsed":224579,"internal_node_id":"0.0-120.0","subject":"S1C1236","sona":"41514","block":2,"time":"2021-09-18T19:00:21.489Z","response":"2nd","certainty":"high","char":"L","transposition":0,"order":["shifted","swapped"],"probe_pitches":[3,9,10,12,4,5,9,14,12,10,8,3],"shifted_pitches":[3,9,10,12,4,6,9,14,12,10,8,3],"swapped_pitches":[3,9,10,12,4,9,5,14,12,10,8,3],"shift_direction":1,"question_num":101,"has_decoy":false},{"rt":897,"stimulus":"[A] option 1, [L] option 2, [G] neither","key_press":65,"name":"choice","trial_type":"html-keyboard-response","trial_index":131,"time_elapsed":244295,"internal_node_id":"0.0-131.0","subject":"S1C1236","sona":"41514","block":2,"time":"2021-09-18T19:00:21.489Z","response":"1st","certainty":"high","char":"A","transposition":1,"order":["swapped","shifted"],"probe_pitches":[12,8,3,8,14,4,6,8,11,8,15,7],"shifted_pitches":[12,8,3,8,14,4,5,8,11,8,15,7],"swapped_pitches":[12,8,3,8,14,6,4,8,11,8,15,7],"shift_direction":-1,"question_num":111,"has_decoy":false},{"rt":385.5,"stimulus":"[A] option 1, [L] option 2, [G] neither","key_press":76,"name":"choice","trial_type":"html-keyboard-response","trial_index":142,"time_elapsed":264050,"internal_node_id":"0.0-142.0","subject":"S1C1236","sona":"41514","block":2,"time":"2021-09-18T19:00:21.489Z","response":"2nd","certainty":"high","char":"L","transposition":-1,"order":["shifted","swapped"],"probe_pitches":[5,7,3,7,15,9,11,15,3,15,3,15],"shifted_pitches":[5,7,3,7,15,9,12,15,3,15,3,15],"swapped_pitches":[5,7,3,7,15,11,9,15,3,15,3,15],"shift_direction":1,"question_num":121,"has_decoy":false},{"rt":338.2000000476837,"stimulus":"[A] option 1, [L] option 2, [G] neither","key_press":65,"name":"choice","trial_type":"html-keyboard-response","trial_index":153,"time_elapsed":283673,"internal_node_id":"0.0-153.0","subject":"S1C1236","sona":"41514","block":2,"time":"2021-09-18T19:00:21.489Z","response":"1st","certainty":"high","char":"A","transposition":-3,"order":["shifted","swapped"],"probe_pitches":[0,5,-2,3,0,3,10,8,3,10,5,10],"shifted_pitches":[0,5,-2,3,0,3,11,8,3,10,5,10],"swapped_pitches":[0,5,-2,3,0,10,3,8,3,10,5,10],"shift_direction":1,"question_num":131,"has_decoy":false},{"rt":535.6999999284744,"stimulus":"[A] option 1, [L] option 2, [G] neither","key_press":76,"name":"choice","trial_type":"html-keyboard-response","trial_index":164,"time_elapsed":304670,"internal_node_id":"0.0-164.0","subject":"S1C1236","sona":"41514","block":2,"time":"2021-09-18T19:00:21.489Z","response":"2nd","certainty":"high","char":"L","transposition":3,"order":["swapped","shifted"],"probe_pitches":[-2,0,2,10,2,10,5,7,0,7,-2,5],"shifted_pitches":[-2,0,2,10,2,10,4,7,0,7,-2,5],"swapped_pitches":[-2,0,2,10,2,5,10,7,0,7,-2,5],"shift_direction":-1,"question_num":141,"has_decoy":false},{"rt":1146.8999999761581,"stimulus":"[A] option 1, [L] option 2, [G] neither","key_press":65,"name":"choice","trial_type":"html-keyboard-response","trial_index":175,"time_elapsed":324642,"internal_node_id":"0.0-175.0","subject":"S1C1236","sona":"41514","block":2,"time":"2021-09-18T19:00:21.489Z","response":"1st","certainty":"high","char":"A","transposition":0,"order":["shifted","swapped"],"probe_pitches":[10,8,10,5,10,3,0,5,10,5,0,-2],"shifted_pitches":[10,8,10,5,10,2,0,5,10,5,0,-2],"swapped_pitches":[10,8,10,5,10,0,3,5,10,5,0,-2],"shift_direction":-1,"question_num":151,"has_decoy":false},{"rt":2704.5,"stimulus":"[A] option 1, [L] option 2, [G] neither","key_press":71,"name":"choice","trial_type":"html-keyboard-response","trial_index":186,"time_elapsed":346413,"internal_node_id":"0.0-186.0","subject":"S1C1236","sona":"41514","block":2,"time":"2021-09-18T19:00:21.489Z","response":"neither","certainty":"high","char":"G","transposition":2,"order":["shifted","swapped"],"probe_pitches":[8,3,8,3,1,3,6,10,8,-2,6,-2],"shifted_pitches":[8,3,8,3,1,3,5,10,8,-2,6,-2],"swapped_pitches":[8,3,8,3,1,6,3,10,8,-2,6,-2],"shift_direction":-1,"question_num":161,"has_decoy":false},{"rt":1448.1000000238419,"stimulus":"[A] option 1, [L] option 2, [G] neither","key_press":76,"name":"choice","trial_type":"html-keyboard-response","trial_index":197,"time_elapsed":366810,"internal_node_id":"0.0-197.0","subject":"S1C1236","sona":"41514","block":2,"time":"2021-09-18T19:00:21.489Z","response":"2nd","certainty":"high","char":"L","transposition":-2,"order":["swapped","shifted"],"probe_pitches":[6,1,-2,1,-2,6,8,10,6,3,1,3],"shifted_pitches":[6,1,-2,1,-2,5,8,10,6,3,1,3],"swapped_pitches":[6,1,-2,1,-2,8,6,10,6,3,1,3],"shift_direction":-1,"question_num":171,"has_decoy":false},{"rt":1542.7000000476837,"stimulus":"[A] option 1, [L] option 2, [G] neither","key_press":71,"name":"choice","trial_type":"html-keyboard-response","trial_index":208,"time_elapsed":386734,"internal_node_id":"0.0-208.0","subject":"S1C1236","sona":"41514","block":2,"time":"2021-09-18T19:00:21.489Z","response":"neither","certainty":"high","char":"G","transposition":-2,"order":["swapped","shifted"],"probe_pitches":[5,6,11,13,7,3,13,5,13,9,6,15],"shifted_pitches":[5,6,11,13,7,3,14,5,13,9,6,15],"swapped_pitches":[5,6,11,13,7,13,3,5,13,9,6,15],"shift_direction":1,"question_num":181,"has_decoy":false},{"rt":810.5,"stimulus":"[A] option 1, [L] option 2, [G] neither","key_press":71,"name":"choice","trial_type":"html-keyboard-response","trial_index":219,"time_elapsed":406386,"internal_node_id":"0.0-219.0","subject":"S1C1236","sona":"41514","block":2,"time":"2021-09-18T19:00:21.489Z","response":"neither","certainty":"high","char":"G","transposition":3,"order":["swapped","shifted"],"probe_pitches":[5,6,12,6,12,10,7,4,8,6,4,7],"shifted_pitches":[5,6,12,6,12,11,7,4,8,6,4,7],"swapped_pitches":[5,6,12,6,12,7,10,4,8,6,4,7],"shift_direction":1,"question_num":191,"has_decoy":false}]