[{"rt":1114.8999999761581,"stimulus":"[A] option 1, [L] option 2, [G] neither","key_press":71,"name":"choice","trial_type":"html-keyboard-response","trial_index":10,"time_elapsed":21615,"internal_node_id":"0.0-10.0","subject":"S1C1236","sona":"41514","block":6,"time":"2021-09-18T19:30:43.252Z","response":"neither","certainty":"high","char":"G","transposition":-1,"order":["swapped","shifted"],"probe_pitches":[5,10,7,5,2,5,10,-2,5,0,10,5],"shifted_pitches":[5,10,7,5,2,5,9,-2,5,0,10,5],"swapped_pitches":[5,10,7,5,2,10,5,-2,5,0,10,5],"shift_direction":-1,"question_num":1,"has_decoy":false},{"rt":53304.200000047684,"stimulus":"[A] option 1, [L] option 2, [G] neither","key_press":71,"name":"choice","trial_type":"html-keyboard-response","trial_index":21,"time_elapsed":93964,"internal_node_id":"0.0-21.0","subject":"S1C1236","sona":"41514","block":6,"time":"2021-09-18T19:30:43.252Z","response":"neither","certainty":"high","char":"G","transposition":-3,"order":["shifted","swapped"],"probe_pitches":[-2,0,-2,5,8,3,10,-2,3,-2,10,5],"shifted_pitches":[-2,0,-2,5,8,3,11,-2,3,-2,10,5],"swapped_pitches":[-2,0,-2,5,8,10,3,-2,3,-2,10,5],"shift_direction":1,"question_num":11,"has_decoy":false},{"rt":1201.3999999761581,"stimulus":"[A] option 1, [L] option 2, [G] neither","key_press":71,"name":"choice","trial_type":"html-keyboard-response","trial_index":32,"time_elapsed":115547,"internal_node_id":"0.0-32.0","subject":"S1C1236","sona":"41514","block":6,"time":"2021-09-18T19:30:43.252Z","response":"neither","certainty":"high","char":"G","transposition":-2,"order":["shifted","swapped"],"probe_pitches":[0,5,0,3,7,3,10,5,7,5,0,3],"shifted_pitches":[0,5,0,3,7,3,9,5,7,5,0,3],"swapped_pitches":[0,5,0,3,7,10,3,5,7,5,0,3],"shift_direction":-1,"question_num":21,"has_decoy":false},{"rt":722.7999999523163,"stimulus":"[A] option 1, [L] option 2, [G] neither","key_press":76,"name":"choice","trial_type":"html-keyboard-response","trial_index":43,"time_elapsed":134940,"internal_node_id":"0.0-43.0","subject":"S1C1236","sona":"41514","block":6,"time":"2021-09-18T19:30:43.252Z","response":"2nd","certainty":"high","char":"L","transposition":1,"order":["swapped","shifted"],"probe_pitches":[5,10,7,3,5,0,3,-2,5,-2,3,0],"shifted_pitches":[5,10,7,3,5,0,4,-2,5,-2,3,0],"swapped_pitches":[5,10,7,3,5,3,0,-2,5,-2,3,0],"shift_direction":1,"question_num":31,"has_decoy":false},{"rt":1246.3000000715256,"stimulus":"[A] option 1, [L] option 2, [G] neither","key_press":76,"name":"choice","trial_type":"html-keyboard-response","trial_index":54,"time_elapsed":156152,"internal_node_id":"0.0-54.0","subject":"S1C1236","sona":"41514","block":6,"time":"2021-09-18T19:30:43.252Z","response":"2nd","certainty":"high","char":"L","transposition":3,"order":["swapped","shifted"],"probe_pitches":[1,3,5,3,10,2,5,0,11,0,11,2],"shifted_pitches":[1,3,5,3,10,2,6,0,11,0,11,2],"swapped_pitches":[1,3,5,3,10,5,2,0,11,0,11,2],"shift_direction":1,"question_num":41,"has_decoy":false},{"rt":637.7999999523163,"stimulus":"[A] option 1, [L] option 2, [G] neither","key_press":76,"name":"choice","trial_type":"html-keyboard-response","trial_index":65,"time_elapsed":176130,"internal_node_id":"0.0-65.0","subject":"S1C1236","sona":"41514","block":6,"time":"2021-09-18T19:30:43.252Z","response":"2nd","certainty":"high","char":"L","transposition":-2,"order":["swapped","shifted"],"probe_pitches":[4,5,2,9,0,2,9,4,0,7,4,11],"shifted_pitches":[4,5,2,9,0,3,9,4,0,7,4,11],"swapped_pitches":[4,5,2,9,0,9,2,4,0,7,4,11],"shift_direction":1,"question_num":51,"has_decoy":false},{"rt":6814.199999928474,"stimulus":"[A] option 1, [L] option 2, [G] neither","key_press":71,"name":"choice","trial_type":"html-keyboard-response","trial_index":76,"time_elapsed":202078,"internal_node_id":"0.0-76.0","subject":"S1C1236","sona":"41514","block":6,"time":"2021-09-18T19:30:43.252Z","response":"neither","certainty":"high","char":"G","transposition":-3,"order":["shifted","swapped"],"probe_pitches":[7,6,4,8,12,10,1,0,4,9,12,0],"shifted_pitches":[7,6,4,8,12,10,2,0,4,9,12,0],"swapped_pitches":[7,6,4,8,12,1,10,0,4,9,12,0],"shift_direction":1,"question_num":61,"has_decoy":false},{"rt":5794.599999904633,"stimulus":"[A] option 1, [L] option 2, [G] neither","key_press":65,"name":"choice","trial_type":"html-keyboard-response","trial_index":87,"time_elapsed":226717,"internal_node_id":"0.0-87.0","subject":"S1C1236","sona":"41514","block":6,"time":"2021-09-18T19:30:43.252Z","response":"1st","certainty":"high","char":"A","transposition":-1,"order":["swapped","shifted"],"probe_pitches":[3,6,4,0,2,3,8,0,8,6,0,4],"shifted_pitches":[3,6,4,0,2,3,9,0,8,6,0,4],"swapped_pitches":[3,6,4,0,2,8,3,0,8,6,0,4],"shift_direction":1,"question_num":71,"has_decoy":false},{"rt":14449.5,"stimulus":"[A] option 1, [L] option 2, [G] neither","key_press":65,"name":"choice","trial_type":"html-keyboard-response","trial_index":98,"time_elapsed":264492,"internal_node_id":"0.0-98.0","subject":"S1C1236","sona":"41514","block":6,"time":"2021-09-18T19:30:43.252Z","response":"1st","certainty":"high","char":"A","transposition":-1,"order":["swapped","shifted"],"probe_pitches":[0,-2,0,5,2,-2,0,7,5,-2,2,7],"shifted_pitches":[0,-2,0,5,2,-1,0,7,5,-2,2,7],"swapped_pitches":[0,-2,0,5,2,0,-2,7,5,-2,2,7],"shift_direction":1,"question_num":81,"has_decoy":false},{"rt":211.10000002384186,"stimulus":"[A] option 1, [L] option 2, [G] neither","key_press":76,"name":"choice","trial_type":"html-keyboard-response","trial_index":109,"time_elapsed":283315,"internal_node_id":"0.0-109.0","subject":"S1C1236","sona":"41514","block":6,"time":"2021-09-18T19:30:43.252Z","response":"2nd","certainty":"high","char":"L","transposition":0,"order":["shifted","swapped"],"probe_pitches":[0,3,8,5,3,5,-2,0,-2,5,10,3],"shifted_pitches":[0,3,8,5,3,5,-3,0,-2,5,10,3],"swapped_pitches":[0,3,8,5,3,-2,5,0,-2,5,10,3],"shift_direction":-1,"question_num":91,"has_decoy":false},{"rt":1464.5999999046326,"stimulus":"[A] option 1, [L] option 2, [G] neither","key_press":76,"name":"choice","trial_type":"html-keyboard-response","trial_index":120,"time_elapsed":303187,"internal_node_id":"0.0-120.0","subject":"S1C1236","sona":"41514","block":6,"time":"2021-09-18T19:30:43.252Z","response":"2nd","certainty":"high","char":"L","transposition":-2,"order":["shifted","swapped"],"probe_pitches":[6,4,2,10,5,8,10,12,2,5,8,12],"shifted_pitches":[6,4,2,10,5,7,10,12,2,5,8,12],"swapped_pitches":[6,4,2,10,5,10,8,12,2,5,8,12],"shift_direction":-1,"question_num":101,"has_decoy":false},{"rt":407.89999997615814,"stimulus":"[A] option 1, [L] option 2, [G] neither","key_press":71,"name":"choice","trial_type":"html-keyboard-response","trial_index":131,"time_elapsed":322830,"internal_node_id":"0.0-131.0","subject":"S1C1236","sona":"41514","block":6,"time":"2021-09-18T19:30:43.252Z","response":"neither","certainty":"high","char":"G","transposition":1,"order":["swapped","shifted"],"probe_pitches":[12,9,7,1,8,6,12,0,4,1,7,6],"shifted_pitches":[12,9,7,1,8,6,11,0,4,1,7,6],"swapped_pitches":[12,9,7,1,8,12,6,0,4,1,7,6],"shift_direction":-1,"question_num":111,"has_decoy":false},{"rt":347.60000002384186,"stimulus":"[A] option 1, [L] option 2, [G] neither","key_press":76,"name":"choice","trial_type":"html-keyboard-response","trial_index":142,"time_elapsed":342220,"internal_node_id":"0.0-142.0","subject":"S1C1236","sona":"41514","block":6,"time":"2021-09-18T19:30:43.252Z","response":"2nd","certainty":"high","char":"L","transposition":-3,"order":["shifted","swapped"],"probe_pitches":[3,5,1,3,-2,5,1,3,-2,5,8,10],"shifted_pitches":[3,5,1,3,-2,6,1,3,-2,5,8,10],"swapped_pitches":[3,5,1,3,-2,1,5,3,-2,5,8,10],"shift_direction":1,"question_num":121,"has_decoy":false},{"rt":297.2999999523163,"stimulus":"[A] option 1, [L] option 2, [G] neither","key_press":76,"name":"choice","trial_type":"html-keyboard-response","trial_index":153,"time_elapsed":361530,"internal_node_id":"0.0-153.0","subject":"S1C1236","sona":"41514","block":6,"time":"2021-09-18T19:30:43.252Z","response":"2nd","certainty":"high","char":"L","transposition":2,"order":["shifted","swapped"],"probe_pitches":[11,10,11,9,1,5,7,10,6,10,9,3],"shifted_pitches":[11,10,11,9,1,4,7,10,6,10,9,3],"swapped_pitches":[11,10,11,9,1,7,5,10,6,10,9,3],"shift_direction":-1,"question_num":131,"has_decoy":false},{"rt":1538.1000000238419,"stimulus":"[A] option 1, [L] option 2, [G] neither","key_press":71,"name":"choice","trial_type":"html-keyboard-response","trial_index":164,"time_elapsed":382323,"internal_node_id":"0.0-164.0","subject":"S1C1236","sona":"41514","block":6,"time":"2021-09-18T19:30:43.252Z","response":"neither","certainty":"high","char":"G","transposition":-1,"order":["shifted","swapped"],"probe_pitches":[1,6,1,2,1,3,6,10,12,7,9,11],"shifted_pitches":[1,6,1,2,1,3,5,10,12,7,9,11],"swapped_pitches":[1,6,1,2,1,6,3,10,12,7,9,11],"shift_direction":-1,"question_num":141,"has_decoy":false},{"rt":1226.7000000476837,"stimulus":"[A] option 1, [L] option 2, [G] neither","key_press":76,"name":"choice","trial_type":"html-keyboard-response","trial_index":175,"time_elapsed":402252,"internal_node_id":"0.0-175.0","subject":"S1C1236","sona":"41514","block":6,"time":"2021-09-18T19:30:43.252Z","response":"2nd","certainty":"high","char":"L","transposition":-2,"order":["swapped","shifted"],"probe_pitches":[1,-2,1,5,10,5,-2,3,10,3,5,8],"shifted_pitches":[1,-2,1,5,10,4,-2,3,10,3,5,8],"swapped_pitches":[1,-2,1,5,10,-2,5,3,10,3,5,8],"shift_direction":-1,"question_num":151,"has_decoy":false},{"rt":398.5,"stimulus":"[A] option 1, [L] option 2, [G] neither","key_press":71,"name":"choice","trial_type":"html-keyboard-response","trial_index":186,"time_elapsed":421402,"internal_node_id":"0.0-186.0","subject":"S1C1236","sona":"41514","block":6,"time":"2021-09-18T19:30:43.252Z","response":"neither","certainty":"high","char":"G","transposition":3,"order":["swapped","shifted"],"probe_pitches":[3,1,6,1,3,-2,1,3,6,3,10,8],"shifted_pitches":[3,1,6,1,3,-3,1,3,6,3,10,8],"swapped_pitches":[3,1,6,1,3,1,-2,3,6,3,10,8],"shift_direction":-1,"question_num":161,"has_decoy":false},{"rt":2137.5,"stimulus":"[A] option 1, [L] option 2, [G] neither","key_press":71,"name":"choice","trial_type":"html-keyboard-response","trial_index":197,"time_elapsed":442512,"internal_node_id":"0.0-197.0","subject":"S1C1236","sona":"41514","block":6,"time":"2021-09-18T19:30:43.252Z","response":"neither","certainty":"high","char":"G","transposition":0,"order":["shifted","swapped"],"probe_pitches":[6,2,7,2,6,9,1,2,7,1,8,5],"shifted_pitches":[6,2,7,2,6,10,1,2,7,1,8,5],"swapped_pitches":[6,2,7,2,6,1,9,2,7,1,8,5],"shift_direction":1,"question_num":171,"has_decoy":false},{"rt":1726.8000000715256,"stimulus":"[A] option 1, [L] option 2, [G] neither","key_press":71,"name":"choice","trial_type":"html-keyboard-response","trial_index":208,"time_elapsed":463704,"internal_node_id":"0.0-208.0","subject":"S1C1236","sona":"41514","block":6,"time":"2021-09-18T19:30:43.252Z","response":"neither","certainty":"high","char":"G","transposition":-3,"order":["swapped","shifted"],"probe_pitches":[7,2,5,2,1,9,4,0,11,3,9,6],"shifted_pitches":[7,2,5,2,1,8,4,0,11,3,9,6],"swapped_pitches":[7,2,5,2,1,4,9,0,11,3,9,6],"shift_direction":-1,"question_num":181,"has_decoy":false},{"rt":460.2000000476837,"stimulus":"[A] option 1, [L] option 2, [G] neither","key_press":76,"name":"choice","trial_type":"html-keyboard-response","trial_index":219,"time_elapsed":483019,"internal_node_id":"0.0-219.0","subject":"S1C1236","sona":"41514","block":6,"time":"2021-09-18T19:30:43.252Z","response":"2nd","certainty":"high","char":"L","transposition":2,"order":["shifted","swapped"],"probe_pitches":[6,3,8,6,8,-2,6,10,1,6,3,1],"shifted_pitches":[6,3,8,6,8,-1,6,10,1,6,3,1],"swapped_pitches":[6,3,8,6,8,6,-2,10,1,6,3,1],"shift_direction":1,"question_num":191,"has_decoy":false}]