[{"rt":1539,"stimulus":"[A] option 1, [L] option 2, [G] neither","key_press":76,"name":"choice","trial_type":"html-keyboard-response","trial_index":10,"time_elapsed":21508,"internal_node_id":"0.0-10.0","subject":"S1C1236","sona":"41514","block":4,"time":"2021-09-18T19:14:49.137Z","response":"2nd","certainty":"high","char":"L","transposition":-3,"order":["shifted","swapped"],"probe_pitches":[9,6,2,0,-1,5,4,2,-3,5,9,-3],"shifted_pitches":[9,6,2,0,-1,5,3,2,-3,5,9,-3],"swapped_pitches":[9,6,2,0,-1,4,5,2,-3,5,9,-3],"shift_direction":-1,"question_num":1,"has_decoy":false},{"rt":1721.7000000476837,"stimulus":"[A] option 1, [L] option 2, [G] neither","key_press":65,"name":"choice","trial_type":"html-keyboard-response","trial_index":21,"time_elapsed":46064,"internal_node_id":"0.0-21.0","subject":"S1C1236","sona":"41514","block":4,"time":"2021-09-18T19:14:49.137Z","response":"1st","certainty":"high","char":"A","transposition":2,"order":["swapped","shifted"],"probe_pitches":[6,8,11,6,11,4,-1,6,-1,4,1,-1],"shifted_pitches":[6,8,11,6,11,3,-1,6,-1,4,1,-1],"swapped_pitches":[6,8,11,6,11,-1,4,6,-1,4,1,-1],"shift_direction":-1,"question_num":11,"has_decoy":false},{"rt":366.5,"stimulus":"[A] option 1, [L] option 2, [G] neither","key_press":76,"name":"choice","trial_type":"html-keyboard-response","trial_index":32,"time_elapsed":65648,"internal_node_id":"0.0-32.0","subject":"S1C1236","sona":"41514","block":4,"time":"2021-09-18T19:14:49.137Z","response":"2nd","certainty":"high","char":"L","transposition":-1,"order":["shifted","swapped"],"probe_pitches":[6,9,6,11,9,4,11,2,6,-1,9,-1],"shifted_pitches":[6,9,6,11,9,4,12,2,6,-1,9,-1],"swapped_pitches":[6,9,6,11,9,11,4,2,6,-1,9,-1],"shift_direction":1,"question_num":21,"has_decoy":false},{"rt":1232.6000000238419,"stimulus":"[A] option 1, [L] option 2, [G] neither","key_press":76,"name":"choice","trial_type":"html-keyboard-response","trial_index":43,"time_elapsed":86103,"internal_node_id":"0.0-43.0","subject":"S1C1236","sona":"41514","block":4,"time":"2021-09-18T19:14:49.137Z","response":"2nd","certainty":"high","char":"L","transposition":3,"order":["shifted","swapped"],"probe_pitches":[9,4,7,4,7,2,11,9,4,-1,9,2],"shifted_pitches":[9,4,7,4,7,2,12,9,4,-1,9,2],"swapped_pitches":[9,4,7,4,7,11,2,9,4,-1,9,2],"shift_direction":1,"question_num":31,"has_decoy":false},{"rt":172.20000004768372,"stimulus":"[A] option 1, [L] option 2, [G] neither","key_press":65,"name":"choice","trial_type":"html-keyboard-response","trial_index":54,"time_elapsed":105096,"internal_node_id":"0.0-54.0","subject":"S1C1236","sona":"41514","block":4,"time":"2021-09-18T19:14:49.137Z","response":"1st","certainty":"high","char":"A","transposition":0,"order":["shifted","swapped"],"probe_pitches":[4,-1,1,8,4,8,11,6,1,-1,4,11],"shifted_pitches":[4,-1,1,8,4,8,12,6,1,-1,4,11],"swapped_pitches":[4,-1,1,8,4,11,8,6,1,-1,4,11],"shift_direction":1,"question_num":41,"has_decoy":false},{"rt":405.7000000476837,"stimulus":"[A] option 1, [L] option 2, [G] neither","key_press":76,"name":"choice","trial_type":"html-keyboard-response","trial_index":65,"time_elapsed":124402,"internal_node_id":"0.0-65.0","subject":"S1C1236","sona":"41514","block":4,"time":"2021-09-18T19:14:49.137Z","response":"2nd","certainty":"high","char":"L","transposition":-1,"order":["swapped","shifted"],"probe_pitches":[3,7,3,8,0,-2,6,0,3,5,-3,5],"shifted_pitches":[3,7,3,8,0,-1,6,0,3,5,-3,5],"swapped_pitches":[3,7,3,8,0,6,-2,0,3,5,-3,5],"shift_direction":1,"question_num":51,"has_decoy":false},{"rt":1312.5,"stimulus":"[A] option 1, [L] option 2, [G] neither","key_press":71,"name":"choice","trial_type":"html-keyboard-response","trial_index":76,"time_elapsed":144440,"internal_node_id":"0.0-76.0","subject":"S1C1236","sona":"41514","block":4,"time":"2021-09-18T19:14:49.137Z","response":"neither","certainty":"high","char":"G","transposition":-3,"order":["shifted","swapped"],"probe_pitches":[11,9,6,1,-1,4,9,1,9,-1,9,-1],"shifted_pitches":[11,9,6,1,-1,4,8,1,9,-1,9,-1],"swapped_pitches":[11,9,6,1,-1,9,4,1,9,-1,9,-1],"shift_direction":-1,"question_num":61,"has_decoy":false},{"rt":887.0999999046326,"stimulus":"[A] option 1, [L] option 2, [G] neither","key_press":76,"name":"choice","trial_type":"html-keyboard-response","trial_index":87,"time_elapsed":166036,"internal_node_id":"0.0-87.0","subject":"S1C1236","sona":"41514","block":4,"time":"2021-09-18T19:14:49.137Z","response":"2nd","certainty":"high","char":"L","transposition":-2,"order":["shifted","swapped"],"probe_pitches":[3,4,8,2,7,4,-1,7,3,-2,6,-1],"shifted_pitches":[3,4,8,2,7,4,0,7,3,-2,6,-1],"swapped_pitches":[3,4,8,2,7,-1,4,7,3,-2,6,-1],"shift_direction":1,"question_num":71,"has_decoy":false},{"rt":579.2999999523163,"stimulus":"[A] option 1, [L] option 2, [G] neither","key_press":76,"name":"choice","trial_type":"html-keyboard-response","trial_index":98,"time_elapsed":185430,"internal_node_id":"0.0-98.0","subject":"S1C1236","sona":"41514","block":4,"time":"2021-09-18T19:14:49.137Z","response":"2nd","certainty":"high","char":"L","transposition":-2,"order":["swapped","shifted"],"probe_pitches":[-2,-1,1,4,9,4,2,0,1,-2,-3,-2],"shifted_pitches":[-2,-1,1,4,9,5,2,0,1,-2,-3,-2],"swapped_pitches":[-2,-1,1,4,9,2,4,0,1,-2,-3,-2],"shift_direction":1,"question_num":81,"has_decoy":false},{"rt":424.2999999523163,"stimulus":"[A] option 1, [L] option 2, [G] neither","key_press":65,"name":"choice","trial_type":"html-keyboard-response","trial_index":109,"time_elapsed":204411,"internal_node_id":"0.0-109.0","subject":"S1C1236","sona":"41514","block":4,"time":"2021-09-18T19:14:49.137Z","response":"1st","certainty":"high","char":"A","transposition":3,"order":["swapped","shifted"],"probe_pitches":[8,4,1,3,9,6,2,-1,5,9,3,-1],"shifted_pitches":[8,4,1,3,9,7,2,-1,5,9,3,-1],"swapped_pitches":[8,4,1,3,9,2,6,-1,5,9,3,-1],"shift_direction":1,"question_num":91,"has_decoy":false},{"rt":945.7000000476837,"stimulus":"[A] option 1, [L] option 2, [G] neither","key_press":71,"name":"choice","trial_type":"html-keyboard-response","trial_index":120,"time_elapsed":223817,"internal_node_id":"0.0-120.0","subject":"S1C1236","sona":"41514","block":4,"time":"2021-09-18T19:14:49.137Z","response":"neither","certainty":"high","char":"G","transposition":1,"order":["swapped","shifted"],"probe_pitches":[6,1,8,6,11,3,8,6,8,1,-1,1],"shifted_pitches":[6,1,8,6,11,4,8,6,8,1,-1,1],"swapped_pitches":[6,1,8,6,11,8,3,6,8,1,-1,1],"shift_direction":1,"question_num":101,"has_decoy":false},{"rt":375.7000000476837,"stimulus":"[A] option 1, [L] option 2, [G] neither","key_press":76,"name":"choice","trial_type":"html-keyboard-response","trial_index":131,"time_elapsed":242864,"internal_node_id":"0.0-131.0","subject":"S1C1236","sona":"41514","block":4,"time":"2021-09-18T19:14:49.137Z","response":"2nd","certainty":"high","char":"L","transposition":-2,"order":["shifted","swapped"],"probe_pitches":[11,8,6,1,6,11,1,8,6,3,-1,8],"shifted_pitches":[11,8,6,1,6,11,2,8,6,3,-1,8],"swapped_pitches":[11,8,6,1,6,1,11,8,6,3,-1,8],"shift_direction":1,"question_num":111,"has_decoy":false},{"rt":689.3000000715256,"stimulus":"[A] option 1, [L] option 2, [G] neither","key_press":76,"name":"choice","trial_type":"html-keyboard-response","trial_index":142,"time_elapsed":262367,"internal_node_id":"0.0-142.0","subject":"S1C1236","sona":"41514","block":4,"time":"2021-09-18T19:14:49.137Z","response":"2nd","certainty":"high","char":"L","transposition":1,"order":["shifted","swapped"],"probe_pitches":[7,3,1,-3,-1,7,1,6,1,-3,1,0],"shifted_pitches":[7,3,1,-3,-1,8,1,6,1,-3,1,0],"swapped_pitches":[7,3,1,-3,-1,1,7,6,1,-3,1,0],"shift_direction":1,"question_num":121,"has_decoy":false},{"rt":5209.700000047684,"stimulus":"[A] option 1, [L] option 2, [G] neither","key_press":65,"name":"choice","trial_type":"html-keyboard-response","trial_index":153,"time_elapsed":287026,"internal_node_id":"0.0-153.0","subject":"S1C1236","sona":"41514","block":4,"time":"2021-09-18T19:14:49.137Z","response":"1st","certainty":"high","char":"A","transposition":0,"order":["swapped","shifted"],"probe_pitches":[-1,0,6,1,6,-1,3,1,9,1,5,3],"shifted_pitches":[-1,0,6,1,6,-1,2,1,9,1,5,3],"swapped_pitches":[-1,0,6,1,6,3,-1,1,9,1,5,3],"shift_direction":-1,"question_num":131,"has_decoy":false},{"rt":1357.8999999761581,"stimulus":"[A] option 1, [L] option 2, [G] neither","key_press":71,"name":"choice","trial_type":"html-keyboard-response","trial_index":164,"time_elapsed":307063,"internal_node_id":"0.0-164.0","subject":"S1C1236","sona":"41514","block":4,"time":"2021-09-18T19:14:49.137Z","response":"neither","certainty":"high","char":"G","transposition":-1,"order":["swapped","shifted"],"probe_pitches":[1,4,-1,1,6,-1,1,11,6,-1,6,9],"shifted_pitches":[1,4,-1,1,6,-2,1,11,6,-1,6,9],"swapped_pitches":[1,4,-1,1,6,1,-1,11,6,-1,6,9],"shift_direction":-1,"question_num":141,"has_decoy":false},{"rt":905.7999999523163,"stimulus":"[A] option 1, [L] option 2, [G] neither","key_press":71,"name":"choice","trial_type":"html-keyboard-response","trial_index":175,"time_elapsed":326989,"internal_node_id":"0.0-175.0","subject":"S1C1236","sona":"41514","block":4,"time":"2021-09-18T19:14:49.137Z","response":"neither","certainty":"high","char":"G","transposition":-1,"order":["swapped","shifted"],"probe_pitches":[3,2,-1,-2,6,5,0,7,8,-2,6,1],"shifted_pitches":[3,2,-1,-2,6,4,0,7,8,-2,6,1],"swapped_pitches":[3,2,-1,-2,6,0,5,7,8,-2,6,1],"shift_direction":-1,"question_num":151,"has_decoy":false},{"rt":1548.5,"stimulus":"[A] option 1, [L] option 2, [G] neither","key_press":71,"name":"choice","trial_type":"html-keyboard-response","trial_index":186,"time_elapsed":348448,"internal_node_id":"0.0-186.0","subject":"S1C1236","sona":"41514","block":4,"time":"2021-09-18T19:14:49.137Z","response":"neither","certainty":"high","char":"G","transposition":2,"order":["shifted","swapped"],"probe_pitches":[-3,0,3,4,8,5,7,-2,9,7,0,7],"shifted_pitches":[-3,0,3,4,8,5,6,-2,9,7,0,7],"swapped_pitches":[-3,0,3,4,8,7,5,-2,9,7,0,7],"shift_direction":-1,"question_num":161,"has_decoy":false},{"rt":301.2000000476837,"stimulus":"[A] option 1, [L] option 2, [G] neither","key_press":76,"name":"choice","trial_type":"html-keyboard-response","trial_index":197,"time_elapsed":367563,"internal_node_id":"0.0-197.0","subject":"S1C1236","sona":"41514","block":4,"time":"2021-09-18T19:14:49.137Z","response":"2nd","certainty":"high","char":"L","transposition":-3,"order":["swapped","shifted"],"probe_pitches":[6,11,9,6,4,9,-1,4,11,-1,2,6],"shifted_pitches":[6,11,9,6,4,8,-1,4,11,-1,2,6],"swapped_pitches":[6,11,9,6,4,-1,9,4,11,-1,2,6],"shift_direction":-1,"question_num":171,"has_decoy":false},{"rt":3735.7000000476837,"stimulus":"[A] option 1, [L] option 2, [G] neither","key_press":71,"name":"choice","trial_type":"html-keyboard-response","trial_index":208,"time_elapsed":390646,"internal_node_id":"0.0-208.0","subject":"S1C1236","sona":"41514","block":4,"time":"2021-09-18T19:14:49.137Z","response":"neither","certainty":"high","char":"G","transposition":-2,"order":["swapped","shifted"],"probe_pitches":[9,7,4,11,4,-1,9,2,9,7,9,11],"shifted_pitches":[9,7,4,11,4,-2,9,2,9,7,9,11],"swapped_pitches":[9,7,4,11,4,9,-1,2,9,7,9,11],"shift_direction":-1,"question_num":181,"has_decoy":false},{"rt":4325.100000023842,"stimulus":"[A] option 1, [L] option 2, [G] neither","key_press":71,"name":"choice","trial_type":"html-keyboard-response","trial_index":219,"time_elapsed":413679,"internal_node_id":"0.0-219.0","subject":"S1C1236","sona":"41514","block":4,"time":"2021-09-18T19:14:49.137Z","response":"neither","certainty":"high","char":"G","transposition":-3,"order":["shifted","swapped"],"probe_pitches":[7,5,-1,6,4,7,2,9,-3,4,0,9],"shifted_pitches":[7,5,-1,6,4,7,1,9,-3,4,0,9],"swapped_pitches":[7,5,-1,6,4,2,7,9,-3,4,0,9],"shift_direction":-1,"question_num":191,"has_decoy":false}]