[{"rt":8011.799999952316,"stimulus":"[A] option 1, [L] option 2, [G] neither","key_press":65,"name":"choice","trial_type":"html-keyboard-response","trial_index":15,"time_elapsed":117107,"internal_node_id":"0.0-15.0","response":"1st","certainty":"high","char":"A","transposition":-1,"order":["swapped","shifted"],"probe_pitches":[10,6,10,3,8,6,10,-2,6,10,1,3],"shifted_pitches":[10,6,10,3,8,5,10,-2,6,10,1,3],"swapped_pitches":[10,6,10,3,8,10,6,-2,6,10,1,3],"shift_direction":-1,"question_num":1,"has_decoy":false,"subject":"S1C1236","sona":"41514","block":1,"time":"2021-09-18T18:53:31.544Z"},{"rt":2363.5,"stimulus":"[A] option 1, [L] option 2, [G] neither","key_press":76,"name":"choice","trial_type":"html-keyboard-response","trial_index":26,"time_elapsed":140040,"internal_node_id":"0.0-26.0","response":"2nd","certainty":"high","char":"L","transposition":-1,"order":["shifted","swapped"],"probe_pitches":[10,8,1,-2,1,3,-2,5,8,10,3,5],"shifted_pitches":[10,8,1,-2,1,3,-1,5,8,10,3,5],"swapped_pitches":[10,8,1,-2,1,-2,3,5,8,10,3,5],"shift_direction":1,"question_num":11,"has_decoy":false,"subject":"S1C1236","sona":"41514","block":1,"time":"2021-09-18T18:53:31.544Z"},{"rt":1609.1000000238419,"stimulus":"[A] option 1, [L] option 2, [G] neither","key_press":65,"name":"choice","trial_type":"html-keyboard-response","trial_index":37,"time_elapsed":161014,"internal_node_id":"0.0-37.0","response":"1st","certainty":"high","char":"A","transposition":1,"order":["swapped","shifted"],"probe_pitches":[5,3,7,5,0,10,5,3,7,0,7,5],"shifted_pitches":[5,3,7,5,0,11,5,3,7,0,7,5],"swapped_pitches":[5,3,7,5,0,5,10,3,7,0,7,5],"shift_direction":1,"question_num":21,"has_decoy":false,"subject":"S1C1236","sona":"41514","block":1,"time":"2021-09-18T18:53:31.544Z"},{"rt":1164.5,"stimulus":"[A] option 1, [L] option 2, [G] neither","key_press":76,"name":"choice","trial_type":"html-keyboard-response","trial_index":48,"time_elapsed":183129,"internal_node_id":"0.0-48.0","response":"2nd","certainty":"high","char":"L","transposition":-3,"order":["swapped","shifted"],"probe_pitches":[9,4,-1,0,-2,4,8,9,8,-2,8,7],"shifted_pitches":[9,4,-1,0,-2,3,8,9,8,-2,8,7],"swapped_pitches":[9,4,-1,0,-2,8,4,9,8,-2,8,7],"shift_direction":-1,"question_num":31,"has_decoy":false,"subject":"S1C1236","sona":"41514","block":1,"time":"2021-09-18T18:53:31.544Z"},{"rt":1206.7000000476837,"stimulus":"[A] option 1, [L] option 2, [G] neither","key_press":65,"name":"choice","trial_type":"html-keyboard-response","trial_index":59,"time_elapsed":208089,"internal_node_id":"0.0-59.0","response":"1st","certainty":"high","char":"A","transposition":3,"order":["swapped","shifted"],"probe_pitches":[5,0,3,4,3,-2,0,5,2,10,4,2],"shifted_pitches":[5,0,3,4,3,-2,1,5,2,10,4,2],"swapped_pitches":[5,0,3,4,3,0,-2,5,2,10,4,2],"shift_direction":1,"question_num":41,"has_decoy":false,"subject":"S1C1236","sona":"41514","block":1,"time":"2021-09-18T18:53:31.544Z"},{"rt":976.7999999523163,"stimulus":"[A] option 1, [L] option 2, [G] neither","key_press":76,"name":"choice","trial_type":"html-keyboard-response","trial_index":70,"time_elapsed":228164,"internal_node_id":"0.0-70.0","response":"2nd","certainty":"high","char":"L","transposition":0,"order":["shifted","swapped"],"probe_pitches":[2,-2,0,7,10,0,6,8,-1,10,4,0],"shifted_pitches":[2,-2,0,7,10,0,5,8,-1,10,4,0],"swapped_pitches":[2,-2,0,7,10,6,0,8,-1,10,4,0],"shift_direction":-1,"question_num":51,"has_decoy":false,"subject":"S1C1236","sona":"41514","block":1,"time":"2021-09-18T18:53:31.544Z"},{"rt":891.3999999761581,"stimulus":"[A] option 1, [L] option 2, [G] neither","key_press":76,"name":"choice","trial_type":"html-keyboard-response","trial_index":81,"time_elapsed":248174,"internal_node_id":"0.0-81.0","response":"2nd","certainty":"high","char":"L","transposition":0,"order":["swapped","shifted"],"probe_pitches":[5,0,5,0,3,10,8,0,8,3,10,3],"shifted_pitches":[5,0,5,0,3,9,8,0,8,3,10,3],"swapped_pitches":[5,0,5,0,3,8,10,0,8,3,10,3],"shift_direction":-1,"question_num":61,"has_decoy":false,"subject":"S1C1236","sona":"41514","block":1,"time":"2021-09-18T18:53:31.544Z"},{"rt":748.1999999284744,"stimulus":"[A] option 1, [L] option 2, [G] neither","key_press":65,"name":"choice","trial_type":"html-keyboard-response","trial_index":92,"time_elapsed":268201,"internal_node_id":"0.0-92.0","response":"1st","certainty":"high","char":"A","transposition":-3,"order":["shifted","swapped"],"probe_pitches":[6,1,8,1,10,1,-2,10,-2,8,6,3],"shifted_pitches":[6,1,8,1,10,1,-3,10,-2,8,6,3],"swapped_pitches":[6,1,8,1,10,-2,1,10,-2,8,6,3],"shift_direction":-1,"question_num":71,"has_decoy":false,"subject":"S1C1236","sona":"41514","block":1,"time":"2021-09-18T18:53:31.544Z"},{"rt":520.6000000238419,"stimulus":"[A] option 1, [L] option 2, [G] neither","key_press":76,"name":"choice","trial_type":"html-keyboard-response","trial_index":103,"time_elapsed":289910,"internal_node_id":"0.0-103.0","response":"2nd","certainty":"high","char":"L","transposition":-2,"order":["shifted","swapped"],"probe_pitches":[-2,3,5,1,8,10,3,8,3,5,10,-2],"shifted_pitches":[-2,3,5,1,8,10,4,8,3,5,10,-2],"swapped_pitches":[-2,3,5,1,8,3,10,8,3,5,10,-2],"shift_direction":1,"question_num":81,"has_decoy":false,"subject":"S1C1236","sona":"41514","block":1,"time":"2021-09-18T18:53:31.544Z"},{"rt":794,"stimulus":"[A] option 1, [L] option 2, [G] neither","key_press":65,"name":"choice","trial_type":"html-keyboard-response","trial_index":114,"time_elapsed":310914,"internal_node_id":"0.0-114.0","response":"1st","certainty":"high","char":"A","transposition":3,"order":["shifted","swapped"],"probe_pitches":[7,3,-2,3,7,5,0,7,10,7,10,0],"shifted_pitches":[7,3,-2,3,7,6,0,7,10,7,10,0],"swapped_pitches":[7,3,-2,3,7,0,5,7,10,7,10,0],"shift_direction":1,"question_num":91,"has_decoy":false,"subject":"S1C1236","sona":"41514","block":1,"time":"2021-09-18T18:53:31.544Z"},{"rt":381,"stimulus":"[A] option 1, [L] option 2, [G] neither","key_press":76,"name":"choice","trial_type":"html-keyboard-response","trial_index":125,"time_elapsed":330517,"internal_node_id":"0.0-125.0","response":"2nd","certainty":"high","char":"L","transposition":-3,"order":["swapped","shifted"],"probe_pitches":[-2,0,7,5,2,0,5,2,10,0,5,7],"shifted_pitches":[-2,0,7,5,2,0,4,2,10,0,5,7],"swapped_pitches":[-2,0,7,5,2,5,0,2,10,0,5,7],"shift_direction":-1,"question_num":101,"has_decoy":false,"subject":"S1C1236","sona":"41514","block":1,"time":"2021-09-18T18:53:31.544Z"},{"rt":463.8000000715256,"stimulus":"[A] option 1, [L] option 2, [G] neither","key_press":76,"name":"choice","trial_type":"html-keyboard-response","trial_index":136,"time_elapsed":349454,"internal_node_id":"0.0-136.0","response":"2nd","certainty":"high","char":"L","transposition":-2,"order":["swapped","shifted"],"probe_pitches":[-2,0,5,0,7,-2,2,10,0,7,0,7],"shifted_pitches":[-2,0,5,0,7,-2,3,10,0,7,0,7],"swapped_pitches":[-2,0,5,0,7,2,-2,10,0,7,0,7],"shift_direction":1,"question_num":111,"has_decoy":false,"subject":"S1C1236","sona":"41514","block":1,"time":"2021-09-18T18:53:31.544Z"},{"rt":339.89999997615814,"stimulus":"[A] option 1, [L] option 2, [G] neither","key_press":76,"name":"choice","trial_type":"html-keyboard-response","trial_index":147,"time_elapsed":368668,"internal_node_id":"0.0-147.0","response":"2nd","certainty":"high","char":"L","transposition":-1,"order":["swapped","shifted"],"probe_pitches":[1,7,3,6,8,10,0,7,3,-1,3,-1],"shifted_pitches":[1,7,3,6,8,9,0,7,3,-1,3,-1],"swapped_pitches":[1,7,3,6,8,0,10,7,3,-1,3,-1],"shift_direction":-1,"question_num":121,"has_decoy":false,"subject":"S1C1236","sona":"41514","block":1,"time":"2021-09-18T18:53:31.544Z"},{"rt":600.1000000238419,"stimulus":"[A] option 1, [L] option 2, [G] neither","key_press":76,"name":"choice","trial_type":"html-keyboard-response","trial_index":158,"time_elapsed":388630,"internal_node_id":"0.0-158.0","response":"2nd","certainty":"high","char":"L","transposition":2,"order":["swapped","shifted"],"probe_pitches":[0,-2,4,9,5,8,3,0,2,0,10,1],"shifted_pitches":[0,-2,4,9,5,7,3,0,2,0,10,1],"swapped_pitches":[0,-2,4,9,5,3,8,0,2,0,10,1],"shift_direction":-1,"question_num":131,"has_decoy":false,"subject":"S1C1236","sona":"41514","block":1,"time":"2021-09-18T18:53:31.544Z"},{"rt":714.8999999761581,"stimulus":"[A] option 1, [L] option 2, [G] neither","key_press":76,"name":"choice","trial_type":"html-keyboard-response","trial_index":169,"time_elapsed":409257,"internal_node_id":"0.0-169.0","response":"2nd","certainty":"high","char":"L","transposition":-2,"order":["shifted","swapped"],"probe_pitches":[2,4,-1,6,0,7,5,3,0,9,5,7],"shifted_pitches":[2,4,-1,6,0,8,5,3,0,9,5,7],"swapped_pitches":[2,4,-1,6,0,5,7,3,0,9,5,7],"shift_direction":1,"question_num":141,"has_decoy":false,"subject":"S1C1236","sona":"41514","block":1,"time":"2021-09-18T18:53:31.544Z"},{"rt":465.7999999523163,"stimulus":"[A] option 1, [L] option 2, [G] neither","key_press":76,"name":"choice","trial_type":"html-keyboard-response","trial_index":180,"time_elapsed":428480,"internal_node_id":"0.0-180.0","response":"2nd","certainty":"high","char":"L","transposition":2,"order":["shifted","swapped"],"probe_pitches":[10,5,10,8,10,0,-2,3,0,10,3,8],"shifted_pitches":[10,5,10,8,10,-1,-2,3,0,10,3,8],"swapped_pitches":[10,5,10,8,10,-2,0,3,0,10,3,8],"shift_direction":-1,"question_num":151,"has_decoy":false,"subject":"S1C1236","sona":"41514","block":1,"time":"2021-09-18T18:53:31.544Z"},{"rt":666.2000000476837,"stimulus":"[A] option 1, [L] option 2, [G] neither","key_press":65,"name":"choice","trial_type":"html-keyboard-response","trial_index":191,"time_elapsed":448574,"internal_node_id":"0.0-191.0","response":"1st","certainty":"high","char":"A","transposition":-1,"order":["shifted","swapped"],"probe_pitches":[0,3,10,3,-2,-1,5,3,0,1,5,10],"shifted_pitches":[0,3,10,3,-2,-1,6,3,0,1,5,10],"swapped_pitches":[0,3,10,3,-2,5,-1,3,0,1,5,10],"shift_direction":1,"question_num":161,"has_decoy":false,"subject":"S1C1236","sona":"41514","block":1,"time":"2021-09-18T18:53:31.544Z"},{"rt":4894.199999928474,"stimulus":"[A] option 1, [L] option 2, [G] neither","key_press":76,"name":"choice","trial_type":"html-keyboard-response","trial_index":202,"time_elapsed":473389,"internal_node_id":"0.0-202.0","response":"2nd","certainty":"high","char":"L","transposition":-2,"order":["shifted","swapped"],"probe_pitches":[5,2,8,2,-2,8,3,1,5,3,10,0],"shifted_pitches":[5,2,8,2,-2,8,4,1,5,3,10,0],"swapped_pitches":[5,2,8,2,-2,3,8,1,5,3,10,0],"shift_direction":1,"question_num":171,"has_decoy":false,"subject":"S1C1236","sona":"41514","block":1,"time":"2021-09-18T18:53:31.544Z"},{"rt":1243.1000000238419,"stimulus":"[A] option 1, [L] option 2, [G] neither","key_press":71,"name":"choice","trial_type":"html-keyboard-response","trial_index":213,"time_elapsed":495754,"internal_node_id":"0.0-213.0","response":"neither","certainty":"high","char":"G","transposition":-3,"order":["swapped","shifted"],"probe_pitches":[8,4,8,5,6,3,9,4,10,5,4,9],"shifted_pitches":[8,4,8,5,6,2,9,4,10,5,4,9],"swapped_pitches":[8,4,8,5,6,9,3,4,10,5,4,9],"shift_direction":-1,"question_num":181,"has_decoy":false,"subject":"S1C1236","sona":"41514","block":1,"time":"2021-09-18T18:53:31.544Z"},{"rt":419.39999997615814,"stimulus":"[A] option 1, [L] option 2, [G] neither","key_press":76,"name":"choice","trial_type":"html-keyboard-response","trial_index":224,"time_elapsed":515314,"internal_node_id":"0.0-224.0","response":"2nd","certainty":"high","char":"L","transposition":1,"order":["shifted","swapped"],"probe_pitches":[8,7,8,4,2,6,-1,2,-1,-2,8,10],"shifted_pitches":[8,7,8,4,2,6,0,2,-1,-2,8,10],"swapped_pitches":[8,7,8,4,2,-1,6,2,-1,-2,8,10],"shift_direction":1,"question_num":191,"has_decoy":false,"subject":"S1C1236","sona":"41514","block":1,"time":"2021-09-18T18:53:31.544Z"}]