[{"rt":658.3000000715256,"stimulus":"[A] option 1, [L] option 2, [G] neither","key_press":76,"name":"choice","trial_type":"html-keyboard-response","trial_index":10,"time_elapsed":21237,"internal_node_id":"0.0-10.0","subject":"S1C1236","sona":"41514","block":3,"time":"2021-09-18T19:07:51.588Z","response":"2nd","certainty":"high","char":"L","transposition":-2,"order":["shifted","swapped"],"probe_pitches":[7,2,9,3,8,6,-2,8,4,8,0,9],"shifted_pitches":[7,2,9,3,8,5,-2,8,4,8,0,9],"swapped_pitches":[7,2,9,3,8,-2,6,8,4,8,0,9],"shift_direction":-1,"question_num":1,"has_decoy":false},{"rt":457.39999997615814,"stimulus":"[A] option 1, [L] option 2, [G] neither","key_press":76,"name":"choice","trial_type":"html-keyboard-response","trial_index":21,"time_elapsed":40529,"internal_node_id":"0.0-21.0","subject":"S1C1236","sona":"41514","block":3,"time":"2021-09-18T19:07:51.588Z","response":"2nd","certainty":"high","char":"L","transposition":-1,"order":["swapped","shifted"],"probe_pitches":[7,8,3,9,6,-3,0,7,-1,-2,3,-1],"shifted_pitches":[7,8,3,9,6,-3,1,7,-1,-2,3,-1],"swapped_pitches":[7,8,3,9,6,0,-3,7,-1,-2,3,-1],"shift_direction":1,"question_num":11,"has_decoy":false},{"rt":1083.6000000238419,"stimulus":"[A] option 1, [L] option 2, [G] neither","key_press":71,"name":"choice","trial_type":"html-keyboard-response","trial_index":32,"time_elapsed":60686,"internal_node_id":"0.0-32.0","subject":"S1C1236","sona":"41514","block":3,"time":"2021-09-18T19:07:51.588Z","response":"neither","certainty":"high","char":"G","transposition":-3,"order":["swapped","shifted"],"probe_pitches":[-2,1,6,9,3,1,0,2,5,4,-2,9],"shifted_pitches":[-2,1,6,9,3,1,-1,2,5,4,-2,9],"swapped_pitches":[-2,1,6,9,3,0,1,2,5,4,-2,9],"shift_direction":-1,"question_num":21,"has_decoy":false},{"rt":1010.5,"stimulus":"[A] option 1, [L] option 2, [G] neither","key_press":65,"name":"choice","trial_type":"html-keyboard-response","trial_index":43,"time_elapsed":80591,"internal_node_id":"0.0-43.0","subject":"S1C1236","sona":"41514","block":3,"time":"2021-09-18T19:07:51.588Z","response":"1st","certainty":"high","char":"A","transposition":-1,"order":["shifted","swapped"],"probe_pitches":[2,3,-1,4,5,3,7,4,5,-1,4,6],"shifted_pitches":[2,3,-1,4,5,3,8,4,5,-1,4,6],"swapped_pitches":[2,3,-1,4,5,7,3,4,5,-1,4,6],"shift_direction":1,"question_num":31,"has_decoy":false},{"rt":997.6000000238419,"stimulus":"[A] option 1, [L] option 2, [G] neither","key_press":71,"name":"choice","trial_type":"html-keyboard-response","trial_index":54,"time_elapsed":100237,"internal_node_id":"0.0-54.0","subject":"S1C1236","sona":"41514","block":3,"time":"2021-09-18T19:07:51.588Z","response":"neither","certainty":"high","char":"G","transposition":3,"order":["shifted","swapped"],"probe_pitches":[4,-1,-3,2,9,-1,2,-3,6,2,6,9],"shifted_pitches":[4,-1,-3,2,9,-1,3,-3,6,2,6,9],"swapped_pitches":[4,-1,-3,2,9,2,-1,-3,6,2,6,9],"shift_direction":1,"question_num":41,"has_decoy":false},{"rt":1069.2999999523163,"stimulus":"[A] option 1, [L] option 2, [G] neither","key_press":65,"name":"choice","trial_type":"html-keyboard-response","trial_index":65,"time_elapsed":119915,"internal_node_id":"0.0-65.0","subject":"S1C1236","sona":"41514","block":3,"time":"2021-09-18T19:07:51.588Z","response":"1st","certainty":"high","char":"A","transposition":-3,"order":["swapped","shifted"],"probe_pitches":[0,-3,2,-3,5,2,9,-3,7,9,7,0],"shifted_pitches":[0,-3,2,-3,5,2,10,-3,7,9,7,0],"swapped_pitches":[0,-3,2,-3,5,9,2,-3,7,9,7,0],"shift_direction":1,"question_num":51,"has_decoy":false},{"rt":556.7000000476837,"stimulus":"[A] option 1, [L] option 2, [G] neither","key_press":76,"name":"choice","trial_type":"html-keyboard-response","trial_index":76,"time_elapsed":139039,"internal_node_id":"0.0-76.0","subject":"S1C1236","sona":"41514","block":3,"time":"2021-09-18T19:07:51.588Z","response":"2nd","certainty":"high","char":"L","transposition":3,"order":["swapped","shifted"],"probe_pitches":[1,-3,0,2,9,7,5,-3,4,8,1,-2],"shifted_pitches":[1,-3,0,2,9,6,5,-3,4,8,1,-2],"swapped_pitches":[1,-3,0,2,9,5,7,-3,4,8,1,-2],"shift_direction":-1,"question_num":61,"has_decoy":false},{"rt":745.1000000238419,"stimulus":"[A] option 1, [L] option 2, [G] neither","key_press":65,"name":"choice","trial_type":"html-keyboard-response","trial_index":87,"time_elapsed":158839,"internal_node_id":"0.0-87.0","subject":"S1C1236","sona":"41514","block":3,"time":"2021-09-18T19:07:51.588Z","response":"1st","certainty":"high","char":"A","transposition":-2,"order":["shifted","swapped"],"probe_pitches":[0,-3,0,7,2,0,9,7,5,7,-3,0],"shifted_pitches":[0,-3,0,7,2,-1,9,7,5,7,-3,0],"swapped_pitches":[0,-3,0,7,2,9,0,7,5,7,-3,0],"shift_direction":-1,"question_num":71,"has_decoy":false},{"rt":1572.6000000238419,"stimulus":"[A] option 1, [L] option 2, [G] neither","key_press":71,"name":"choice","trial_type":"html-keyboard-response","trial_index":98,"time_elapsed":179442,"internal_node_id":"0.0-98.0","subject":"S1C1236","sona":"41514","block":3,"time":"2021-09-18T19:07:51.588Z","response":"neither","certainty":"high","char":"G","transposition":-3,"order":["shifted","swapped"],"probe_pitches":[2,-3,4,-1,-3,4,7,9,-1,-3,2,4],"shifted_pitches":[2,-3,4,-1,-3,3,7,9,-1,-3,2,4],"swapped_pitches":[2,-3,4,-1,-3,7,4,9,-1,-3,2,4],"shift_direction":-1,"question_num":81,"has_decoy":false},{"rt":1930.5,"stimulus":"[A] option 1, [L] option 2, [G] neither","key_press":76,"name":"choice","trial_type":"html-keyboard-response","trial_index":109,"time_elapsed":200334,"internal_node_id":"0.0-109.0","subject":"S1C1236","sona":"41514","block":3,"time":"2021-09-18T19:07:51.588Z","response":"2nd","certainty":"high","char":"L","transposition":-1,"order":["swapped","shifted"],"probe_pitches":[9,6,-1,-3,-1,2,9,-1,-3,2,4,-1],"shifted_pitches":[9,6,-1,-3,-1,1,9,-1,-3,2,4,-1],"swapped_pitches":[9,6,-1,-3,-1,9,2,-1,-3,2,4,-1],"shift_direction":-1,"question_num":91,"has_decoy":false},{"rt":360.2999999523163,"stimulus":"[A] option 1, [L] option 2, [G] neither","key_press":76,"name":"choice","trial_type":"html-keyboard-response","trial_index":120,"time_elapsed":219238,"internal_node_id":"0.0-120.0","subject":"S1C1236","sona":"41514","block":3,"time":"2021-09-18T19:07:51.588Z","response":"2nd","certainty":"high","char":"L","transposition":-2,"order":["swapped","shifted"],"probe_pitches":[1,6,4,9,4,-3,-1,4,6,1,-1,4],"shifted_pitches":[1,6,4,9,4,-3,-2,4,6,1,-1,4],"swapped_pitches":[1,6,4,9,4,-1,-3,4,6,1,-1,4],"shift_direction":-1,"question_num":101,"has_decoy":false},{"rt":782.5999999046326,"stimulus":"[A] option 1, [L] option 2, [G] neither","key_press":76,"name":"choice","trial_type":"html-keyboard-response","trial_index":131,"time_elapsed":238722,"internal_node_id":"0.0-131.0","subject":"S1C1236","sona":"41514","block":3,"time":"2021-09-18T19:07:51.588Z","response":"2nd","certainty":"high","char":"L","transposition":-2,"order":["swapped","shifted"],"probe_pitches":[6,8,9,8,7,3,1,-2,8,1,-1,4],"shifted_pitches":[6,8,9,8,7,2,1,-2,8,1,-1,4],"swapped_pitches":[6,8,9,8,7,1,3,-2,8,1,-1,4],"shift_direction":-1,"question_num":111,"has_decoy":false},{"rt":1416.8999999761581,"stimulus":"[A] option 1, [L] option 2, [G] neither","key_press":65,"name":"choice","trial_type":"html-keyboard-response","trial_index":142,"time_elapsed":259007,"internal_node_id":"0.0-142.0","subject":"S1C1236","sona":"41514","block":3,"time":"2021-09-18T19:07:51.588Z","response":"1st","certainty":"high","char":"A","transposition":1,"order":["shifted","swapped"],"probe_pitches":[9,5,9,7,0,-1,2,5,7,8,7,-2],"shifted_pitches":[9,5,9,7,0,-1,3,5,7,8,7,-2],"swapped_pitches":[9,5,9,7,0,2,-1,5,7,8,7,-2],"shift_direction":1,"question_num":121,"has_decoy":false},{"rt":932.8999999761581,"stimulus":"[A] option 1, [L] option 2, [G] neither","key_press":76,"name":"choice","trial_type":"html-keyboard-response","trial_index":153,"time_elapsed":278531,"internal_node_id":"0.0-153.0","subject":"S1C1236","sona":"41514","block":3,"time":"2021-09-18T19:07:51.588Z","response":"2nd","certainty":"high","char":"L","transposition":1,"order":["swapped","shifted"],"probe_pitches":[1,4,9,4,-1,9,4,1,6,9,-3,1],"shifted_pitches":[1,4,9,4,-1,10,4,1,6,9,-3,1],"swapped_pitches":[1,4,9,4,-1,4,9,1,6,9,-3,1],"shift_direction":1,"question_num":131,"has_decoy":false},{"rt":385.39999997615814,"stimulus":"[A] option 1, [L] option 2, [G] neither","key_press":76,"name":"choice","trial_type":"html-keyboard-response","trial_index":164,"time_elapsed":297089,"internal_node_id":"0.0-164.0","subject":"S1C1236","sona":"41514","block":3,"time":"2021-09-18T19:07:51.588Z","response":"2nd","certainty":"high","char":"L","transposition":-1,"order":["swapped","shifted"],"probe_pitches":[4,0,2,-3,4,0,2,7,4,2,0,4],"shifted_pitches":[4,0,2,-3,4,0,3,7,4,2,0,4],"swapped_pitches":[4,0,2,-3,4,2,0,7,4,2,0,4],"shift_direction":1,"question_num":141,"has_decoy":false},{"rt":2275,"stimulus":"[A] option 1, [L] option 2, [G] neither","key_press":71,"name":"choice","trial_type":"html-keyboard-response","trial_index":175,"time_elapsed":318381,"internal_node_id":"0.0-175.0","subject":"S1C1236","sona":"41514","block":3,"time":"2021-09-18T19:07:51.588Z","response":"neither","certainty":"high","char":"G","transposition":0,"order":["shifted","swapped"],"probe_pitches":[-3,2,4,3,5,-1,-3,5,3,-3,3,4],"shifted_pitches":[-3,2,4,3,5,0,-3,5,3,-3,3,4],"swapped_pitches":[-3,2,4,3,5,-3,-1,5,3,-3,3,4],"shift_direction":1,"question_num":151,"has_decoy":false},{"rt":1723,"stimulus":"[A] option 1, [L] option 2, [G] neither","key_press":71,"name":"choice","trial_type":"html-keyboard-response","trial_index":186,"time_elapsed":338891,"internal_node_id":"0.0-186.0","subject":"S1C1236","sona":"41514","block":3,"time":"2021-09-18T19:07:51.588Z","response":"neither","certainty":"high","char":"G","transposition":2,"order":["shifted","swapped"],"probe_pitches":[0,2,4,0,4,-3,2,0,9,2,-3,7],"shifted_pitches":[0,2,4,0,4,-4,2,0,9,2,-3,7],"swapped_pitches":[0,2,4,0,4,2,-3,0,9,2,-3,7],"shift_direction":-1,"question_num":161,"has_decoy":false},{"rt":387.2999999523163,"stimulus":"[A] option 1, [L] option 2, [G] neither","key_press":76,"name":"choice","trial_type":"html-keyboard-response","trial_index":197,"time_elapsed":359486,"internal_node_id":"0.0-197.0","subject":"S1C1236","sona":"41514","block":3,"time":"2021-09-18T19:07:51.588Z","response":"2nd","certainty":"high","char":"L","transposition":0,"order":["shifted","swapped"],"probe_pitches":[4,-1,2,7,4,-1,-3,9,7,9,2,9],"shifted_pitches":[4,-1,2,7,4,-1,-2,9,7,9,2,9],"swapped_pitches":[4,-1,2,7,4,-3,-1,9,7,9,2,9],"shift_direction":1,"question_num":171,"has_decoy":false},{"rt":321.7000000476837,"stimulus":"[A] option 1, [L] option 2, [G] neither","key_press":76,"name":"choice","trial_type":"html-keyboard-response","trial_index":208,"time_elapsed":378530,"internal_node_id":"0.0-208.0","subject":"S1C1236","sona":"41514","block":3,"time":"2021-09-18T19:07:51.588Z","response":"2nd","certainty":"high","char":"L","transposition":2,"order":["shifted","swapped"],"probe_pitches":[2,6,2,6,-3,5,-2,9,5,-1,5,-1],"shifted_pitches":[2,6,2,6,-3,4,-2,9,5,-1,5,-1],"swapped_pitches":[2,6,2,6,-3,-2,5,9,5,-1,5,-1],"shift_direction":-1,"question_num":181,"has_decoy":false},{"rt":1725.1999999284744,"stimulus":"[A] option 1, [L] option 2, [G] neither","key_press":71,"name":"choice","trial_type":"html-keyboard-response","trial_index":219,"time_elapsed":398835,"internal_node_id":"0.0-219.0","subject":"S1C1236","sona":"41514","block":3,"time":"2021-09-18T19:07:51.588Z","response":"neither","certainty":"high","char":"G","transposition":-3,"order":["swapped","shifted"],"probe_pitches":[-3,1,-3,1,5,2,6,9,3,5,-2,-3],"shifted_pitches":[-3,1,-3,1,5,2,7,9,3,5,-2,-3],"swapped_pitches":[-3,1,-3,1,5,6,2,9,3,5,-2,-3],"shift_direction":1,"question_num":191,"has_decoy":false}]