[{"rt":778.1999999880791,"stimulus":"[A] option 1, [L] option 2, [G] neither","key_press":65,"name":"choice","trial_type":"html-keyboard-response","trial_index":10,"time_elapsed":25632,"internal_node_id":"0.0-10.0","subject":"S1C1616","sona":"41447","block":5,"time":"2021-09-16T15:40:47.699Z","response":"1st","certainty":"high","char":"A","transposition":0,"order":["shifted","swapped"],"probe_pitches":[10,7,5,10,7,2,10,-2,5,7,5,-2,5,2,0,10],"shifted_pitches":[10,7,5,10,7,2,10,-3,5,7,5,-2,5,2,0,10],"swapped_pitches":[10,7,5,10,7,2,10,5,-2,7,5,-2,5,2,0,10],"shift_direction":-1,"question_num":1,"has_decoy":false},{"rt":689.5,"stimulus":"[A] option 1, [L] option 2, [G] neither","key_press":65,"name":"choice","trial_type":"html-keyboard-response","trial_index":21,"time_elapsed":48546,"internal_node_id":"0.0-21.0","subject":"S1C1616","sona":"41447","block":5,"time":"2021-09-16T15:40:47.699Z","response":"1st","certainty":"high","char":"A","transposition":-3,"order":["shifted","swapped"],"probe_pitches":[2,3,9,12,10,7,4,12,6,5,8,5,12,11,4,5],"shifted_pitches":[2,3,9,12,10,7,4,13,6,5,8,5,12,11,4,5],"swapped_pitches":[2,3,9,12,10,7,4,6,12,5,8,5,12,11,4,5],"shift_direction":1,"question_num":11,"has_decoy":false},{"rt":451.10000002384186,"stimulus":"[A] option 1, [L] option 2, [G] neither","key_press":65,"name":"choice","trial_type":"html-keyboard-response","trial_index":32,"time_elapsed":72409,"internal_node_id":"0.0-32.0","subject":"S1C1616","sona":"41447","block":5,"time":"2021-09-16T15:40:47.699Z","response":"1st","certainty":"high","char":"A","transposition":2,"order":["swapped","shifted"],"probe_pitches":[3,1,3,1,3,8,1,3,5,1,10,8,-2,10,1,8],"shifted_pitches":[3,1,3,1,3,8,1,3,6,1,10,8,-2,10,1,8],"swapped_pitches":[3,1,3,1,3,8,1,5,3,1,10,8,-2,10,1,8],"shift_direction":1,"question_num":21,"has_decoy":false},{"rt":516.1999999880791,"stimulus":"[A] option 1, [L] option 2, [G] neither","key_press":76,"name":"choice","trial_type":"html-keyboard-response","trial_index":43,"time_elapsed":95355,"internal_node_id":"0.0-43.0","subject":"S1C1616","sona":"41447","block":5,"time":"2021-09-16T15:40:47.699Z","response":"2nd","certainty":"high","char":"L","transposition":3,"order":["shifted","swapped"],"probe_pitches":[3,2,6,13,11,8,3,12,4,13,14,12,7,12,7,11],"shifted_pitches":[3,2,6,13,11,8,3,12,5,13,14,12,7,12,7,11],"swapped_pitches":[3,2,6,13,11,8,3,4,12,13,14,12,7,12,7,11],"shift_direction":1,"question_num":31,"has_decoy":false},{"rt":633.8999999761581,"stimulus":"[A] option 1, [L] option 2, [G] neither","key_press":71,"name":"choice","trial_type":"html-keyboard-response","trial_index":54,"time_elapsed":118065,"internal_node_id":"0.0-54.0","subject":"S1C1616","sona":"41447","block":5,"time":"2021-09-16T15:40:47.699Z","response":"neither","certainty":"high","char":"G","transposition":0,"order":["swapped","shifted"],"probe_pitches":[3,2,8,2,6,14,5,11,8,4,5,12,11,5,8,14],"shifted_pitches":[3,2,8,2,6,14,5,10,8,4,5,12,11,5,8,14],"swapped_pitches":[3,2,8,2,6,14,5,8,11,4,5,12,11,5,8,14],"shift_direction":-1,"question_num":41,"has_decoy":false},{"rt":515.8000000119209,"stimulus":"[A] option 1, [L] option 2, [G] neither","key_press":76,"name":"choice","trial_type":"html-keyboard-response","trial_index":65,"time_elapsed":140785,"internal_node_id":"0.0-65.0","subject":"S1C1616","sona":"41447","block":5,"time":"2021-09-16T15:40:47.699Z","response":"2nd","certainty":"high","char":"L","transposition":2,"order":["shifted","swapped"],"probe_pitches":[8,7,4,2,7,4,12,3,10,13,6,8,13,5,13,14],"shifted_pitches":[8,7,4,2,7,4,12,3,9,13,6,8,13,5,13,14],"swapped_pitches":[8,7,4,2,7,4,12,10,3,13,6,8,13,5,13,14],"shift_direction":-1,"question_num":51,"has_decoy":false},{"rt":1275.8999999761581,"stimulus":"[A] option 1, [L] option 2, [G] neither","key_press":71,"name":"choice","trial_type":"html-keyboard-response","trial_index":76,"time_elapsed":165588,"internal_node_id":"0.0-76.0","subject":"S1C1616","sona":"41447","block":5,"time":"2021-09-16T15:40:47.699Z","response":"neither","certainty":"high","char":"G","transposition":-2,"order":["shifted","swapped"],"probe_pitches":[2,5,10,7,-2,5,-2,7,5,10,0,7,5,2,5,10],"shifted_pitches":[2,5,10,7,-2,5,-2,8,5,10,0,7,5,2,5,10],"swapped_pitches":[2,5,10,7,-2,5,-2,5,7,10,0,7,5,2,5,10],"shift_direction":1,"question_num":61,"has_decoy":false},{"rt":1927.7999999821186,"stimulus":"[A] option 1, [L] option 2, [G] neither","key_press":71,"name":"choice","trial_type":"html-keyboard-response","trial_index":87,"time_elapsed":189851,"internal_node_id":"0.0-87.0","subject":"S1C1616","sona":"41447","block":5,"time":"2021-09-16T15:40:47.699Z","response":"neither","certainty":"high","char":"G","transposition":-3,"order":["shifted","swapped"],"probe_pitches":[0,-2,3,5,0,5,-2,7,3,0,-2,5,10,5,3,7],"shifted_pitches":[0,-2,3,5,0,5,-2,8,3,0,-2,5,10,5,3,7],"swapped_pitches":[0,-2,3,5,0,5,-2,3,7,0,-2,5,10,5,3,7],"shift_direction":1,"question_num":71,"has_decoy":false},{"rt":455.2000000178814,"stimulus":"[A] option 1, [L] option 2, [G] neither","key_press":65,"name":"choice","trial_type":"html-keyboard-response","trial_index":98,"time_elapsed":214448,"internal_node_id":"0.0-98.0","subject":"S1C1616","sona":"41447","block":5,"time":"2021-09-16T15:40:47.699Z","response":"1st","certainty":"high","char":"A","transposition":-1,"order":["shifted","swapped"],"probe_pitches":[3,8,3,-2,6,10,8,6,-2,10,3,-2,1,8,3,8],"shifted_pitches":[3,8,3,-2,6,10,8,6,-3,10,3,-2,1,8,3,8],"swapped_pitches":[3,8,3,-2,6,10,8,-2,6,10,3,-2,1,8,3,8],"shift_direction":-1,"question_num":81,"has_decoy":false},{"rt":357.19999998807907,"stimulus":"[A] option 1, [L] option 2, [G] neither","key_press":76,"name":"choice","trial_type":"html-keyboard-response","trial_index":109,"time_elapsed":237178,"internal_node_id":"0.0-109.0","subject":"S1C1616","sona":"41447","block":5,"time":"2021-09-16T15:40:47.699Z","response":"2nd","certainty":"high","char":"L","transposition":-1,"order":["swapped","shifted"],"probe_pitches":[11,12,10,5,7,14,9,7,13,5,2,7,2,12,6,5],"shifted_pitches":[11,12,10,5,7,14,9,8,13,5,2,7,2,12,6,5],"swapped_pitches":[11,12,10,5,7,14,9,13,7,5,2,7,2,12,6,5],"shift_direction":1,"question_num":91,"has_decoy":false},{"rt":1894.199999988079,"stimulus":"[A] option 1, [L] option 2, [G] neither","key_press":71,"name":"choice","trial_type":"html-keyboard-response","trial_index":120,"time_elapsed":261387,"internal_node_id":"0.0-120.0","subject":"S1C1616","sona":"41447","block":5,"time":"2021-09-16T15:40:47.699Z","response":"neither","certainty":"high","char":"G","transposition":1,"order":["shifted","swapped"],"probe_pitches":[4,10,3,10,3,12,13,12,6,14,3,6,2,8,10,11],"shifted_pitches":[4,10,3,10,3,12,13,12,7,14,3,6,2,8,10,11],"swapped_pitches":[4,10,3,10,3,12,13,6,12,14,3,6,2,8,10,11],"shift_direction":1,"question_num":101,"has_decoy":false},{"rt":1845,"stimulus":"[A] option 1, [L] option 2, [G] neither","key_press":65,"name":"choice","trial_type":"html-keyboard-response","trial_index":131,"time_elapsed":285589,"internal_node_id":"0.0-131.0","subject":"S1C1616","sona":"41447","block":5,"time":"2021-09-16T15:40:47.699Z","response":"1st","certainty":"high","char":"A","transposition":-2,"order":["swapped","shifted"],"probe_pitches":[10,9,5,10,7,2,3,4,7,13,3,12,9,3,8,10],"shifted_pitches":[10,9,5,10,7,2,3,4,6,13,3,12,9,3,8,10],"swapped_pitches":[10,9,5,10,7,2,3,7,4,13,3,12,9,3,8,10],"shift_direction":-1,"question_num":111,"has_decoy":false},{"rt":378.39999997615814,"stimulus":"[A] option 1, [L] option 2, [G] neither","key_press":65,"name":"choice","trial_type":"html-keyboard-response","trial_index":142,"time_elapsed":308406,"internal_node_id":"0.0-142.0","subject":"S1C1616","sona":"41447","block":5,"time":"2021-09-16T15:40:47.699Z","response":"1st","certainty":"high","char":"A","transposition":-1,"order":["swapped","shifted"],"probe_pitches":[0,3,5,8,0,3,0,8,3,-2,3,-2,0,-2,3,0],"shifted_pitches":[0,3,5,8,0,3,0,8,2,-2,3,-2,0,-2,3,0],"swapped_pitches":[0,3,5,8,0,3,0,3,8,-2,3,-2,0,-2,3,0],"shift_direction":-1,"question_num":121,"has_decoy":false},{"rt":408.09999999403954,"stimulus":"[A] option 1, [L] option 2, [G] neither","key_press":65,"name":"choice","trial_type":"html-keyboard-response","trial_index":153,"time_elapsed":331166,"internal_node_id":"0.0-153.0","subject":"S1C1616","sona":"41447","block":5,"time":"2021-09-16T15:40:47.699Z","response":"1st","certainty":"high","char":"A","transposition":-2,"order":["shifted","swapped"],"probe_pitches":[5,3,0,5,0,3,8,3,0,-2,5,10,-2,8,10,-2],"shifted_pitches":[5,3,0,5,0,3,8,2,0,-2,5,10,-2,8,10,-2],"swapped_pitches":[5,3,0,5,0,3,8,0,3,-2,5,10,-2,8,10,-2],"shift_direction":-1,"question_num":131,"has_decoy":false},{"rt":555.5999999940395,"stimulus":"[A] option 1, [L] option 2, [G] neither","key_press":65,"name":"choice","trial_type":"html-keyboard-response","trial_index":164,"time_elapsed":354083,"internal_node_id":"0.0-164.0","subject":"S1C1616","sona":"41447","block":5,"time":"2021-09-16T15:40:47.699Z","response":"1st","certainty":"high","char":"A","transposition":-1,"order":["swapped","shifted"],"probe_pitches":[7,8,2,4,13,14,11,2,13,8,10,8,14,4,10,11],"shifted_pitches":[7,8,2,4,13,14,11,2,12,8,10,8,14,4,10,11],"swapped_pitches":[7,8,2,4,13,14,11,13,2,8,10,8,14,4,10,11],"shift_direction":-1,"question_num":141,"has_decoy":false},{"rt":480.80000001192093,"stimulus":"[A] option 1, [L] option 2, [G] neither","key_press":76,"name":"choice","trial_type":"html-keyboard-response","trial_index":175,"time_elapsed":376915,"internal_node_id":"0.0-175.0","subject":"S1C1616","sona":"41447","block":5,"time":"2021-09-16T15:40:47.699Z","response":"2nd","certainty":"high","char":"L","transposition":3,"order":["swapped","shifted"],"probe_pitches":[3,8,1,3,6,10,1,8,10,1,-2,1,6,1,6,8],"shifted_pitches":[3,8,1,3,6,10,1,8,11,1,-2,1,6,1,6,8],"swapped_pitches":[3,8,1,3,6,10,1,10,8,1,-2,1,6,1,6,8],"shift_direction":1,"question_num":151,"has_decoy":false},{"rt":1859.5,"stimulus":"[A] option 1, [L] option 2, [G] neither","key_press":71,"name":"choice","trial_type":"html-keyboard-response","trial_index":186,"time_elapsed":401121,"internal_node_id":"0.0-186.0","subject":"S1C1616","sona":"41447","block":5,"time":"2021-09-16T15:40:47.699Z","response":"neither","certainty":"high","char":"G","transposition":-3,"order":["shifted","swapped"],"probe_pitches":[8,7,2,7,8,3,2,12,14,2,7,10,9,12,2,9],"shifted_pitches":[8,7,2,7,8,3,2,11,14,2,7,10,9,12,2,9],"swapped_pitches":[8,7,2,7,8,3,2,14,12,2,7,10,9,12,2,9],"shift_direction":-1,"question_num":161,"has_decoy":false},{"rt":421.69999998807907,"stimulus":"[A] option 1, [L] option 2, [G] neither","key_press":76,"name":"choice","trial_type":"html-keyboard-response","trial_index":197,"time_elapsed":423811,"internal_node_id":"0.0-197.0","subject":"S1C1616","sona":"41447","block":5,"time":"2021-09-16T15:40:47.699Z","response":"2nd","certainty":"high","char":"L","transposition":-3,"order":["swapped","shifted"],"probe_pitches":[-2,3,10,3,1,-2,5,3,10,1,-2,8,10,-2,3,10],"shifted_pitches":[-2,3,10,3,1,-2,5,2,10,1,-2,8,10,-2,3,10],"swapped_pitches":[-2,3,10,3,1,-2,5,10,3,1,-2,8,10,-2,3,10],"shift_direction":-1,"question_num":171,"has_decoy":false},{"rt":471.2000000178814,"stimulus":"[A] option 1, [L] option 2, [G] neither","key_press":65,"name":"choice","trial_type":"html-keyboard-response","trial_index":208,"time_elapsed":446970,"internal_node_id":"0.0-208.0","subject":"S1C1616","sona":"41447","block":5,"time":"2021-09-16T15:40:47.699Z","response":"1st","certainty":"high","char":"A","transposition":-2,"order":["swapped","shifted"],"probe_pitches":[13,14,10,14,12,2,6,3,14,2,13,8,14,13,3,5],"shifted_pitches":[13,14,10,14,12,2,6,4,14,2,13,8,14,13,3,5],"swapped_pitches":[13,14,10,14,12,2,6,14,3,2,13,8,14,13,3,5],"shift_direction":1,"question_num":181,"has_decoy":false},{"rt":369.90000000596046,"stimulus":"[A] option 1, [L] option 2, [G] neither","key_press":76,"name":"choice","trial_type":"html-keyboard-response","trial_index":219,"time_elapsed":469685,"internal_node_id":"0.0-219.0","subject":"S1C1616","sona":"41447","block":5,"time":"2021-09-16T15:40:47.699Z","response":"2nd","certainty":"high","char":"L","transposition":1,"order":["swapped","shifted"],"probe_pitches":[7,10,3,7,3,5,3,0,-2,7,0,7,3,7,-2,3],"shifted_pitches":[7,10,3,7,3,5,3,0,-1,7,0,7,3,7,-2,3],"swapped_pitches":[7,10,3,7,3,5,3,-2,0,7,0,7,3,7,-2,3],"shift_direction":1,"question_num":191,"has_decoy":false}]