[{"rt":434.80000001192093,"stimulus":"[A] option 1, [L] option 2, [G] neither","key_press":65,"name":"choice","trial_type":"html-keyboard-response","trial_index":10,"time_elapsed":26574,"internal_node_id":"0.0-10.0","subject":"S1C1616","sona":"41447","block":2,"time":"2021-09-16T15:13:28.616Z","response":"1st","certainty":"high","char":"A","transposition":-3,"order":["shifted","swapped"],"probe_pitches":[5,10,14,12,10,2,12,14,5,10,12,14,10,7,10,5],"shifted_pitches":[5,10,14,12,10,2,12,14,6,10,12,14,10,7,10,5],"swapped_pitches":[5,10,14,12,10,2,12,5,14,10,12,14,10,7,10,5],"shift_direction":1,"question_num":1,"has_decoy":false},{"rt":1281.300000011921,"stimulus":"[A] option 1, [L] option 2, [G] neither","key_press":71,"name":"choice","trial_type":"html-keyboard-response","trial_index":21,"time_elapsed":50829,"internal_node_id":"0.0-21.0","subject":"S1C1616","sona":"41447","block":2,"time":"2021-09-16T15:13:28.616Z","response":"neither","certainty":"high","char":"G","transposition":0,"order":["shifted","swapped"],"probe_pitches":[7,5,12,5,9,2,7,5,14,2,14,2,9,2,14,9],"shifted_pitches":[7,5,12,5,9,2,7,4,14,2,14,2,9,2,14,9],"swapped_pitches":[7,5,12,5,9,2,7,14,5,2,14,2,9,2,14,9],"shift_direction":-1,"question_num":11,"has_decoy":false},{"rt":1376.4000000059605,"stimulus":"[A] option 1, [L] option 2, [G] neither","key_press":76,"name":"choice","trial_type":"html-keyboard-response","trial_index":32,"time_elapsed":79943,"internal_node_id":"0.0-32.0","subject":"S1C1616","sona":"41447","block":2,"time":"2021-09-16T15:13:28.616Z","response":"2nd","certainty":"high","char":"L","transposition":3,"order":["swapped","shifted"],"probe_pitches":[9,14,7,9,2,9,12,4,9,2,7,14,12,9,4,12],"shifted_pitches":[9,14,7,9,2,9,12,5,9,2,7,14,12,9,4,12],"swapped_pitches":[9,14,7,9,2,9,12,9,4,2,7,14,12,9,4,12],"shift_direction":1,"question_num":21,"has_decoy":false},{"rt":343.30000001192093,"stimulus":"[A] option 1, [L] option 2, [G] neither","key_press":76,"name":"choice","trial_type":"html-keyboard-response","trial_index":43,"time_elapsed":103545,"internal_node_id":"0.0-43.0","subject":"S1C1616","sona":"41447","block":2,"time":"2021-09-16T15:13:28.616Z","response":"2nd","certainty":"high","char":"L","transposition":-2,"order":["swapped","shifted"],"probe_pitches":[4,6,11,9,2,4,6,4,2,11,6,9,6,4,2,11],"shifted_pitches":[4,6,11,9,2,4,6,5,2,11,6,9,6,4,2,11],"swapped_pitches":[4,6,11,9,2,4,6,2,4,11,6,9,6,4,2,11],"shift_direction":1,"question_num":31,"has_decoy":false},{"rt":859.4000000059605,"stimulus":"[A] option 1, [L] option 2, [G] neither","key_press":71,"name":"choice","trial_type":"html-keyboard-response","trial_index":54,"time_elapsed":126984,"internal_node_id":"0.0-54.0","subject":"S1C1616","sona":"41447","block":2,"time":"2021-09-16T15:13:28.616Z","response":"neither","certainty":"high","char":"G","transposition":0,"order":["swapped","shifted"],"probe_pitches":[12,9,7,8,7,8,13,5,4,9,2,11,6,13,2,6],"shifted_pitches":[12,9,7,8,7,8,13,5,3,9,2,11,6,13,2,6],"swapped_pitches":[12,9,7,8,7,8,13,4,5,9,2,11,6,13,2,6],"shift_direction":-1,"question_num":41,"has_decoy":false},{"rt":2272.0999999940395,"stimulus":"[A] option 1, [L] option 2, [G] neither","key_press":65,"name":"choice","trial_type":"html-keyboard-response","trial_index":65,"time_elapsed":152094,"internal_node_id":"0.0-65.0","subject":"S1C1616","sona":"41447","block":2,"time":"2021-09-16T15:13:28.616Z","response":"1st","certainty":"high","char":"A","transposition":-2,"order":["shifted","swapped"],"probe_pitches":[1,3,7,8,13,12,6,5,1,8,5,3,6,3,13,5],"shifted_pitches":[1,3,7,8,13,12,6,4,1,8,5,3,6,3,13,5],"swapped_pitches":[1,3,7,8,13,12,6,1,5,8,5,3,6,3,13,5],"shift_direction":-1,"question_num":51,"has_decoy":false},{"rt":676.5999999940395,"stimulus":"[A] option 1, [L] option 2, [G] neither","key_press":65,"name":"choice","trial_type":"html-keyboard-response","trial_index":76,"time_elapsed":175709,"internal_node_id":"0.0-76.0","subject":"S1C1616","sona":"41447","block":2,"time":"2021-09-16T15:13:28.616Z","response":"1st","certainty":"high","char":"A","transposition":-1,"order":["shifted","swapped"],"probe_pitches":[14,9,4,12,4,7,14,2,12,14,9,2,7,9,7,9],"shifted_pitches":[14,9,4,12,4,7,14,2,13,14,9,2,7,9,7,9],"swapped_pitches":[14,9,4,12,4,7,14,12,2,14,9,2,7,9,7,9],"shift_direction":1,"question_num":61,"has_decoy":false},{"rt":488.5,"stimulus":"[A] option 1, [L] option 2, [G] neither","key_press":71,"name":"choice","trial_type":"html-keyboard-response","trial_index":87,"time_elapsed":199025,"internal_node_id":"0.0-87.0","subject":"S1C1616","sona":"41447","block":2,"time":"2021-09-16T15:13:28.616Z","response":"neither","certainty":"high","char":"G","transposition":-3,"order":["shifted","swapped"],"probe_pitches":[9,14,7,9,12,5,9,2,14,12,2,12,5,12,14,2],"shifted_pitches":[9,14,7,9,12,5,9,2,13,12,2,12,5,12,14,2],"swapped_pitches":[9,14,7,9,12,5,9,14,2,12,2,12,5,12,14,2],"shift_direction":-1,"question_num":71,"has_decoy":false},{"rt":414.40000000596046,"stimulus":"[A] option 1, [L] option 2, [G] neither","key_press":76,"name":"choice","trial_type":"html-keyboard-response","trial_index":98,"time_elapsed":222248,"internal_node_id":"0.0-98.0","subject":"S1C1616","sona":"41447","block":2,"time":"2021-09-16T15:13:28.616Z","response":"2nd","certainty":"high","char":"L","transposition":2,"order":["swapped","shifted"],"probe_pitches":[14,11,9,11,9,4,7,4,11,2,11,9,2,11,9,4],"shifted_pitches":[14,11,9,11,9,4,7,4,10,2,11,9,2,11,9,4],"swapped_pitches":[14,11,9,11,9,4,7,11,4,2,11,9,2,11,9,4],"shift_direction":-1,"question_num":81,"has_decoy":false},{"rt":418,"stimulus":"[A] option 1, [L] option 2, [G] neither","key_press":65,"name":"choice","trial_type":"html-keyboard-response","trial_index":109,"time_elapsed":245047,"internal_node_id":"0.0-109.0","subject":"S1C1616","sona":"41447","block":2,"time":"2021-09-16T15:13:28.616Z","response":"1st","certainty":"high","char":"A","transposition":-1,"order":["shifted","swapped"],"probe_pitches":[8,4,6,5,12,10,2,8,10,9,10,4,13,12,5,10],"shifted_pitches":[8,4,6,5,12,10,2,8,11,9,10,4,13,12,5,10],"swapped_pitches":[8,4,6,5,12,10,2,10,8,9,10,4,13,12,5,10],"shift_direction":1,"question_num":91,"has_decoy":false},{"rt":779.6999999880791,"stimulus":"[A] option 1, [L] option 2, [G] neither","key_press":76,"name":"choice","trial_type":"html-keyboard-response","trial_index":120,"time_elapsed":268230,"internal_node_id":"0.0-120.0","subject":"S1C1616","sona":"41447","block":2,"time":"2021-09-16T15:13:28.616Z","response":"2nd","certainty":"high","char":"L","transposition":1,"order":["swapped","shifted"],"probe_pitches":[14,11,9,4,11,14,9,4,6,11,2,11,6,4,14,11],"shifted_pitches":[14,11,9,4,11,14,9,5,6,11,2,11,6,4,14,11],"swapped_pitches":[14,11,9,4,11,14,9,6,4,11,2,11,6,4,14,11],"shift_direction":1,"question_num":101,"has_decoy":false},{"rt":2354.5,"stimulus":"[A] option 1, [L] option 2, [G] neither","key_press":76,"name":"choice","trial_type":"html-keyboard-response","trial_index":131,"time_elapsed":293613,"internal_node_id":"0.0-131.0","subject":"S1C1616","sona":"41447","block":2,"time":"2021-09-16T15:13:28.616Z","response":"2nd","certainty":"high","char":"L","transposition":-2,"order":["swapped","shifted"],"probe_pitches":[9,7,2,9,11,14,9,2,14,11,14,11,2,4,2,4],"shifted_pitches":[9,7,2,9,11,14,9,2,13,11,14,11,2,4,2,4],"swapped_pitches":[9,7,2,9,11,14,9,14,2,11,14,11,2,4,2,4],"shift_direction":-1,"question_num":111,"has_decoy":false},{"rt":520.6000000238419,"stimulus":"[A] option 1, [L] option 2, [G] neither","key_press":65,"name":"choice","trial_type":"html-keyboard-response","trial_index":142,"time_elapsed":316505,"internal_node_id":"0.0-142.0","subject":"S1C1616","sona":"41447","block":2,"time":"2021-09-16T15:13:28.616Z","response":"1st","certainty":"high","char":"A","transposition":1,"order":["swapped","shifted"],"probe_pitches":[6,12,7,6,13,11,10,6,7,1,2,11,4,10,11,3],"shifted_pitches":[6,12,7,6,13,11,10,5,7,1,2,11,4,10,11,3],"swapped_pitches":[6,12,7,6,13,11,10,7,6,1,2,11,4,10,11,3],"shift_direction":-1,"question_num":121,"has_decoy":false},{"rt":1702,"stimulus":"[A] option 1, [L] option 2, [G] neither","key_press":76,"name":"choice","trial_type":"html-keyboard-response","trial_index":153,"time_elapsed":340594,"internal_node_id":"0.0-153.0","subject":"S1C1616","sona":"41447","block":2,"time":"2021-09-16T15:13:28.616Z","response":"2nd","certainty":"high","char":"L","transposition":-1,"order":["shifted","swapped"],"probe_pitches":[10,5,10,7,12,2,12,5,10,7,10,2,5,7,5,2],"shifted_pitches":[10,5,10,7,12,2,12,4,10,7,10,2,5,7,5,2],"swapped_pitches":[10,5,10,7,12,2,12,10,5,7,10,2,5,7,5,2],"shift_direction":-1,"question_num":131,"has_decoy":false},{"rt":599.4000000059605,"stimulus":"[A] option 1, [L] option 2, [G] neither","key_press":65,"name":"choice","trial_type":"html-keyboard-response","trial_index":164,"time_elapsed":367502,"internal_node_id":"0.0-164.0","subject":"S1C1616","sona":"41447","block":2,"time":"2021-09-16T15:13:28.616Z","response":"1st","certainty":"high","char":"A","transposition":3,"order":["shifted","swapped"],"probe_pitches":[5,8,6,12,6,1,6,10,7,12,5,2,7,5,7,3],"shifted_pitches":[5,8,6,12,6,1,6,9,7,12,5,2,7,5,7,3],"swapped_pitches":[5,8,6,12,6,1,6,7,10,12,5,2,7,5,7,3],"shift_direction":-1,"question_num":141,"has_decoy":false},{"rt":395.09999999403954,"stimulus":"[A] option 1, [L] option 2, [G] neither","key_press":71,"name":"choice","trial_type":"html-keyboard-response","trial_index":175,"time_elapsed":390866,"internal_node_id":"0.0-175.0","subject":"S1C1616","sona":"41447","block":2,"time":"2021-09-16T15:13:28.616Z","response":"neither","certainty":"high","char":"G","transposition":2,"order":["swapped","shifted"],"probe_pitches":[4,8,5,10,5,1,4,2,5,3,12,8,4,7,13,4],"shifted_pitches":[4,8,5,10,5,1,4,2,6,3,12,8,4,7,13,4],"swapped_pitches":[4,8,5,10,5,1,4,5,2,3,12,8,4,7,13,4],"shift_direction":1,"question_num":151,"has_decoy":false},{"rt":1424,"stimulus":"[A] option 1, [L] option 2, [G] neither","key_press":71,"name":"choice","trial_type":"html-keyboard-response","trial_index":186,"time_elapsed":415229,"internal_node_id":"0.0-186.0","subject":"S1C1616","sona":"41447","block":2,"time":"2021-09-16T15:13:28.616Z","response":"neither","certainty":"high","char":"G","transposition":-3,"order":["swapped","shifted"],"probe_pitches":[13,11,7,12,4,3,11,9,7,1,2,12,6,12,13,9],"shifted_pitches":[13,11,7,12,4,3,11,9,8,1,2,12,6,12,13,9],"swapped_pitches":[13,11,7,12,4,3,11,7,9,1,2,12,6,12,13,9],"shift_direction":1,"question_num":161,"has_decoy":false},{"rt":738.5,"stimulus":"[A] option 1, [L] option 2, [G] neither","key_press":65,"name":"choice","trial_type":"html-keyboard-response","trial_index":197,"time_elapsed":439819,"internal_node_id":"0.0-197.0","subject":"S1C1616","sona":"41447","block":2,"time":"2021-09-16T15:13:28.616Z","response":"1st","certainty":"high","char":"A","transposition":-2,"order":["shifted","swapped"],"probe_pitches":[5,10,5,9,1,2,5,6,4,8,9,2,4,6,4,9],"shifted_pitches":[5,10,5,9,1,2,5,7,4,8,9,2,4,6,4,9],"swapped_pitches":[5,10,5,9,1,2,5,4,6,8,9,2,4,6,4,9],"shift_direction":1,"question_num":171,"has_decoy":false},{"rt":1784.699999988079,"stimulus":"[A] option 1, [L] option 2, [G] neither","key_press":65,"name":"choice","trial_type":"html-keyboard-response","trial_index":208,"time_elapsed":464577,"internal_node_id":"0.0-208.0","subject":"S1C1616","sona":"41447","block":2,"time":"2021-09-16T15:13:28.616Z","response":"1st","certainty":"high","char":"A","transposition":-1,"order":["shifted","swapped"],"probe_pitches":[13,12,9,5,11,13,5,11,3,6,11,7,5,6,8,6],"shifted_pitches":[13,12,9,5,11,13,5,10,3,6,11,7,5,6,8,6],"swapped_pitches":[13,12,9,5,11,13,5,3,11,6,11,7,5,6,8,6],"shift_direction":-1,"question_num":181,"has_decoy":false},{"rt":696.9000000059605,"stimulus":"[A] option 1, [L] option 2, [G] neither","key_press":65,"name":"choice","trial_type":"html-keyboard-response","trial_index":219,"time_elapsed":487784,"internal_node_id":"0.0-219.0","subject":"S1C1616","sona":"41447","block":2,"time":"2021-09-16T15:13:28.616Z","response":"1st","certainty":"high","char":"A","transposition":-3,"order":["swapped","shifted"],"probe_pitches":[7,5,7,4,11,1,6,10,11,4,10,3,7,11,13,6],"shifted_pitches":[7,5,7,4,11,1,6,10,12,4,10,3,7,11,13,6],"swapped_pitches":[7,5,7,4,11,1,6,11,10,4,10,3,7,11,13,6],"shift_direction":1,"question_num":191,"has_decoy":false}]