[{"rt":10947.59999999404,"stimulus":"[A] option 1, [L] option 2, [G] neither","key_press":76,"name":"choice","trial_type":"html-keyboard-response","trial_index":15,"time_elapsed":93522,"internal_node_id":"0.0-15.0","response":"2nd","certainty":"high","char":"L","transposition":-1,"order":["swapped","shifted"],"probe_pitches":[13,11,6,11,13,8,4,6,1,13,4,13,8,6,1,11],"shifted_pitches":[13,11,6,11,13,8,4,5,1,13,4,13,8,6,1,11],"swapped_pitches":[13,11,6,11,13,8,4,1,6,13,4,13,8,6,1,11],"shift_direction":-1,"question_num":1,"has_decoy":false,"subject":"S1C1616","sona":"41447","block":1,"time":"2021-09-16T15:04:37.096Z"},{"rt":973.9000000059605,"stimulus":"[A] option 1, [L] option 2, [G] neither","key_press":71,"name":"choice","trial_type":"html-keyboard-response","trial_index":26,"time_elapsed":121341,"internal_node_id":"0.0-26.0","response":"neither","certainty":"high","char":"G","transposition":-1,"order":["swapped","shifted"],"probe_pitches":[11,10,6,4,6,12,10,8,0,6,1,3,2,6,9,1],"shifted_pitches":[11,10,6,4,6,12,10,7,0,6,1,3,2,6,9,1],"swapped_pitches":[11,10,6,4,6,12,10,0,8,6,1,3,2,6,9,1],"shift_direction":-1,"question_num":11,"has_decoy":false,"subject":"S1C1616","sona":"41447","block":1,"time":"2021-09-16T15:04:37.096Z"},{"rt":1696.5,"stimulus":"[A] option 1, [L] option 2, [G] neither","key_press":76,"name":"choice","trial_type":"html-keyboard-response","trial_index":37,"time_elapsed":149035,"internal_node_id":"0.0-37.0","response":"2nd","certainty":"high","char":"L","transposition":-1,"order":["shifted","swapped"],"probe_pitches":[3,0,6,5,11,6,0,9,1,7,3,11,7,6,12,7],"shifted_pitches":[3,0,6,5,11,6,0,8,1,7,3,11,7,6,12,7],"swapped_pitches":[3,0,6,5,11,6,0,1,9,7,3,11,7,6,12,7],"shift_direction":-1,"question_num":21,"has_decoy":false,"subject":"S1C1616","sona":"41447","block":1,"time":"2021-09-16T15:04:37.096Z"},{"rt":1339.4000000059605,"stimulus":"[A] option 1, [L] option 2, [G] neither","key_press":65,"name":"choice","trial_type":"html-keyboard-response","trial_index":48,"time_elapsed":174587,"internal_node_id":"0.0-48.0","response":"1st","certainty":"high","char":"A","transposition":-3,"order":["shifted","swapped"],"probe_pitches":[4,6,13,9,4,6,11,6,4,13,11,4,6,9,11,6],"shifted_pitches":[4,6,13,9,4,6,11,5,4,13,11,4,6,9,11,6],"swapped_pitches":[4,6,13,9,4,6,11,4,6,13,11,4,6,9,11,6],"shift_direction":-1,"question_num":31,"has_decoy":false,"subject":"S1C1616","sona":"41447","block":1,"time":"2021-09-16T15:04:37.096Z"},{"rt":5942.5999999940395,"stimulus":"[A] option 1, [L] option 2, [G] neither","key_press":65,"name":"choice","trial_type":"html-keyboard-response","trial_index":59,"time_elapsed":203938,"internal_node_id":"0.0-59.0","response":"1st","certainty":"high","char":"A","transposition":1,"order":["shifted","swapped"],"probe_pitches":[0,4,2,0,6,11,1,2,11,7,1,0,6,8,2,0],"shifted_pitches":[0,4,2,0,6,11,1,2,10,7,1,0,6,8,2,0],"swapped_pitches":[0,4,2,0,6,11,1,11,2,7,1,0,6,8,2,0],"shift_direction":-1,"question_num":41,"has_decoy":false,"subject":"S1C1616","sona":"41447","block":1,"time":"2021-09-16T15:04:37.096Z"},{"rt":491.40000000596046,"stimulus":"[A] option 1, [L] option 2, [G] neither","key_press":76,"name":"choice","trial_type":"html-keyboard-response","trial_index":70,"time_elapsed":227966,"internal_node_id":"0.0-70.0","response":"2nd","certainty":"high","char":"L","transposition":3,"order":["shifted","swapped"],"probe_pitches":[9,4,5,8,4,9,0,3,4,6,9,4,12,9,4,9],"shifted_pitches":[9,4,5,8,4,9,0,2,4,6,9,4,12,9,4,9],"swapped_pitches":[9,4,5,8,4,9,0,4,3,6,9,4,12,9,4,9],"shift_direction":-1,"question_num":51,"has_decoy":false,"subject":"S1C1616","sona":"41447","block":1,"time":"2021-09-16T15:04:37.096Z"},{"rt":1336.300000011921,"stimulus":"[A] option 1, [L] option 2, [G] neither","key_press":76,"name":"choice","trial_type":"html-keyboard-response","trial_index":81,"time_elapsed":252410,"internal_node_id":"0.0-81.0","response":"2nd","certainty":"high","char":"L","transposition":-2,"order":["swapped","shifted"],"probe_pitches":[8,6,2,7,10,1,4,7,2,1,5,0,9,0,11,2],"shifted_pitches":[8,6,2,7,10,1,4,7,3,1,5,0,9,0,11,2],"swapped_pitches":[8,6,2,7,10,1,4,2,7,1,5,0,9,0,11,2],"shift_direction":1,"question_num":61,"has_decoy":false,"subject":"S1C1616","sona":"41447","block":1,"time":"2021-09-16T15:04:37.096Z"},{"rt":702.7999999821186,"stimulus":"[A] option 1, [L] option 2, [G] neither","key_press":65,"name":"choice","trial_type":"html-keyboard-response","trial_index":92,"time_elapsed":276289,"internal_node_id":"0.0-92.0","response":"1st","certainty":"high","char":"A","transposition":-3,"order":["shifted","swapped"],"probe_pitches":[0,3,1,5,7,10,0,3,7,0,2,10,11,9,10,7],"shifted_pitches":[0,3,1,5,7,10,0,4,7,0,2,10,11,9,10,7],"swapped_pitches":[0,3,1,5,7,10,0,7,3,0,2,10,11,9,10,7],"shift_direction":1,"question_num":71,"has_decoy":false,"subject":"S1C1616","sona":"41447","block":1,"time":"2021-09-16T15:04:37.096Z"},{"rt":568.5,"stimulus":"[A] option 1, [L] option 2, [G] neither","key_press":76,"name":"choice","trial_type":"html-keyboard-response","trial_index":103,"time_elapsed":302454,"internal_node_id":"0.0-103.0","response":"2nd","certainty":"high","char":"L","transposition":0,"order":["swapped","shifted"],"probe_pitches":[1,4,8,6,13,4,1,11,13,8,1,4,8,13,4,13],"shifted_pitches":[1,4,8,6,13,4,1,10,13,8,1,4,8,13,4,13],"swapped_pitches":[1,4,8,6,13,4,1,13,11,8,1,4,8,13,4,13],"shift_direction":-1,"question_num":81,"has_decoy":false,"subject":"S1C1616","sona":"41447","block":1,"time":"2021-09-16T15:04:37.096Z"},{"rt":709.8999999761581,"stimulus":"[A] option 1, [L] option 2, [G] neither","key_press":76,"name":"choice","trial_type":"html-keyboard-response","trial_index":114,"time_elapsed":325891,"internal_node_id":"0.0-114.0","response":"2nd","certainty":"high","char":"L","transposition":-2,"order":["swapped","shifted"],"probe_pitches":[8,3,5,13,8,1,10,8,1,5,10,5,13,1,5,1],"shifted_pitches":[8,3,5,13,8,1,10,8,2,5,10,5,13,1,5,1],"swapped_pitches":[8,3,5,13,8,1,10,1,8,5,10,5,13,1,5,1],"shift_direction":1,"question_num":91,"has_decoy":false,"subject":"S1C1616","sona":"41447","block":1,"time":"2021-09-16T15:04:37.096Z"},{"rt":339,"stimulus":"[A] option 1, [L] option 2, [G] neither","key_press":65,"name":"choice","trial_type":"html-keyboard-response","trial_index":125,"time_elapsed":349388,"internal_node_id":"0.0-125.0","response":"1st","certainty":"high","char":"A","transposition":-3,"order":["shifted","swapped"],"probe_pitches":[6,8,13,10,6,1,3,13,6,8,6,8,1,3,13,8],"shifted_pitches":[6,8,13,10,6,1,3,14,6,8,6,8,1,3,13,8],"swapped_pitches":[6,8,13,10,6,1,3,6,13,8,6,8,1,3,13,8],"shift_direction":1,"question_num":101,"has_decoy":false,"subject":"S1C1616","sona":"41447","block":1,"time":"2021-09-16T15:04:37.096Z"},{"rt":506.69999998807907,"stimulus":"[A] option 1, [L] option 2, [G] neither","key_press":71,"name":"choice","trial_type":"html-keyboard-response","trial_index":136,"time_elapsed":372964,"internal_node_id":"0.0-136.0","response":"neither","certainty":"high","char":"G","transposition":0,"order":["swapped","shifted"],"probe_pitches":[4,5,12,8,6,12,8,12,10,8,6,7,2,10,9,5],"shifted_pitches":[4,5,12,8,6,12,8,12,11,8,6,7,2,10,9,5],"swapped_pitches":[4,5,12,8,6,12,8,10,12,8,6,7,2,10,9,5],"shift_direction":1,"question_num":111,"has_decoy":false,"subject":"S1C1616","sona":"41447","block":1,"time":"2021-09-16T15:04:37.096Z"},{"rt":2422.2000000178814,"stimulus":"[A] option 1, [L] option 2, [G] neither","key_press":71,"name":"choice","trial_type":"html-keyboard-response","trial_index":147,"time_elapsed":398576,"internal_node_id":"0.0-147.0","response":"neither","certainty":"high","char":"G","transposition":-1,"order":["shifted","swapped"],"probe_pitches":[1,3,8,13,11,6,8,3,1,8,3,1,11,3,8,6],"shifted_pitches":[1,3,8,13,11,6,8,3,2,8,3,1,11,3,8,6],"swapped_pitches":[1,3,8,13,11,6,8,1,3,8,3,1,11,3,8,6],"shift_direction":1,"question_num":121,"has_decoy":false,"subject":"S1C1616","sona":"41447","block":1,"time":"2021-09-16T15:04:37.096Z"},{"rt":290.09999999403954,"stimulus":"[A] option 1, [L] option 2, [G] neither","key_press":76,"name":"choice","trial_type":"html-keyboard-response","trial_index":158,"time_elapsed":422364,"internal_node_id":"0.0-158.0","response":"2nd","certainty":"high","char":"L","transposition":1,"order":["swapped","shifted"],"probe_pitches":[8,13,8,1,3,6,11,8,3,6,3,1,13,1,3,13],"shifted_pitches":[8,13,8,1,3,6,11,8,2,6,3,1,13,1,3,13],"swapped_pitches":[8,13,8,1,3,6,11,3,8,6,3,1,13,1,3,13],"shift_direction":-1,"question_num":131,"has_decoy":false,"subject":"S1C1616","sona":"41447","block":1,"time":"2021-09-16T15:04:37.096Z"},{"rt":376.19999998807907,"stimulus":"[A] option 1, [L] option 2, [G] neither","key_press":65,"name":"choice","trial_type":"html-keyboard-response","trial_index":169,"time_elapsed":445031,"internal_node_id":"0.0-169.0","response":"1st","certainty":"high","char":"A","transposition":2,"order":["shifted","swapped"],"probe_pitches":[3,1,5,10,3,5,10,8,1,5,1,5,3,13,5,13],"shifted_pitches":[3,1,5,10,3,5,10,9,1,5,1,5,3,13,5,13],"swapped_pitches":[3,1,5,10,3,5,10,1,8,5,1,5,3,13,5,13],"shift_direction":1,"question_num":141,"has_decoy":false,"subject":"S1C1616","sona":"41447","block":1,"time":"2021-09-16T15:04:37.096Z"},{"rt":2935.300000011921,"stimulus":"[A] option 1, [L] option 2, [G] neither","key_press":76,"name":"choice","trial_type":"html-keyboard-response","trial_index":180,"time_elapsed":471245,"internal_node_id":"0.0-180.0","response":"2nd","certainty":"high","char":"L","transposition":3,"order":["swapped","shifted"],"probe_pitches":[4,6,4,1,4,11,6,11,9,13,6,4,13,11,9,11],"shifted_pitches":[4,6,4,1,4,11,6,11,8,13,6,4,13,11,9,11],"swapped_pitches":[4,6,4,1,4,11,6,9,11,13,6,4,13,11,9,11],"shift_direction":-1,"question_num":151,"has_decoy":false,"subject":"S1C1616","sona":"41447","block":1,"time":"2021-09-16T15:04:37.096Z"},{"rt":612.5,"stimulus":"[A] option 1, [L] option 2, [G] neither","key_press":65,"name":"choice","trial_type":"html-keyboard-response","trial_index":191,"time_elapsed":494489,"internal_node_id":"0.0-191.0","response":"1st","certainty":"high","char":"A","transposition":-2,"order":["swapped","shifted"],"probe_pitches":[8,3,1,6,4,5,7,10,3,8,5,3,4,8,3,8],"shifted_pitches":[8,3,1,6,4,5,7,9,3,8,5,3,4,8,3,8],"swapped_pitches":[8,3,1,6,4,5,7,3,10,8,5,3,4,8,3,8],"shift_direction":-1,"question_num":161,"has_decoy":false,"subject":"S1C1616","sona":"41447","block":1,"time":"2021-09-16T15:04:37.096Z"},{"rt":413.90000000596046,"stimulus":"[A] option 1, [L] option 2, [G] neither","key_press":71,"name":"choice","trial_type":"html-keyboard-response","trial_index":202,"time_elapsed":518013,"internal_node_id":"0.0-202.0","response":"neither","certainty":"high","char":"G","transposition":-3,"order":["swapped","shifted"],"probe_pitches":[3,4,0,2,9,10,12,7,4,2,12,0,10,8,0,9],"shifted_pitches":[3,4,0,2,9,10,12,7,5,2,12,0,10,8,0,9],"swapped_pitches":[3,4,0,2,9,10,12,4,7,2,12,0,10,8,0,9],"shift_direction":1,"question_num":171,"has_decoy":false,"subject":"S1C1616","sona":"41447","block":1,"time":"2021-09-16T15:04:37.096Z"},{"rt":704.6999999880791,"stimulus":"[A] option 1, [L] option 2, [G] neither","key_press":65,"name":"choice","trial_type":"html-keyboard-response","trial_index":213,"time_elapsed":541025,"internal_node_id":"0.0-213.0","response":"1st","certainty":"high","char":"A","transposition":2,"order":["shifted","swapped"],"probe_pitches":[3,2,0,4,9,0,3,9,5,7,4,12,4,10,8,2],"shifted_pitches":[3,2,0,4,9,0,3,9,6,7,4,12,4,10,8,2],"swapped_pitches":[3,2,0,4,9,0,3,5,9,7,4,12,4,10,8,2],"shift_direction":1,"question_num":181,"has_decoy":false,"subject":"S1C1616","sona":"41447","block":1,"time":"2021-09-16T15:04:37.096Z"},{"rt":394.5,"stimulus":"[A] option 1, [L] option 2, [G] neither","key_press":65,"name":"choice","trial_type":"html-keyboard-response","trial_index":224,"time_elapsed":564411,"internal_node_id":"0.0-224.0","response":"1st","certainty":"high","char":"A","transposition":-2,"order":["shifted","swapped"],"probe_pitches":[13,8,13,10,1,10,8,13,10,8,3,13,1,6,13,6],"shifted_pitches":[13,8,13,10,1,10,8,13,11,8,3,13,1,6,13,6],"swapped_pitches":[13,8,13,10,1,10,8,10,13,8,3,13,1,6,13,6],"shift_direction":1,"question_num":191,"has_decoy":false,"subject":"S1C1616","sona":"41447","block":1,"time":"2021-09-16T15:04:37.096Z"}]