[{"rt":1351.4000000059605,"stimulus":"[A] option 1, [L] option 2, [G] neither","key_press":76,"name":"choice","trial_type":"html-keyboard-response","trial_index":10,"time_elapsed":32755,"internal_node_id":"0.0-10.0","subject":"S1C1616","sona":"41447","block":3,"time":"2021-09-16T15:21:29.987Z","response":"2nd","certainty":"high","char":"L","transposition":-2,"order":["shifted","swapped"],"probe_pitches":[3,5,3,6,4,10,6,14,9,6,11,13,7,12,9,14],"shifted_pitches":[3,5,3,6,4,10,6,14,8,6,11,13,7,12,9,14],"swapped_pitches":[3,5,3,6,4,10,6,9,14,6,11,13,7,12,9,14],"shift_direction":-1,"question_num":1,"has_decoy":false},{"rt":1107.3999999761581,"stimulus":"[A] option 1, [L] option 2, [G] neither","key_press":65,"name":"choice","trial_type":"html-keyboard-response","trial_index":21,"time_elapsed":56133,"internal_node_id":"0.0-21.0","subject":"S1C1616","sona":"41447","block":3,"time":"2021-09-16T15:21:29.987Z","response":"1st","certainty":"high","char":"A","transposition":-3,"order":["swapped","shifted"],"probe_pitches":[4,8,13,12,8,15,11,4,13,6,4,6,12,14,3,6],"shifted_pitches":[4,8,13,12,8,15,11,5,13,6,4,6,12,14,3,6],"swapped_pitches":[4,8,13,12,8,15,11,13,4,6,4,6,12,14,3,6],"shift_direction":1,"question_num":11,"has_decoy":false},{"rt":517.1999999880791,"stimulus":"[A] option 1, [L] option 2, [G] neither","key_press":76,"name":"choice","trial_type":"html-keyboard-response","trial_index":32,"time_elapsed":79996,"internal_node_id":"0.0-32.0","subject":"S1C1616","sona":"41447","block":3,"time":"2021-09-16T15:21:29.987Z","response":"2nd","certainty":"high","char":"L","transposition":-2,"order":["swapped","shifted"],"probe_pitches":[5,2,7,0,5,7,0,10,12,0,10,0,5,2,12,5],"shifted_pitches":[5,2,7,0,5,7,0,10,13,0,10,0,5,2,12,5],"swapped_pitches":[5,2,7,0,5,7,0,12,10,0,10,0,5,2,12,5],"shift_direction":1,"question_num":21,"has_decoy":false},{"rt":371.90000000596046,"stimulus":"[A] option 1, [L] option 2, [G] neither","key_press":76,"name":"choice","trial_type":"html-keyboard-response","trial_index":43,"time_elapsed":102865,"internal_node_id":"0.0-43.0","subject":"S1C1616","sona":"41447","block":3,"time":"2021-09-16T15:21:29.987Z","response":"2nd","certainty":"high","char":"L","transposition":-1,"order":["swapped","shifted"],"probe_pitches":[11,14,8,3,4,5,8,5,4,15,4,7,5,14,11,7],"shifted_pitches":[11,14,8,3,4,5,8,6,4,15,4,7,5,14,11,7],"swapped_pitches":[11,14,8,3,4,5,8,4,5,15,4,7,5,14,11,7],"shift_direction":1,"question_num":31,"has_decoy":false},{"rt":1232.3999999761581,"stimulus":"[A] option 1, [L] option 2, [G] neither","key_press":76,"name":"choice","trial_type":"html-keyboard-response","trial_index":54,"time_elapsed":126419,"internal_node_id":"0.0-54.0","subject":"S1C1616","sona":"41447","block":3,"time":"2021-09-16T15:21:29.987Z","response":"2nd","certainty":"high","char":"L","transposition":2,"order":["shifted","swapped"],"probe_pitches":[3,6,8,6,8,7,5,3,10,9,14,7,13,9,3,4],"shifted_pitches":[3,6,8,6,8,7,5,3,11,9,14,7,13,9,3,4],"swapped_pitches":[3,6,8,6,8,7,5,10,3,9,14,7,13,9,3,4],"shift_direction":1,"question_num":41,"has_decoy":false},{"rt":378.59999999403954,"stimulus":"[A] option 1, [L] option 2, [G] neither","key_press":65,"name":"choice","trial_type":"html-keyboard-response","trial_index":65,"time_elapsed":149097,"internal_node_id":"0.0-65.0","subject":"S1C1616","sona":"41447","block":3,"time":"2021-09-16T15:21:29.987Z","response":"1st","certainty":"high","char":"A","transposition":-3,"order":["shifted","swapped"],"probe_pitches":[13,8,5,11,10,5,4,6,12,11,14,11,3,13,15,5],"shifted_pitches":[13,8,5,11,10,5,4,7,12,11,14,11,3,13,15,5],"swapped_pitches":[13,8,5,11,10,5,4,12,6,11,14,11,3,13,15,5],"shift_direction":1,"question_num":51,"has_decoy":false},{"rt":519.1999999880791,"stimulus":"[A] option 1, [L] option 2, [G] neither","key_press":76,"name":"choice","trial_type":"html-keyboard-response","trial_index":76,"time_elapsed":171894,"internal_node_id":"0.0-76.0","subject":"S1C1616","sona":"41447","block":3,"time":"2021-09-16T15:21:29.987Z","response":"2nd","certainty":"high","char":"L","transposition":-2,"order":["swapped","shifted"],"probe_pitches":[5,0,2,7,2,7,5,7,0,2,9,7,12,9,7,12],"shifted_pitches":[5,0,2,7,2,7,5,6,0,2,9,7,12,9,7,12],"swapped_pitches":[5,0,2,7,2,7,5,0,7,2,9,7,12,9,7,12],"shift_direction":-1,"question_num":61,"has_decoy":false},{"rt":1391.7000000178814,"stimulus":"[A] option 1, [L] option 2, [G] neither","key_press":71,"name":"choice","trial_type":"html-keyboard-response","trial_index":87,"time_elapsed":196361,"internal_node_id":"0.0-87.0","subject":"S1C1616","sona":"41447","block":3,"time":"2021-09-16T15:21:29.987Z","response":"neither","certainty":"high","char":"G","transposition":-1,"order":["swapped","shifted"],"probe_pitches":[2,5,10,5,0,10,5,7,12,0,5,7,5,12,2,5],"shifted_pitches":[2,5,10,5,0,10,5,7,13,0,5,7,5,12,2,5],"swapped_pitches":[2,5,10,5,0,10,5,12,7,0,5,7,5,12,2,5],"shift_direction":1,"question_num":71,"has_decoy":false},{"rt":350.5,"stimulus":"[A] option 1, [L] option 2, [G] neither","key_press":65,"name":"choice","trial_type":"html-keyboard-response","trial_index":98,"time_elapsed":219044,"internal_node_id":"0.0-98.0","subject":"S1C1616","sona":"41447","block":3,"time":"2021-09-16T15:21:29.987Z","response":"1st","certainty":"high","char":"A","transposition":-3,"order":["shifted","swapped"],"probe_pitches":[9,4,9,2,4,12,9,12,4,0,9,2,4,12,4,7],"shifted_pitches":[9,4,9,2,4,12,9,11,4,0,9,2,4,12,4,7],"swapped_pitches":[9,4,9,2,4,12,9,4,12,0,9,2,4,12,4,7],"shift_direction":-1,"question_num":81,"has_decoy":false},{"rt":392.90000000596046,"stimulus":"[A] option 1, [L] option 2, [G] neither","key_press":65,"name":"choice","trial_type":"html-keyboard-response","trial_index":109,"time_elapsed":241647,"internal_node_id":"0.0-109.0","subject":"S1C1616","sona":"41447","block":3,"time":"2021-09-16T15:21:29.987Z","response":"1st","certainty":"high","char":"A","transposition":0,"order":["shifted","swapped"],"probe_pitches":[0,2,5,9,12,9,2,5,7,12,9,5,9,12,0,2],"shifted_pitches":[0,2,5,9,12,9,2,6,7,12,9,5,9,12,0,2],"swapped_pitches":[0,2,5,9,12,9,2,7,5,12,9,5,9,12,0,2],"shift_direction":1,"question_num":91,"has_decoy":false},{"rt":487.90000000596046,"stimulus":"[A] option 1, [L] option 2, [G] neither","key_press":65,"name":"choice","trial_type":"html-keyboard-response","trial_index":120,"time_elapsed":264477,"internal_node_id":"0.0-120.0","subject":"S1C1616","sona":"41447","block":3,"time":"2021-09-16T15:21:29.987Z","response":"1st","certainty":"high","char":"A","transposition":1,"order":["swapped","shifted"],"probe_pitches":[6,12,9,12,14,4,7,14,15,9,5,8,12,6,12,4],"shifted_pitches":[6,12,9,12,14,4,7,13,15,9,5,8,12,6,12,4],"swapped_pitches":[6,12,9,12,14,4,7,15,14,9,5,8,12,6,12,4],"shift_direction":-1,"question_num":101,"has_decoy":false},{"rt":496.90000000596046,"stimulus":"[A] option 1, [L] option 2, [G] neither","key_press":71,"name":"choice","trial_type":"html-keyboard-response","trial_index":131,"time_elapsed":288486,"internal_node_id":"0.0-131.0","subject":"S1C1616","sona":"41447","block":3,"time":"2021-09-16T15:21:29.987Z","response":"neither","certainty":"high","char":"G","transposition":3,"order":["swapped","shifted"],"probe_pitches":[7,9,8,10,9,3,8,7,15,11,4,10,15,11,7,3],"shifted_pitches":[7,9,8,10,9,3,8,7,14,11,4,10,15,11,7,3],"swapped_pitches":[7,9,8,10,9,3,8,15,7,11,4,10,15,11,7,3],"shift_direction":-1,"question_num":111,"has_decoy":false},{"rt":997,"stimulus":"[A] option 1, [L] option 2, [G] neither","key_press":65,"name":"choice","trial_type":"html-keyboard-response","trial_index":142,"time_elapsed":311824,"internal_node_id":"0.0-142.0","subject":"S1C1616","sona":"41447","block":3,"time":"2021-09-16T15:21:29.987Z","response":"1st","certainty":"high","char":"A","transposition":1,"order":["shifted","swapped"],"probe_pitches":[0,3,0,3,5,8,3,0,8,5,12,8,10,12,3,5],"shifted_pitches":[0,3,0,3,5,8,3,0,7,5,12,8,10,12,3,5],"swapped_pitches":[0,3,0,3,5,8,3,8,0,5,12,8,10,12,3,5],"shift_direction":-1,"question_num":121,"has_decoy":false},{"rt":2193.7999999821186,"stimulus":"[A] option 1, [L] option 2, [G] neither","key_press":71,"name":"choice","trial_type":"html-keyboard-response","trial_index":153,"time_elapsed":336227,"internal_node_id":"0.0-153.0","subject":"S1C1616","sona":"41447","block":3,"time":"2021-09-16T15:21:29.987Z","response":"neither","certainty":"high","char":"G","transposition":-3,"order":["shifted","swapped"],"probe_pitches":[12,9,7,4,9,7,4,12,2,4,7,4,0,4,7,0],"shifted_pitches":[12,9,7,4,9,7,4,11,2,4,7,4,0,4,7,0],"swapped_pitches":[12,9,7,4,9,7,4,2,12,4,7,4,0,4,7,0],"shift_direction":-1,"question_num":131,"has_decoy":false},{"rt":457.2000000178814,"stimulus":"[A] option 1, [L] option 2, [G] neither","key_press":76,"name":"choice","trial_type":"html-keyboard-response","trial_index":164,"time_elapsed":359189,"internal_node_id":"0.0-164.0","subject":"S1C1616","sona":"41447","block":3,"time":"2021-09-16T15:21:29.987Z","response":"2nd","certainty":"high","char":"L","transposition":3,"order":["swapped","shifted"],"probe_pitches":[7,3,5,10,3,5,12,7,3,0,7,10,12,7,12,10],"shifted_pitches":[7,3,5,10,3,5,12,8,3,0,7,10,12,7,12,10],"swapped_pitches":[7,3,5,10,3,5,12,3,7,0,7,10,12,7,12,10],"shift_direction":1,"question_num":141,"has_decoy":false},{"rt":702.3000000119209,"stimulus":"[A] option 1, [L] option 2, [G] neither","key_press":65,"name":"choice","trial_type":"html-keyboard-response","trial_index":175,"time_elapsed":382198,"internal_node_id":"0.0-175.0","subject":"S1C1616","sona":"41447","block":3,"time":"2021-09-16T15:21:29.987Z","response":"1st","certainty":"high","char":"A","transposition":2,"order":["shifted","swapped"],"probe_pitches":[5,3,5,0,5,0,5,10,3,12,10,7,12,7,12,0],"shifted_pitches":[5,3,5,0,5,0,5,10,4,12,10,7,12,7,12,0],"swapped_pitches":[5,3,5,0,5,0,5,3,10,12,10,7,12,7,12,0],"shift_direction":1,"question_num":151,"has_decoy":false},{"rt":1351.800000011921,"stimulus":"[A] option 1, [L] option 2, [G] neither","key_press":76,"name":"choice","trial_type":"html-keyboard-response","trial_index":186,"time_elapsed":406992,"internal_node_id":"0.0-186.0","subject":"S1C1616","sona":"41447","block":3,"time":"2021-09-16T15:21:29.987Z","response":"2nd","certainty":"high","char":"L","transposition":0,"order":["swapped","shifted"],"probe_pitches":[8,12,5,6,15,5,7,9,3,12,6,15,9,5,9,4],"shifted_pitches":[8,12,5,6,15,5,7,10,3,12,6,15,9,5,9,4],"swapped_pitches":[8,12,5,6,15,5,7,3,9,12,6,15,9,5,9,4],"shift_direction":1,"question_num":161,"has_decoy":false},{"rt":1638.0999999940395,"stimulus":"[A] option 1, [L] option 2, [G] neither","key_press":76,"name":"choice","trial_type":"html-keyboard-response","trial_index":197,"time_elapsed":431054,"internal_node_id":"0.0-197.0","subject":"S1C1616","sona":"41447","block":3,"time":"2021-09-16T15:21:29.987Z","response":"2nd","certainty":"high","char":"L","transposition":-1,"order":["shifted","swapped"],"probe_pitches":[11,13,6,3,4,11,8,7,13,3,6,4,5,9,7,10],"shifted_pitches":[11,13,6,3,4,11,8,7,12,3,6,4,5,9,7,10],"swapped_pitches":[11,13,6,3,4,11,8,13,7,3,6,4,5,9,7,10],"shift_direction":-1,"question_num":171,"has_decoy":false},{"rt":1096.7999999821186,"stimulus":"[A] option 1, [L] option 2, [G] neither","key_press":76,"name":"choice","trial_type":"html-keyboard-response","trial_index":208,"time_elapsed":454567,"internal_node_id":"0.0-208.0","subject":"S1C1616","sona":"41447","block":3,"time":"2021-09-16T15:21:29.987Z","response":"2nd","certainty":"high","char":"L","transposition":-2,"order":["shifted","swapped"],"probe_pitches":[10,12,5,6,5,3,7,14,10,6,8,10,4,12,15,4],"shifted_pitches":[10,12,5,6,5,3,7,14,9,6,8,10,4,12,15,4],"swapped_pitches":[10,12,5,6,5,3,7,10,14,6,8,10,4,12,15,4],"shift_direction":-1,"question_num":181,"has_decoy":false},{"rt":472.30000001192093,"stimulus":"[A] option 1, [L] option 2, [G] neither","key_press":65,"name":"choice","trial_type":"html-keyboard-response","trial_index":219,"time_elapsed":477426,"internal_node_id":"0.0-219.0","subject":"S1C1616","sona":"41447","block":3,"time":"2021-09-16T15:21:29.987Z","response":"1st","certainty":"high","char":"A","transposition":-1,"order":["swapped","shifted"],"probe_pitches":[3,8,12,10,3,10,5,12,3,0,3,5,0,3,5,0],"shifted_pitches":[3,8,12,10,3,10,5,12,2,0,3,5,0,3,5,0],"swapped_pitches":[3,8,12,10,3,10,5,3,12,0,3,5,0,3,5,0],"shift_direction":-1,"question_num":191,"has_decoy":false}]