[{"rt":336.09999999403954,"stimulus":"[A] option 1, [L] option 2, [G] neither","key_press":71,"name":"choice","trial_type":"html-keyboard-response","trial_index":10,"time_elapsed":51032,"internal_node_id":"0.0-10.0","subject":"S1C1616","sona":"41447","block":4,"time":"2021-09-16T15:31:20.660Z","response":"neither","certainty":"high","char":"G","transposition":-1,"order":["shifted","swapped"],"probe_pitches":[13,7,10,8,4,10,15,14,8,3,14,5,15,13,14,10],"shifted_pitches":[13,7,10,8,4,10,15,14,9,3,14,5,15,13,14,10],"swapped_pitches":[13,7,10,8,4,10,15,8,14,3,14,5,15,13,14,10],"shift_direction":1,"question_num":1,"has_decoy":false},{"rt":650.5,"stimulus":"[A] option 1, [L] option 2, [G] neither","key_press":65,"name":"choice","trial_type":"html-keyboard-response","trial_index":21,"time_elapsed":75651,"internal_node_id":"0.0-21.0","subject":"S1C1616","sona":"41447","block":4,"time":"2021-09-16T15:31:20.660Z","response":"1st","certainty":"high","char":"A","transposition":-2,"order":["shifted","swapped"],"probe_pitches":[6,8,3,8,9,13,14,13,9,11,5,15,8,15,7,4],"shifted_pitches":[6,8,3,8,9,13,14,12,9,11,5,15,8,15,7,4],"swapped_pitches":[6,8,3,8,9,13,14,9,13,11,5,15,8,15,7,4],"shift_direction":-1,"question_num":11,"has_decoy":false},{"rt":368.7999999821186,"stimulus":"[A] option 1, [L] option 2, [G] neither","key_press":65,"name":"choice","trial_type":"html-keyboard-response","trial_index":32,"time_elapsed":98383,"internal_node_id":"0.0-32.0","subject":"S1C1616","sona":"41447","block":4,"time":"2021-09-16T15:31:20.660Z","response":"1st","certainty":"high","char":"A","transposition":-3,"order":["shifted","swapped"],"probe_pitches":[2,-3,4,-3,0,-3,4,9,2,0,2,4,7,-3,4,2],"shifted_pitches":[2,-3,4,-3,0,-3,4,9,3,0,2,4,7,-3,4,2],"swapped_pitches":[2,-3,4,-3,0,-3,4,2,9,0,2,4,7,-3,4,2],"shift_direction":1,"question_num":21,"has_decoy":false},{"rt":1488.5,"stimulus":"[A] option 1, [L] option 2, [G] neither","key_press":71,"name":"choice","trial_type":"html-keyboard-response","trial_index":43,"time_elapsed":122341,"internal_node_id":"0.0-43.0","subject":"S1C1616","sona":"41447","block":4,"time":"2021-09-16T15:31:20.660Z","response":"neither","certainty":"high","char":"G","transposition":3,"order":["swapped","shifted"],"probe_pitches":[6,7,6,10,6,12,4,13,3,7,4,6,13,3,5,9],"shifted_pitches":[6,7,6,10,6,12,4,14,3,7,4,6,13,3,5,9],"swapped_pitches":[6,7,6,10,6,12,4,3,13,7,4,6,13,3,5,9],"shift_direction":1,"question_num":31,"has_decoy":false},{"rt":406.2999999821186,"stimulus":"[A] option 1, [L] option 2, [G] neither","key_press":76,"name":"choice","trial_type":"html-keyboard-response","trial_index":54,"time_elapsed":145835,"internal_node_id":"0.0-54.0","subject":"S1C1616","sona":"41447","block":4,"time":"2021-09-16T15:31:20.660Z","response":"2nd","certainty":"high","char":"L","transposition":-2,"order":["swapped","shifted"],"probe_pitches":[4,6,2,9,4,2,6,9,-1,2,6,-1,-3,2,9,6],"shifted_pitches":[4,6,2,9,4,2,6,8,-1,2,6,-1,-3,2,9,6],"swapped_pitches":[4,6,2,9,4,2,6,-1,9,2,6,-1,-3,2,9,6],"shift_direction":-1,"question_num":41,"has_decoy":false},{"rt":1005,"stimulus":"[A] option 1, [L] option 2, [G] neither","key_press":76,"name":"choice","trial_type":"html-keyboard-response","trial_index":65,"time_elapsed":169597,"internal_node_id":"0.0-65.0","subject":"S1C1616","sona":"41447","block":4,"time":"2021-09-16T15:31:20.660Z","response":"2nd","certainty":"high","char":"L","transposition":-2,"order":["swapped","shifted"],"probe_pitches":[14,9,14,6,9,14,15,12,3,10,5,12,14,10,6,15],"shifted_pitches":[14,9,14,6,9,14,15,13,3,10,5,12,14,10,6,15],"swapped_pitches":[14,9,14,6,9,14,15,3,12,10,5,12,14,10,6,15],"shift_direction":1,"question_num":51,"has_decoy":false},{"rt":423.90000000596046,"stimulus":"[A] option 1, [L] option 2, [G] neither","key_press":65,"name":"choice","trial_type":"html-keyboard-response","trial_index":76,"time_elapsed":192382,"internal_node_id":"0.0-76.0","subject":"S1C1616","sona":"41447","block":4,"time":"2021-09-16T15:31:20.660Z","response":"1st","certainty":"high","char":"A","transposition":0,"order":["swapped","shifted"],"probe_pitches":[7,4,7,8,3,4,7,11,6,9,13,6,4,12,8,7],"shifted_pitches":[7,4,7,8,3,4,7,11,5,9,13,6,4,12,8,7],"swapped_pitches":[7,4,7,8,3,4,7,6,11,9,13,6,4,12,8,7],"shift_direction":-1,"question_num":61,"has_decoy":false},{"rt":347.80000001192093,"stimulus":"[A] option 1, [L] option 2, [G] neither","key_press":76,"name":"choice","trial_type":"html-keyboard-response","trial_index":87,"time_elapsed":215106,"internal_node_id":"0.0-87.0","subject":"S1C1616","sona":"41447","block":4,"time":"2021-09-16T15:31:20.660Z","response":"2nd","certainty":"high","char":"L","transposition":3,"order":["swapped","shifted"],"probe_pitches":[4,9,4,-1,-3,-1,6,9,1,6,-3,6,4,-1,1,9],"shifted_pitches":[4,9,4,-1,-3,-1,6,8,1,6,-3,6,4,-1,1,9],"swapped_pitches":[4,9,4,-1,-3,-1,6,1,9,6,-3,6,4,-1,1,9],"shift_direction":-1,"question_num":71,"has_decoy":false},{"rt":440,"stimulus":"[A] option 1, [L] option 2, [G] neither","key_press":65,"name":"choice","trial_type":"html-keyboard-response","trial_index":98,"time_elapsed":238414,"internal_node_id":"0.0-98.0","subject":"S1C1616","sona":"41447","block":4,"time":"2021-09-16T15:31:20.660Z","response":"1st","certainty":"high","char":"A","transposition":1,"order":["shifted","swapped"],"probe_pitches":[9,7,2,5,2,7,0,7,2,-3,5,-3,2,-3,0,7],"shifted_pitches":[9,7,2,5,2,7,0,8,2,-3,5,-3,2,-3,0,7],"swapped_pitches":[9,7,2,5,2,7,0,2,7,-3,5,-3,2,-3,0,7],"shift_direction":1,"question_num":81,"has_decoy":false},{"rt":930.3000000119209,"stimulus":"[A] option 1, [L] option 2, [G] neither","key_press":65,"name":"choice","trial_type":"html-keyboard-response","trial_index":109,"time_elapsed":262244,"internal_node_id":"0.0-109.0","subject":"S1C1616","sona":"41447","block":4,"time":"2021-09-16T15:31:20.660Z","response":"1st","certainty":"high","char":"A","transposition":-1,"order":["swapped","shifted"],"probe_pitches":[5,6,9,6,10,13,9,7,10,4,9,12,15,12,14,8],"shifted_pitches":[5,6,9,6,10,13,9,7,11,4,9,12,15,12,14,8],"swapped_pitches":[5,6,9,6,10,13,9,10,7,4,9,12,15,12,14,8],"shift_direction":1,"question_num":91,"has_decoy":false},{"rt":392,"stimulus":"[A] option 1, [L] option 2, [G] neither","key_press":65,"name":"choice","trial_type":"html-keyboard-response","trial_index":120,"time_elapsed":286554,"internal_node_id":"0.0-120.0","subject":"S1C1616","sona":"41447","block":4,"time":"2021-09-16T15:31:20.660Z","response":"1st","certainty":"high","char":"A","transposition":-3,"order":["shifted","swapped"],"probe_pitches":[6,4,-1,2,9,6,9,-3,6,9,6,4,6,4,6,-1],"shifted_pitches":[6,4,-1,2,9,6,9,-3,7,9,6,4,6,4,6,-1],"swapped_pitches":[6,4,-1,2,9,6,9,6,-3,9,6,4,6,4,6,-1],"shift_direction":1,"question_num":101,"has_decoy":false},{"rt":731.5999999940395,"stimulus":"[A] option 1, [L] option 2, [G] neither","key_press":65,"name":"choice","trial_type":"html-keyboard-response","trial_index":131,"time_elapsed":309721,"internal_node_id":"0.0-131.0","subject":"S1C1616","sona":"41447","block":4,"time":"2021-09-16T15:31:20.660Z","response":"1st","certainty":"high","char":"A","transposition":2,"order":["shifted","swapped"],"probe_pitches":[7,4,2,7,4,7,-1,2,9,-3,2,-3,2,4,7,2],"shifted_pitches":[7,4,2,7,4,7,-1,2,8,-3,2,-3,2,4,7,2],"swapped_pitches":[7,4,2,7,4,7,-1,9,2,-3,2,-3,2,4,7,2],"shift_direction":-1,"question_num":111,"has_decoy":false},{"rt":465.40000000596046,"stimulus":"[A] option 1, [L] option 2, [G] neither","key_press":71,"name":"choice","trial_type":"html-keyboard-response","trial_index":142,"time_elapsed":333775,"internal_node_id":"0.0-142.0","subject":"S1C1616","sona":"41447","block":4,"time":"2021-09-16T15:31:20.660Z","response":"neither","certainty":"high","char":"G","transposition":-3,"order":["shifted","swapped"],"probe_pitches":[12,10,5,3,11,10,14,4,7,9,4,7,11,15,14,13],"shifted_pitches":[12,10,5,3,11,10,14,4,6,9,4,7,11,15,14,13],"swapped_pitches":[12,10,5,3,11,10,14,7,4,9,4,7,11,15,14,13],"shift_direction":-1,"question_num":121,"has_decoy":false},{"rt":383.2999999821186,"stimulus":"[A] option 1, [L] option 2, [G] neither","key_press":76,"name":"choice","trial_type":"html-keyboard-response","trial_index":153,"time_elapsed":356707,"internal_node_id":"0.0-153.0","subject":"S1C1616","sona":"41447","block":4,"time":"2021-09-16T15:31:20.660Z","response":"2nd","certainty":"high","char":"L","transposition":-1,"order":["swapped","shifted"],"probe_pitches":[6,4,-1,1,-3,4,1,9,6,-3,-1,9,-3,6,1,6],"shifted_pitches":[6,4,-1,1,-3,4,1,8,6,-3,-1,9,-3,6,1,6],"swapped_pitches":[6,4,-1,1,-3,4,1,6,9,-3,-1,9,-3,6,1,6],"shift_direction":-1,"question_num":131,"has_decoy":false},{"rt":346.80000001192093,"stimulus":"[A] option 1, [L] option 2, [G] neither","key_press":76,"name":"choice","trial_type":"html-keyboard-response","trial_index":164,"time_elapsed":379412,"internal_node_id":"0.0-164.0","subject":"S1C1616","sona":"41447","block":4,"time":"2021-09-16T15:31:20.660Z","response":"2nd","certainty":"high","char":"L","transposition":-1,"order":["swapped","shifted"],"probe_pitches":[4,-1,2,-3,-1,-3,7,-3,4,2,7,-1,4,2,9,7],"shifted_pitches":[4,-1,2,-3,-1,-3,7,-3,5,2,7,-1,4,2,9,7],"swapped_pitches":[4,-1,2,-3,-1,-3,7,4,-3,2,7,-1,4,2,9,7],"shift_direction":1,"question_num":141,"has_decoy":false},{"rt":549,"stimulus":"[A] option 1, [L] option 2, [G] neither","key_press":71,"name":"choice","trial_type":"html-keyboard-response","trial_index":175,"time_elapsed":402521,"internal_node_id":"0.0-175.0","subject":"S1C1616","sona":"41447","block":4,"time":"2021-09-16T15:31:20.660Z","response":"neither","certainty":"high","char":"G","transposition":2,"order":["swapped","shifted"],"probe_pitches":[8,11,9,8,9,4,12,8,13,4,3,14,8,3,4,10],"shifted_pitches":[8,11,9,8,9,4,12,7,13,4,3,14,8,3,4,10],"swapped_pitches":[8,11,9,8,9,4,12,13,8,4,3,14,8,3,4,10],"shift_direction":-1,"question_num":151,"has_decoy":false},{"rt":459.40000000596046,"stimulus":"[A] option 1, [L] option 2, [G] neither","key_press":71,"name":"choice","trial_type":"html-keyboard-response","trial_index":186,"time_elapsed":428048,"internal_node_id":"0.0-186.0","subject":"S1C1616","sona":"41447","block":4,"time":"2021-09-16T15:31:20.660Z","response":"neither","certainty":"high","char":"G","transposition":1,"order":["shifted","swapped"],"probe_pitches":[3,9,4,5,9,4,9,12,7,14,6,15,13,5,3,6],"shifted_pitches":[3,9,4,5,9,4,9,12,8,14,6,15,13,5,3,6],"swapped_pitches":[3,9,4,5,9,4,9,7,12,14,6,15,13,5,3,6],"shift_direction":1,"question_num":161,"has_decoy":false},{"rt":552.7000000178814,"stimulus":"[A] option 1, [L] option 2, [G] neither","key_press":71,"name":"choice","trial_type":"html-keyboard-response","trial_index":197,"time_elapsed":450862,"internal_node_id":"0.0-197.0","subject":"S1C1616","sona":"41447","block":4,"time":"2021-09-16T15:31:20.660Z","response":"neither","certainty":"high","char":"G","transposition":-2,"order":["shifted","swapped"],"probe_pitches":[7,9,7,9,4,9,0,4,7,2,4,7,-3,9,-3,7],"shifted_pitches":[7,9,7,9,4,9,0,4,6,2,4,7,-3,9,-3,7],"swapped_pitches":[7,9,7,9,4,9,0,7,4,2,4,7,-3,9,-3,7],"shift_direction":-1,"question_num":171,"has_decoy":false},{"rt":561.5999999940395,"stimulus":"[A] option 1, [L] option 2, [G] neither","key_press":76,"name":"choice","trial_type":"html-keyboard-response","trial_index":208,"time_elapsed":473735,"internal_node_id":"0.0-208.0","subject":"S1C1616","sona":"41447","block":4,"time":"2021-09-16T15:31:20.660Z","response":"2nd","certainty":"high","char":"L","transposition":0,"order":["swapped","shifted"],"probe_pitches":[-3,2,7,5,-3,2,0,2,5,0,5,-3,5,0,-3,0],"shifted_pitches":[-3,2,7,5,-3,2,0,3,5,0,5,-3,5,0,-3,0],"swapped_pitches":[-3,2,7,5,-3,2,0,5,2,0,5,-3,5,0,-3,0],"shift_direction":1,"question_num":181,"has_decoy":false},{"rt":842.6999999880791,"stimulus":"[A] option 1, [L] option 2, [G] neither","key_press":76,"name":"choice","trial_type":"html-keyboard-response","trial_index":219,"time_elapsed":496833,"internal_node_id":"0.0-219.0","subject":"S1C1616","sona":"41447","block":4,"time":"2021-09-16T15:31:20.660Z","response":"2nd","certainty":"high","char":"L","transposition":-3,"order":["shifted","swapped"],"probe_pitches":[9,14,9,11,7,12,8,11,3,7,4,7,12,5,11,14],"shifted_pitches":[9,14,9,11,7,12,8,10,3,7,4,7,12,5,11,14],"swapped_pitches":[9,14,9,11,7,12,8,3,11,7,4,7,12,5,11,14],"shift_direction":-1,"question_num":191,"has_decoy":false}]