[{"rt":15.399999976158142,"stimulus":"[A] option 1, [L] option 2, [G] neither","key_press":65,"name":"choice","trial_type":"html-keyboard-response","trial_index":10,"time_elapsed":24691,"internal_node_id":"0.0-10.0","subject":"S1C1616","sona":"41447","block":6,"time":"2021-09-16T15:48:47.608Z","response":"1st","certainty":"high","char":"A","transposition":-1,"order":["shifted","swapped"],"probe_pitches":[-3,0,4,7,2,4,9,-3,7,2,-3,0,2,4,-3,2],"shifted_pitches":[-3,0,4,7,2,4,9,-3,6,2,-3,0,2,4,-3,2],"swapped_pitches":[-3,0,4,7,2,4,9,7,-3,2,-3,0,2,4,-3,2],"shift_direction":-1,"question_num":1,"has_decoy":false},{"rt":588.0999999940395,"stimulus":"[A] option 1, [L] option 2, [G] neither","key_press":71,"name":"choice","trial_type":"html-keyboard-response","trial_index":21,"time_elapsed":48726,"internal_node_id":"0.0-21.0","subject":"S1C1616","sona":"41447","block":6,"time":"2021-09-16T15:48:47.608Z","response":"neither","certainty":"high","char":"G","transposition":-3,"order":["shifted","swapped"],"probe_pitches":[12,9,6,10,11,3,11,2,5,12,9,6,5,6,7,8],"shifted_pitches":[12,9,6,10,11,3,11,2,4,12,9,6,5,6,7,8],"swapped_pitches":[12,9,6,10,11,3,11,5,2,12,9,6,5,6,7,8],"shift_direction":-1,"question_num":11,"has_decoy":false},{"rt":1397.7999999821186,"stimulus":"[A] option 1, [L] option 2, [G] neither","key_press":71,"name":"choice","trial_type":"html-keyboard-response","trial_index":32,"time_elapsed":72485,"internal_node_id":"0.0-32.0","subject":"S1C1616","sona":"41447","block":6,"time":"2021-09-16T15:48:47.608Z","response":"neither","certainty":"high","char":"G","transposition":-3,"order":["shifted","swapped"],"probe_pitches":[6,12,10,4,7,0,2,12,4,8,3,9,5,6,3,5],"shifted_pitches":[6,12,10,4,7,0,2,11,4,8,3,9,5,6,3,5],"swapped_pitches":[6,12,10,4,7,0,2,4,12,8,3,9,5,6,3,5],"shift_direction":-1,"question_num":21,"has_decoy":false},{"rt":2157.4000000059605,"stimulus":"[A] option 1, [L] option 2, [G] neither","key_press":71,"name":"choice","trial_type":"html-keyboard-response","trial_index":43,"time_elapsed":98542,"internal_node_id":"0.0-43.0","subject":"S1C1616","sona":"41447","block":6,"time":"2021-09-16T15:48:47.608Z","response":"neither","certainty":"high","char":"G","transposition":0,"order":["shifted","swapped"],"probe_pitches":[3,1,0,1,3,0,8,4,3,10,4,0,9,6,9,11],"shifted_pitches":[3,1,0,1,3,0,8,5,3,10,4,0,9,6,9,11],"swapped_pitches":[3,1,0,1,3,0,8,3,4,10,4,0,9,6,9,11],"shift_direction":1,"question_num":31,"has_decoy":false},{"rt":945.8000000119209,"stimulus":"[A] option 1, [L] option 2, [G] neither","key_press":65,"name":"choice","trial_type":"html-keyboard-response","trial_index":54,"time_elapsed":121831,"internal_node_id":"0.0-54.0","subject":"S1C1616","sona":"41447","block":6,"time":"2021-09-16T15:48:47.608Z","response":"1st","certainty":"high","char":"A","transposition":-1,"order":["swapped","shifted"],"probe_pitches":[8,4,6,4,10,9,2,8,4,10,7,2,0,1,0,7],"shifted_pitches":[8,4,6,4,10,9,2,8,3,10,7,2,0,1,0,7],"swapped_pitches":[8,4,6,4,10,9,2,4,8,10,7,2,0,1,0,7],"shift_direction":-1,"question_num":41,"has_decoy":false},{"rt":560.4000000059605,"stimulus":"[A] option 1, [L] option 2, [G] neither","key_press":76,"name":"choice","trial_type":"html-keyboard-response","trial_index":65,"time_elapsed":144844,"internal_node_id":"0.0-65.0","subject":"S1C1616","sona":"41447","block":6,"time":"2021-09-16T15:48:47.608Z","response":"2nd","certainty":"high","char":"L","transposition":-2,"order":["swapped","shifted"],"probe_pitches":[-3,2,7,9,2,-3,-1,7,2,-3,2,-1,2,-1,2,4],"shifted_pitches":[-3,2,7,9,2,-3,-1,7,1,-3,2,-1,2,-1,2,4],"swapped_pitches":[-3,2,7,9,2,-3,-1,2,7,-3,2,-1,2,-1,2,4],"shift_direction":-1,"question_num":51,"has_decoy":false},{"rt":316.09999999403954,"stimulus":"[A] option 1, [L] option 2, [G] neither","key_press":65,"name":"choice","trial_type":"html-keyboard-response","trial_index":76,"time_elapsed":167454,"internal_node_id":"0.0-76.0","subject":"S1C1616","sona":"41447","block":6,"time":"2021-09-16T15:48:47.608Z","response":"1st","certainty":"high","char":"A","transposition":1,"order":["swapped","shifted"],"probe_pitches":[3,0,4,2,3,5,8,3,6,11,0,9,4,3,11,6],"shifted_pitches":[3,0,4,2,3,5,8,3,7,11,0,9,4,3,11,6],"swapped_pitches":[3,0,4,2,3,5,8,6,3,11,0,9,4,3,11,6],"shift_direction":1,"question_num":61,"has_decoy":false},{"rt":384.40000000596046,"stimulus":"[A] option 1, [L] option 2, [G] neither","key_press":65,"name":"choice","trial_type":"html-keyboard-response","trial_index":87,"time_elapsed":190125,"internal_node_id":"0.0-87.0","subject":"S1C1616","sona":"41447","block":6,"time":"2021-09-16T15:48:47.608Z","response":"1st","certainty":"high","char":"A","transposition":-1,"order":["shifted","swapped"],"probe_pitches":[10,6,3,4,9,10,11,7,0,2,4,12,5,3,5,6],"shifted_pitches":[10,6,3,4,9,10,11,8,0,2,4,12,5,3,5,6],"swapped_pitches":[10,6,3,4,9,10,11,0,7,2,4,12,5,3,5,6],"shift_direction":1,"question_num":71,"has_decoy":false},{"rt":391.7000000178814,"stimulus":"[A] option 1, [L] option 2, [G] neither","key_press":65,"name":"choice","trial_type":"html-keyboard-response","trial_index":98,"time_elapsed":213231,"internal_node_id":"0.0-98.0","subject":"S1C1616","sona":"41447","block":6,"time":"2021-09-16T15:48:47.608Z","response":"1st","certainty":"high","char":"A","transposition":0,"order":["shifted","swapped"],"probe_pitches":[6,9,4,-3,6,1,-1,1,-3,6,-1,-3,4,1,9,4],"shifted_pitches":[6,9,4,-3,6,1,-1,1,-4,6,-1,-3,4,1,9,4],"swapped_pitches":[6,9,4,-3,6,1,-1,-3,1,6,-1,-3,4,1,9,4],"shift_direction":-1,"question_num":81,"has_decoy":false},{"rt":374.69999998807907,"stimulus":"[A] option 1, [L] option 2, [G] neither","key_press":76,"name":"choice","trial_type":"html-keyboard-response","trial_index":109,"time_elapsed":236068,"internal_node_id":"0.0-109.0","subject":"S1C1616","sona":"41447","block":6,"time":"2021-09-16T15:48:47.608Z","response":"2nd","certainty":"high","char":"L","transposition":1,"order":["swapped","shifted"],"probe_pitches":[2,4,7,2,9,7,4,2,9,7,0,-3,9,0,9,4],"shifted_pitches":[2,4,7,2,9,7,4,1,9,7,0,-3,9,0,9,4],"swapped_pitches":[2,4,7,2,9,7,4,9,2,7,0,-3,9,0,9,4],"shift_direction":-1,"question_num":91,"has_decoy":false},{"rt":364.30000001192093,"stimulus":"[A] option 1, [L] option 2, [G] neither","key_press":76,"name":"choice","trial_type":"html-keyboard-response","trial_index":120,"time_elapsed":258661,"internal_node_id":"0.0-120.0","subject":"S1C1616","sona":"41447","block":6,"time":"2021-09-16T15:48:47.608Z","response":"2nd","certainty":"high","char":"L","transposition":-1,"order":["swapped","shifted"],"probe_pitches":[2,-1,-3,2,-1,6,2,4,9,-1,4,2,6,-3,2,9],"shifted_pitches":[2,-1,-3,2,-1,6,2,3,9,-1,4,2,6,-3,2,9],"swapped_pitches":[2,-1,-3,2,-1,6,2,9,4,-1,4,2,6,-3,2,9],"shift_direction":-1,"question_num":101,"has_decoy":false},{"rt":378.7000000178814,"stimulus":"[A] option 1, [L] option 2, [G] neither","key_press":65,"name":"choice","trial_type":"html-keyboard-response","trial_index":131,"time_elapsed":281348,"internal_node_id":"0.0-131.0","subject":"S1C1616","sona":"41447","block":6,"time":"2021-09-16T15:48:47.608Z","response":"1st","certainty":"high","char":"A","transposition":-2,"order":["swapped","shifted"],"probe_pitches":[0,5,9,3,1,2,10,5,9,12,5,8,12,0,3,10],"shifted_pitches":[0,5,9,3,1,2,10,6,9,12,5,8,12,0,3,10],"swapped_pitches":[0,5,9,3,1,2,10,9,5,12,5,8,12,0,3,10],"shift_direction":1,"question_num":111,"has_decoy":false},{"rt":357,"stimulus":"[A] option 1, [L] option 2, [G] neither","key_press":76,"name":"choice","trial_type":"html-keyboard-response","trial_index":142,"time_elapsed":304121,"internal_node_id":"0.0-142.0","subject":"S1C1616","sona":"41447","block":6,"time":"2021-09-16T15:48:47.608Z","response":"2nd","certainty":"high","char":"L","transposition":-3,"order":["swapped","shifted"],"probe_pitches":[-3,2,9,4,-1,-3,7,2,4,7,-1,4,7,2,9,4],"shifted_pitches":[-3,2,9,4,-1,-3,7,3,4,7,-1,4,7,2,9,4],"swapped_pitches":[-3,2,9,4,-1,-3,7,4,2,7,-1,4,7,2,9,4],"shift_direction":1,"question_num":121,"has_decoy":false},{"rt":316,"stimulus":"[A] option 1, [L] option 2, [G] neither","key_press":76,"name":"choice","trial_type":"html-keyboard-response","trial_index":153,"time_elapsed":326769,"internal_node_id":"0.0-153.0","subject":"S1C1616","sona":"41447","block":6,"time":"2021-09-16T15:48:47.608Z","response":"2nd","certainty":"high","char":"L","transposition":-2,"order":["swapped","shifted"],"probe_pitches":[4,1,6,-1,6,-3,6,-3,-1,4,6,-1,-3,6,4,1],"shifted_pitches":[4,1,6,-1,6,-3,6,-2,-1,4,6,-1,-3,6,4,1],"swapped_pitches":[4,1,6,-1,6,-3,6,-1,-3,4,6,-1,-3,6,4,1],"shift_direction":1,"question_num":131,"has_decoy":false},{"rt":821.5,"stimulus":"[A] option 1, [L] option 2, [G] neither","key_press":65,"name":"choice","trial_type":"html-keyboard-response","trial_index":164,"time_elapsed":349893,"internal_node_id":"0.0-164.0","subject":"S1C1616","sona":"41447","block":6,"time":"2021-09-16T15:48:47.608Z","response":"1st","certainty":"high","char":"A","transposition":3,"order":["shifted","swapped"],"probe_pitches":[7,2,-3,0,7,2,5,-3,9,0,2,7,2,5,7,-3],"shifted_pitches":[7,2,-3,0,7,2,5,-3,10,0,2,7,2,5,7,-3],"swapped_pitches":[7,2,-3,0,7,2,5,9,-3,0,2,7,2,5,7,-3],"shift_direction":1,"question_num":141,"has_decoy":false},{"rt":317.30000001192093,"stimulus":"[A] option 1, [L] option 2, [G] neither","key_press":71,"name":"choice","trial_type":"html-keyboard-response","trial_index":175,"time_elapsed":374686,"internal_node_id":"0.0-175.0","subject":"S1C1616","sona":"41447","block":6,"time":"2021-09-16T15:48:47.608Z","response":"neither","certainty":"high","char":"G","transposition":3,"order":["swapped","shifted"],"probe_pitches":[11,10,9,7,3,6,7,5,1,6,11,10,7,5,12,0],"shifted_pitches":[11,10,9,7,3,6,7,5,2,6,11,10,7,5,12,0],"swapped_pitches":[11,10,9,7,3,6,7,1,5,6,11,10,7,5,12,0],"shift_direction":1,"question_num":151,"has_decoy":false},{"rt":1342.199999988079,"stimulus":"[A] option 1, [L] option 2, [G] neither","key_press":76,"name":"choice","trial_type":"html-keyboard-response","trial_index":186,"time_elapsed":399071,"internal_node_id":"0.0-186.0","subject":"S1C1616","sona":"41447","block":6,"time":"2021-09-16T15:48:47.608Z","response":"2nd","certainty":"high","char":"L","transposition":2,"order":["shifted","swapped"],"probe_pitches":[7,5,1,4,1,2,8,5,10,4,6,11,5,2,7,3],"shifted_pitches":[7,5,1,4,1,2,8,5,9,4,6,11,5,2,7,3],"swapped_pitches":[7,5,1,4,1,2,8,10,5,4,6,11,5,2,7,3],"shift_direction":-1,"question_num":161,"has_decoy":false},{"rt":4927.600000023842,"stimulus":"[A] option 1, [L] option 2, [G] neither","key_press":71,"name":"choice","trial_type":"html-keyboard-response","trial_index":197,"time_elapsed":426299,"internal_node_id":"0.0-197.0","subject":"S1C1616","sona":"41447","block":6,"time":"2021-09-16T15:48:47.608Z","response":"neither","certainty":"high","char":"G","transposition":-3,"order":["shifted","swapped"],"probe_pitches":[2,0,5,9,0,2,7,2,9,0,7,5,9,0,9,2],"shifted_pitches":[2,0,5,9,0,2,7,3,9,0,7,5,9,0,9,2],"swapped_pitches":[2,0,5,9,0,2,7,9,2,0,7,5,9,0,9,2],"shift_direction":1,"question_num":171,"has_decoy":false},{"rt":338.10000002384186,"stimulus":"[A] option 1, [L] option 2, [G] neither","key_press":65,"name":"choice","trial_type":"html-keyboard-response","trial_index":208,"time_elapsed":448969,"internal_node_id":"0.0-208.0","subject":"S1C1616","sona":"41447","block":6,"time":"2021-09-16T15:48:47.608Z","response":"1st","certainty":"high","char":"A","transposition":2,"order":["shifted","swapped"],"probe_pitches":[-3,2,6,9,6,9,-1,2,4,-1,6,2,4,-1,-3,6],"shifted_pitches":[-3,2,6,9,6,9,-1,2,5,-1,6,2,4,-1,-3,6],"swapped_pitches":[-3,2,6,9,6,9,-1,4,2,-1,6,2,4,-1,-3,6],"shift_direction":1,"question_num":181,"has_decoy":false},{"rt":460.40000000596046,"stimulus":"[A] option 1, [L] option 2, [G] neither","key_press":76,"name":"choice","trial_type":"html-keyboard-response","trial_index":219,"time_elapsed":471854,"internal_node_id":"0.0-219.0","subject":"S1C1616","sona":"41447","block":6,"time":"2021-09-16T15:48:47.608Z","response":"2nd","certainty":"high","char":"L","transposition":-2,"order":["swapped","shifted"],"probe_pitches":[4,6,4,6,9,1,9,11,0,12,3,11,5,6,11,9],"shifted_pitches":[4,6,4,6,9,1,9,10,0,12,3,11,5,6,11,9],"swapped_pitches":[4,6,4,6,9,1,9,0,11,12,3,11,5,6,11,9],"shift_direction":-1,"question_num":191,"has_decoy":false}]