[{"rt":936.9000000003725,"stimulus":"[A] option 1, [L] option 2, [G] neither","key_press":76,"name":"choice","trial_type":"html-keyboard-response","trial_index":10,"time_elapsed":18476,"internal_node_id":"0.0-10.0","subject":"S1C0813","sona":"41857","block":2,"time":"2021-09-15T15:43:27.116Z","response":"2nd","certainty":"high","char":"L","transposition":2,"order":["swapped","shifted"],"probe_pitches":[9,11,6,9,2,4,-1,4],"shifted_pitches":[9,11,6,10,2,4,-1,4],"swapped_pitches":[9,11,6,2,9,4,-1,4],"shift_direction":1,"question_num":1,"has_decoy":false},{"rt":1137.0999999996275,"stimulus":"[A] option 1, [L] option 2, [G] neither","key_press":76,"name":"choice","trial_type":"html-keyboard-response","trial_index":21,"time_elapsed":34228,"internal_node_id":"0.0-21.0","subject":"S1C0813","sona":"41857","block":2,"time":"2021-09-15T15:43:27.116Z","response":"2nd","certainty":"high","char":"L","transposition":-3,"order":["swapped","shifted"],"probe_pitches":[-1,4,2,4,11,7,9,4],"shifted_pitches":[-1,4,2,4,10,7,9,4],"swapped_pitches":[-1,4,2,11,4,7,9,4],"shift_direction":-1,"question_num":11,"has_decoy":false},{"rt":1444,"stimulus":"[A] option 1, [L] option 2, [G] neither","key_press":65,"name":"choice","trial_type":"html-keyboard-response","trial_index":32,"time_elapsed":50289,"internal_node_id":"0.0-32.0","subject":"S1C0813","sona":"41857","block":2,"time":"2021-09-15T15:43:27.116Z","response":"1st","certainty":"high","char":"A","transposition":-3,"order":["swapped","shifted"],"probe_pitches":[9,11,9,2,4,7,-1,2],"shifted_pitches":[9,11,9,3,4,7,-1,2],"swapped_pitches":[9,11,9,4,2,7,-1,2],"shift_direction":1,"question_num":21,"has_decoy":false},{"rt":8060,"stimulus":"[A] option 1, [L] option 2, [G] neither","key_press":71,"name":"choice","trial_type":"html-keyboard-response","trial_index":43,"time_elapsed":73101,"internal_node_id":"0.0-43.0","subject":"S1C0813","sona":"41857","block":2,"time":"2021-09-15T15:43:27.116Z","response":"neither","certainty":"high","char":"G","transposition":3,"order":["shifted","swapped"],"probe_pitches":[4,6,3,0,9,7,2,5],"shifted_pitches":[4,6,3,-1,9,7,2,5],"swapped_pitches":[4,6,3,9,0,7,2,5],"shift_direction":-1,"question_num":31,"has_decoy":false},{"rt":2189.5,"stimulus":"[A] option 1, [L] option 2, [G] neither","key_press":76,"name":"choice","trial_type":"html-keyboard-response","trial_index":54,"time_elapsed":89652,"internal_node_id":"0.0-54.0","subject":"S1C0813","sona":"41857","block":2,"time":"2021-09-15T15:43:27.116Z","response":"2nd","certainty":"high","char":"L","transposition":0,"order":["shifted","swapped"],"probe_pitches":[4,3,2,3,5,8,-1,7],"shifted_pitches":[4,3,2,3,6,8,-1,7],"swapped_pitches":[4,3,2,5,3,8,-1,7],"shift_direction":1,"question_num":41,"has_decoy":false},{"rt":3689.9000000003725,"stimulus":"[A] option 1, [L] option 2, [G] neither","key_press":71,"name":"choice","trial_type":"html-keyboard-response","trial_index":65,"time_elapsed":107862,"internal_node_id":"0.0-65.0","subject":"S1C0813","sona":"41857","block":2,"time":"2021-09-15T15:43:27.116Z","response":"neither","certainty":"high","char":"G","transposition":-1,"order":["shifted","swapped"],"probe_pitches":[2,6,-1,6,4,-1,9,11],"shifted_pitches":[2,6,-1,6,3,-1,9,11],"swapped_pitches":[2,6,-1,4,6,-1,9,11],"shift_direction":-1,"question_num":51,"has_decoy":false},{"rt":482.09999999962747,"stimulus":"[A] option 1, [L] option 2, [G] neither","key_press":65,"name":"choice","trial_type":"html-keyboard-response","trial_index":76,"time_elapsed":123223,"internal_node_id":"0.0-76.0","subject":"S1C0813","sona":"41857","block":2,"time":"2021-09-15T15:43:27.116Z","response":"1st","certainty":"high","char":"A","transposition":2,"order":["shifted","swapped"],"probe_pitches":[-2,2,1,4,-3,-2,8,1],"shifted_pitches":[-2,2,1,3,-3,-2,8,1],"swapped_pitches":[-2,2,1,-3,4,-2,8,1],"shift_direction":-1,"question_num":61,"has_decoy":false},{"rt":1008.6999999992549,"stimulus":"[A] option 1, [L] option 2, [G] neither","key_press":71,"name":"choice","trial_type":"html-keyboard-response","trial_index":87,"time_elapsed":138682,"internal_node_id":"0.0-87.0","subject":"S1C0813","sona":"41857","block":2,"time":"2021-09-15T15:43:27.116Z","response":"neither","certainty":"high","char":"G","transposition":-2,"order":["swapped","shifted"],"probe_pitches":[-1,1,7,0,6,9,6,8],"shifted_pitches":[-1,1,7,0,5,9,6,8],"swapped_pitches":[-1,1,7,6,0,9,6,8],"shift_direction":-1,"question_num":71,"has_decoy":false},{"rt":829,"stimulus":"[A] option 1, [L] option 2, [G] neither","key_press":65,"name":"choice","trial_type":"html-keyboard-response","trial_index":98,"time_elapsed":154363,"internal_node_id":"0.0-98.0","subject":"S1C0813","sona":"41857","block":2,"time":"2021-09-15T15:43:27.116Z","response":"1st","certainty":"high","char":"A","transposition":-3,"order":["shifted","swapped"],"probe_pitches":[-3,3,-3,3,-1,6,3,8],"shifted_pitches":[-3,3,-3,3,0,6,3,8],"swapped_pitches":[-3,3,-3,-1,3,6,3,8],"shift_direction":1,"question_num":81,"has_decoy":false},{"rt":1312.4000000003725,"stimulus":"[A] option 1, [L] option 2, [G] neither","key_press":71,"name":"choice","trial_type":"html-keyboard-response","trial_index":109,"time_elapsed":170222,"internal_node_id":"0.0-109.0","subject":"S1C0813","sona":"41857","block":2,"time":"2021-09-15T15:43:27.116Z","response":"neither","certainty":"high","char":"G","transposition":1,"order":["swapped","shifted"],"probe_pitches":[6,1,4,-1,1,9,4,-1],"shifted_pitches":[6,1,4,-1,2,9,4,-1],"swapped_pitches":[6,1,4,1,-1,9,4,-1],"shift_direction":1,"question_num":91,"has_decoy":false},{"rt":1075.4000000003725,"stimulus":"[A] option 1, [L] option 2, [G] neither","key_press":65,"name":"choice","trial_type":"html-keyboard-response","trial_index":120,"time_elapsed":185804,"internal_node_id":"0.0-120.0","subject":"S1C0813","sona":"41857","block":2,"time":"2021-09-15T15:43:27.116Z","response":"1st","certainty":"high","char":"A","transposition":0,"order":["shifted","swapped"],"probe_pitches":[9,6,-1,4,1,9,6,-1],"shifted_pitches":[9,6,-1,3,1,9,6,-1],"swapped_pitches":[9,6,-1,1,4,9,6,-1],"shift_direction":-1,"question_num":101,"has_decoy":false},{"rt":1855.800000000745,"stimulus":"[A] option 1, [L] option 2, [G] neither","key_press":65,"name":"choice","trial_type":"html-keyboard-response","trial_index":131,"time_elapsed":202780,"internal_node_id":"0.0-131.0","subject":"S1C0813","sona":"41857","block":2,"time":"2021-09-15T15:43:27.116Z","response":"1st","certainty":"high","char":"A","transposition":1,"order":["swapped","shifted"],"probe_pitches":[6,8,4,-2,6,0,-3,0],"shifted_pitches":[6,8,4,-2,7,0,-3,0],"swapped_pitches":[6,8,4,6,-2,0,-3,0],"shift_direction":1,"question_num":111,"has_decoy":false},{"rt":769.5999999996275,"stimulus":"[A] option 1, [L] option 2, [G] neither","key_press":71,"name":"choice","trial_type":"html-keyboard-response","trial_index":142,"time_elapsed":218440,"internal_node_id":"0.0-142.0","subject":"S1C0813","sona":"41857","block":2,"time":"2021-09-15T15:43:27.116Z","response":"neither","certainty":"high","char":"G","transposition":-1,"order":["shifted","swapped"],"probe_pitches":[5,6,9,3,-1,9,4,-3],"shifted_pitches":[5,6,9,2,-1,9,4,-3],"swapped_pitches":[5,6,9,-1,3,9,4,-3],"shift_direction":-1,"question_num":121,"has_decoy":false},{"rt":1637.9000000003725,"stimulus":"[A] option 1, [L] option 2, [G] neither","key_press":71,"name":"choice","trial_type":"html-keyboard-response","trial_index":153,"time_elapsed":234732,"internal_node_id":"0.0-153.0","subject":"S1C0813","sona":"41857","block":2,"time":"2021-09-15T15:43:27.116Z","response":"neither","certainty":"high","char":"G","transposition":-2,"order":["shifted","swapped"],"probe_pitches":[3,8,6,3,1,8,-1,11],"shifted_pitches":[3,8,6,2,1,8,-1,11],"swapped_pitches":[3,8,6,1,3,8,-1,11],"shift_direction":-1,"question_num":131,"has_decoy":false},{"rt":867.0999999996275,"stimulus":"[A] option 1, [L] option 2, [G] neither","key_press":65,"name":"choice","trial_type":"html-keyboard-response","trial_index":164,"time_elapsed":251454,"internal_node_id":"0.0-164.0","subject":"S1C0813","sona":"41857","block":2,"time":"2021-09-15T15:43:27.116Z","response":"1st","certainty":"high","char":"A","transposition":-2,"order":["swapped","shifted"],"probe_pitches":[6,0,6,-2,7,-1,4,6],"shifted_pitches":[6,0,6,-2,8,-1,4,6],"swapped_pitches":[6,0,6,7,-2,-1,4,6],"shift_direction":1,"question_num":141,"has_decoy":false},{"rt":1110.199999999255,"stimulus":"[A] option 1, [L] option 2, [G] neither","key_press":76,"name":"choice","trial_type":"html-keyboard-response","trial_index":175,"time_elapsed":267392,"internal_node_id":"0.0-175.0","subject":"S1C0813","sona":"41857","block":2,"time":"2021-09-15T15:43:27.116Z","response":"2nd","certainty":"high","char":"L","transposition":-1,"order":["swapped","shifted"],"probe_pitches":[7,4,0,2,4,7,4,7],"shifted_pitches":[7,4,0,1,4,7,4,7],"swapped_pitches":[7,4,0,4,2,7,4,7],"shift_direction":-1,"question_num":151,"has_decoy":false},{"rt":1080.0999999996275,"stimulus":"[A] option 1, [L] option 2, [G] neither","key_press":65,"name":"choice","trial_type":"html-keyboard-response","trial_index":186,"time_elapsed":283543,"internal_node_id":"0.0-186.0","subject":"S1C0813","sona":"41857","block":2,"time":"2021-09-15T15:43:27.116Z","response":"1st","certainty":"high","char":"A","transposition":-1,"order":["shifted","swapped"],"probe_pitches":[-1,4,1,4,6,8,6,11],"shifted_pitches":[-1,4,1,4,5,8,6,11],"swapped_pitches":[-1,4,1,6,4,8,6,11],"shift_direction":-1,"question_num":161,"has_decoy":false},{"rt":552.2000000011176,"stimulus":"[A] option 1, [L] option 2, [G] neither","key_press":76,"name":"choice","trial_type":"html-keyboard-response","trial_index":197,"time_elapsed":302076,"internal_node_id":"0.0-197.0","subject":"S1C0813","sona":"41857","block":2,"time":"2021-09-15T15:43:27.116Z","response":"2nd","certainty":"high","char":"L","transposition":-3,"order":["swapped","shifted"],"probe_pitches":[-2,1,8,3,-1,7,-3,5],"shifted_pitches":[-2,1,8,4,-1,7,-3,5],"swapped_pitches":[-2,1,8,-1,3,7,-3,5],"shift_direction":1,"question_num":171,"has_decoy":false},{"rt":1134.5999999996275,"stimulus":"[A] option 1, [L] option 2, [G] neither","key_press":65,"name":"choice","trial_type":"html-keyboard-response","trial_index":208,"time_elapsed":317729,"internal_node_id":"0.0-208.0","subject":"S1C0813","sona":"41857","block":2,"time":"2021-09-15T15:43:27.116Z","response":"1st","certainty":"high","char":"A","transposition":3,"order":["shifted","swapped"],"probe_pitches":[6,3,1,6,3,11,6,8],"shifted_pitches":[6,3,1,7,3,11,6,8],"swapped_pitches":[6,3,1,3,6,11,6,8],"shift_direction":1,"question_num":181,"has_decoy":false},{"rt":7559.0999999996275,"stimulus":"[A] option 1, [L] option 2, [G] neither","key_press":76,"name":"choice","trial_type":"html-keyboard-response","trial_index":219,"time_elapsed":341300,"internal_node_id":"0.0-219.0","subject":"S1C0813","sona":"41857","block":2,"time":"2021-09-15T15:43:27.116Z","response":"2nd","certainty":"high","char":"L","transposition":-2,"order":["swapped","shifted"],"probe_pitches":[1,-1,6,11,8,4,-1,4],"shifted_pitches":[1,-1,6,11,9,4,-1,4],"swapped_pitches":[1,-1,6,8,11,4,-1,4],"shift_direction":1,"question_num":191,"has_decoy":false}]