[{"rt":4034.199999999255,"stimulus":"[A] option 1, [L] option 2, [G] neither","key_press":65,"name":"choice","trial_type":"html-keyboard-response","trial_index":10,"time_elapsed":23261,"internal_node_id":"0.0-10.0","subject":"S1C0813","sona":"41857","block":3,"time":"2021-09-15T15:49:35.064Z","response":"1st","certainty":"high","char":"A","transposition":3,"order":["shifted","swapped"],"probe_pitches":[3,5,10,8,15,12,15,10],"shifted_pitches":[3,5,10,8,14,12,15,10],"swapped_pitches":[3,5,10,15,8,12,15,10],"shift_direction":-1,"question_num":1,"has_decoy":false},{"rt":3988.7000000011176,"stimulus":"[A] option 1, [L] option 2, [G] neither","key_press":76,"name":"choice","trial_type":"html-keyboard-response","trial_index":21,"time_elapsed":42404,"internal_node_id":"0.0-21.0","subject":"S1C0813","sona":"41857","block":3,"time":"2021-09-15T15:49:35.064Z","response":"2nd","certainty":"high","char":"L","transposition":0,"order":["swapped","shifted"],"probe_pitches":[15,13,10,3,8,5,10,13],"shifted_pitches":[15,13,10,3,7,5,10,13],"swapped_pitches":[15,13,10,8,3,5,10,13],"shift_direction":-1,"question_num":11,"has_decoy":false},{"rt":1704.8999999985099,"stimulus":"[A] option 1, [L] option 2, [G] neither","key_press":71,"name":"choice","trial_type":"html-keyboard-response","trial_index":32,"time_elapsed":61379,"internal_node_id":"0.0-32.0","subject":"S1C0813","sona":"41857","block":3,"time":"2021-09-15T15:49:35.064Z","response":"neither","certainty":"high","char":"G","transposition":3,"order":["shifted","swapped"],"probe_pitches":[9,6,1,9,2,0,9,1],"shifted_pitches":[9,6,1,8,2,0,9,1],"swapped_pitches":[9,6,1,2,9,0,9,1],"shift_direction":-1,"question_num":21,"has_decoy":false},{"rt":663.1999999992549,"stimulus":"[A] option 1, [L] option 2, [G] neither","key_press":76,"name":"choice","trial_type":"html-keyboard-response","trial_index":43,"time_elapsed":85259,"internal_node_id":"0.0-43.0","subject":"S1C0813","sona":"41857","block":3,"time":"2021-09-15T15:49:35.064Z","response":"2nd","certainty":"high","char":"L","transposition":-1,"order":["swapped","shifted"],"probe_pitches":[6,10,3,8,13,10,8,15],"shifted_pitches":[6,10,3,8,14,10,8,15],"swapped_pitches":[6,10,3,13,8,10,8,15],"shift_direction":1,"question_num":31,"has_decoy":false},{"rt":763,"stimulus":"[A] option 1, [L] option 2, [G] neither","key_press":76,"name":"choice","trial_type":"html-keyboard-response","trial_index":54,"time_elapsed":101684,"internal_node_id":"0.0-54.0","subject":"S1C0813","sona":"41857","block":3,"time":"2021-09-15T15:49:35.064Z","response":"2nd","certainty":"high","char":"L","transposition":-1,"order":["shifted","swapped"],"probe_pitches":[11,7,9,1,10,8,7,10],"shifted_pitches":[11,7,9,2,10,8,7,10],"swapped_pitches":[11,7,9,10,1,8,7,10],"shift_direction":1,"question_num":41,"has_decoy":false},{"rt":1149.1000000014901,"stimulus":"[A] option 1, [L] option 2, [G] neither","key_press":65,"name":"choice","trial_type":"html-keyboard-response","trial_index":65,"time_elapsed":117599,"internal_node_id":"0.0-65.0","subject":"S1C0813","sona":"41857","block":3,"time":"2021-09-15T15:49:35.064Z","response":"1st","certainty":"high","char":"A","transposition":2,"order":["shifted","swapped"],"probe_pitches":[3,7,10,12,3,5,12,7],"shifted_pitches":[3,7,10,12,4,5,12,7],"swapped_pitches":[3,7,10,3,12,5,12,7],"shift_direction":1,"question_num":51,"has_decoy":false},{"rt":2430.7000000011176,"stimulus":"[A] option 1, [L] option 2, [G] neither","key_press":71,"name":"choice","trial_type":"html-keyboard-response","trial_index":76,"time_elapsed":134704,"internal_node_id":"0.0-76.0","subject":"S1C0813","sona":"41857","block":3,"time":"2021-09-15T15:49:35.064Z","response":"neither","certainty":"high","char":"G","transposition":-2,"order":["swapped","shifted"],"probe_pitches":[1,5,4,7,0,3,10,8],"shifted_pitches":[1,5,4,6,0,3,10,8],"swapped_pitches":[1,5,4,0,7,3,10,8],"shift_direction":-1,"question_num":61,"has_decoy":false},{"rt":6682.800000000745,"stimulus":"[A] option 1, [L] option 2, [G] neither","key_press":71,"name":"choice","trial_type":"html-keyboard-response","trial_index":87,"time_elapsed":156769,"internal_node_id":"0.0-87.0","subject":"S1C0813","sona":"41857","block":3,"time":"2021-09-15T15:49:35.064Z","response":"neither","certainty":"high","char":"G","transposition":-2,"order":["shifted","swapped"],"probe_pitches":[6,11,6,11,3,13,3,8],"shifted_pitches":[6,11,6,11,2,13,3,8],"swapped_pitches":[6,11,6,3,11,13,3,8],"shift_direction":-1,"question_num":71,"has_decoy":false},{"rt":2706.2000000011176,"stimulus":"[A] option 1, [L] option 2, [G] neither","key_press":76,"name":"choice","trial_type":"html-keyboard-response","trial_index":98,"time_elapsed":175378,"internal_node_id":"0.0-98.0","subject":"S1C0813","sona":"41857","block":3,"time":"2021-09-15T15:49:35.064Z","response":"2nd","certainty":"high","char":"L","transposition":-3,"order":["swapped","shifted"],"probe_pitches":[8,3,10,13,6,15,6,10],"shifted_pitches":[8,3,10,14,6,15,6,10],"swapped_pitches":[8,3,10,6,13,15,6,10],"shift_direction":1,"question_num":81,"has_decoy":false},{"rt":1691.0999999996275,"stimulus":"[A] option 1, [L] option 2, [G] neither","key_press":71,"name":"choice","trial_type":"html-keyboard-response","trial_index":109,"time_elapsed":200357,"internal_node_id":"0.0-109.0","subject":"S1C0813","sona":"41857","block":3,"time":"2021-09-15T15:49:35.064Z","response":"neither","certainty":"high","char":"G","transposition":2,"order":["shifted","swapped"],"probe_pitches":[3,2,3,4,6,8,5,-1],"shifted_pitches":[3,2,3,4,7,8,5,-1],"swapped_pitches":[3,2,3,6,4,8,5,-1],"shift_direction":1,"question_num":91,"has_decoy":false},{"rt":394.90000000037253,"stimulus":"[A] option 1, [L] option 2, [G] neither","key_press":76,"name":"choice","trial_type":"html-keyboard-response","trial_index":120,"time_elapsed":215140,"internal_node_id":"0.0-120.0","subject":"S1C0813","sona":"41857","block":3,"time":"2021-09-15T15:49:35.064Z","response":"2nd","certainty":"high","char":"L","transposition":1,"order":["swapped","shifted"],"probe_pitches":[1,2,3,11,4,7,10,4],"shifted_pitches":[1,2,3,11,5,7,10,4],"swapped_pitches":[1,2,3,4,11,7,10,4],"shift_direction":1,"question_num":101,"has_decoy":false},{"rt":1867.300000000745,"stimulus":"[A] option 1, [L] option 2, [G] neither","key_press":65,"name":"choice","trial_type":"html-keyboard-response","trial_index":131,"time_elapsed":231524,"internal_node_id":"0.0-131.0","subject":"S1C0813","sona":"41857","block":3,"time":"2021-09-15T15:49:35.064Z","response":"1st","certainty":"high","char":"A","transposition":-1,"order":["swapped","shifted"],"probe_pitches":[5,9,2,-1,1,11,2,-1],"shifted_pitches":[5,9,2,-2,1,11,2,-1],"swapped_pitches":[5,9,2,1,-1,11,2,-1],"shift_direction":-1,"question_num":111,"has_decoy":false},{"rt":2441.5,"stimulus":"[A] option 1, [L] option 2, [G] neither","key_press":71,"name":"choice","trial_type":"html-keyboard-response","trial_index":142,"time_elapsed":249004,"internal_node_id":"0.0-142.0","subject":"S1C0813","sona":"41857","block":3,"time":"2021-09-15T15:49:35.064Z","response":"neither","certainty":"high","char":"G","transposition":-2,"order":["swapped","shifted"],"probe_pitches":[8,3,6,3,8,13,11,8],"shifted_pitches":[8,3,6,4,8,13,11,8],"swapped_pitches":[8,3,6,8,3,13,11,8],"shift_direction":1,"question_num":121,"has_decoy":false},{"rt":397.30000000074506,"stimulus":"[A] option 1, [L] option 2, [G] neither","key_press":76,"name":"choice","trial_type":"html-keyboard-response","trial_index":153,"time_elapsed":264453,"internal_node_id":"0.0-153.0","subject":"S1C0813","sona":"41857","block":3,"time":"2021-09-15T15:49:35.064Z","response":"2nd","certainty":"high","char":"L","transposition":1,"order":["swapped","shifted"],"probe_pitches":[3,5,3,5,8,12,5,10],"shifted_pitches":[3,5,3,4,8,12,5,10],"swapped_pitches":[3,5,3,8,5,12,5,10],"shift_direction":-1,"question_num":131,"has_decoy":false},{"rt":709.9000000003725,"stimulus":"[A] option 1, [L] option 2, [G] neither","key_press":76,"name":"choice","trial_type":"html-keyboard-response","trial_index":164,"time_elapsed":279843,"internal_node_id":"0.0-164.0","subject":"S1C0813","sona":"41857","block":3,"time":"2021-09-15T15:49:35.064Z","response":"2nd","certainty":"high","char":"L","transposition":-2,"order":["shifted","swapped"],"probe_pitches":[9,5,-1,2,11,8,11,1],"shifted_pitches":[9,5,-1,3,11,8,11,1],"swapped_pitches":[9,5,-1,11,2,8,11,1],"shift_direction":1,"question_num":141,"has_decoy":false},{"rt":846.4000000003725,"stimulus":"[A] option 1, [L] option 2, [G] neither","key_press":71,"name":"choice","trial_type":"html-keyboard-response","trial_index":175,"time_elapsed":296112,"internal_node_id":"0.0-175.0","subject":"S1C0813","sona":"41857","block":3,"time":"2021-09-15T15:49:35.064Z","response":"neither","certainty":"high","char":"G","transposition":-1,"order":["shifted","swapped"],"probe_pitches":[8,5,10,13,8,15,5,15],"shifted_pitches":[8,5,10,14,8,15,5,15],"swapped_pitches":[8,5,10,8,13,15,5,15],"shift_direction":1,"question_num":151,"has_decoy":false},{"rt":1554.7000000011176,"stimulus":"[A] option 1, [L] option 2, [G] neither","key_press":71,"name":"choice","trial_type":"html-keyboard-response","trial_index":186,"time_elapsed":313081,"internal_node_id":"0.0-186.0","subject":"S1C0813","sona":"41857","block":3,"time":"2021-09-15T15:49:35.064Z","response":"neither","certainty":"high","char":"G","transposition":-3,"order":["shifted","swapped"],"probe_pitches":[-1,1,3,10,5,2,9,8],"shifted_pitches":[-1,1,3,10,4,2,9,8],"swapped_pitches":[-1,1,3,5,10,2,9,8],"shift_direction":-1,"question_num":161,"has_decoy":false},{"rt":4145.800000000745,"stimulus":"[A] option 1, [L] option 2, [G] neither","key_press":71,"name":"choice","trial_type":"html-keyboard-response","trial_index":197,"time_elapsed":332492,"internal_node_id":"0.0-197.0","subject":"S1C0813","sona":"41857","block":3,"time":"2021-09-15T15:49:35.064Z","response":"neither","certainty":"high","char":"G","transposition":0,"order":["swapped","shifted"],"probe_pitches":[11,8,2,3,10,6,3,6],"shifted_pitches":[11,8,2,3,9,6,3,6],"swapped_pitches":[11,8,2,10,3,6,3,6],"shift_direction":-1,"question_num":171,"has_decoy":false},{"rt":1462.5,"stimulus":"[A] option 1, [L] option 2, [G] neither","key_press":76,"name":"choice","trial_type":"html-keyboard-response","trial_index":208,"time_elapsed":348417,"internal_node_id":"0.0-208.0","subject":"S1C0813","sona":"41857","block":3,"time":"2021-09-15T15:49:35.064Z","response":"2nd","certainty":"high","char":"L","transposition":-3,"order":["shifted","swapped"],"probe_pitches":[7,10,7,5,3,10,3,12],"shifted_pitches":[7,10,7,4,3,10,3,12],"swapped_pitches":[7,10,7,3,5,10,3,12],"shift_direction":-1,"question_num":181,"has_decoy":false},{"rt":398.09999999962747,"stimulus":"[A] option 1, [L] option 2, [G] neither","key_press":76,"name":"choice","trial_type":"html-keyboard-response","trial_index":219,"time_elapsed":364445,"internal_node_id":"0.0-219.0","subject":"S1C0813","sona":"41857","block":3,"time":"2021-09-15T15:49:35.064Z","response":"2nd","certainty":"high","char":"L","transposition":-3,"order":["swapped","shifted"],"probe_pitches":[9,3,5,3,0,-1,4,3],"shifted_pitches":[9,3,5,3,1,-1,4,3],"swapped_pitches":[9,3,5,0,3,-1,4,3],"shift_direction":1,"question_num":191,"has_decoy":false}]