[{"rt":777.0999999996275,"stimulus":"[A] option 1, [L] option 2, [G] neither","key_press":76,"name":"choice","trial_type":"html-keyboard-response","trial_index":10,"time_elapsed":18857,"internal_node_id":"0.0-10.0","subject":"S1C0813","sona":"41857","block":6,"time":"2021-09-15T16:07:19.010Z","response":"2nd","certainty":"high","char":"L","transposition":1,"order":["swapped","shifted"],"probe_pitches":[11,8,6,3,7,8,11,9],"shifted_pitches":[11,8,6,4,7,8,11,9],"swapped_pitches":[11,8,6,7,3,8,11,9],"shift_direction":1,"question_num":1,"has_decoy":false},{"rt":835.0999999996275,"stimulus":"[A] option 1, [L] option 2, [G] neither","key_press":71,"name":"choice","trial_type":"html-keyboard-response","trial_index":21,"time_elapsed":34136,"internal_node_id":"0.0-21.0","subject":"S1C0813","sona":"41857","block":6,"time":"2021-09-15T16:07:19.010Z","response":"neither","certainty":"high","char":"G","transposition":-1,"order":["swapped","shifted"],"probe_pitches":[9,7,0,2,5,7,9,7],"shifted_pitches":[9,7,0,3,5,7,9,7],"swapped_pitches":[9,7,0,5,2,7,9,7],"shift_direction":1,"question_num":11,"has_decoy":false},{"rt":363.80000000074506,"stimulus":"[A] option 1, [L] option 2, [G] neither","key_press":76,"name":"choice","trial_type":"html-keyboard-response","trial_index":32,"time_elapsed":49371,"internal_node_id":"0.0-32.0","subject":"S1C0813","sona":"41857","block":6,"time":"2021-09-15T16:07:19.010Z","response":"2nd","certainty":"high","char":"L","transposition":-2,"order":["swapped","shifted"],"probe_pitches":[0,5,10,12,7,2,10,2],"shifted_pitches":[0,5,10,13,7,2,10,2],"swapped_pitches":[0,5,10,7,12,2,10,2],"shift_direction":1,"question_num":21,"has_decoy":false},{"rt":736.3000000007451,"stimulus":"[A] option 1, [L] option 2, [G] neither","key_press":71,"name":"choice","trial_type":"html-keyboard-response","trial_index":43,"time_elapsed":64484,"internal_node_id":"0.0-43.0","subject":"S1C0813","sona":"41857","block":6,"time":"2021-09-15T16:07:19.010Z","response":"neither","certainty":"high","char":"G","transposition":0,"order":["shifted","swapped"],"probe_pitches":[0,6,3,9,4,0,11,0],"shifted_pitches":[0,6,3,9,5,0,11,0],"swapped_pitches":[0,6,3,4,9,0,11,0],"shift_direction":1,"question_num":31,"has_decoy":false},{"rt":3504.9000000003725,"stimulus":"[A] option 1, [L] option 2, [G] neither","key_press":71,"name":"choice","trial_type":"html-keyboard-response","trial_index":54,"time_elapsed":82596,"internal_node_id":"0.0-54.0","subject":"S1C0813","sona":"41857","block":6,"time":"2021-09-15T16:07:19.010Z","response":"neither","certainty":"high","char":"G","transposition":-3,"order":["swapped","shifted"],"probe_pitches":[7,12,5,7,9,5,12,2],"shifted_pitches":[7,12,5,8,9,5,12,2],"swapped_pitches":[7,12,5,9,7,5,12,2],"shift_direction":1,"question_num":41,"has_decoy":false},{"rt":6090,"stimulus":"[A] option 1, [L] option 2, [G] neither","key_press":76,"name":"choice","trial_type":"html-keyboard-response","trial_index":65,"time_elapsed":103324,"internal_node_id":"0.0-65.0","subject":"S1C0813","sona":"41857","block":6,"time":"2021-09-15T16:07:19.010Z","response":"2nd","certainty":"high","char":"L","transposition":-2,"order":["swapped","shifted"],"probe_pitches":[7,9,2,0,9,7,2,4],"shifted_pitches":[7,9,2,0,10,7,2,4],"swapped_pitches":[7,9,2,9,0,7,2,4],"shift_direction":1,"question_num":51,"has_decoy":false},{"rt":2128.5,"stimulus":"[A] option 1, [L] option 2, [G] neither","key_press":71,"name":"choice","trial_type":"html-keyboard-response","trial_index":76,"time_elapsed":120578,"internal_node_id":"0.0-76.0","subject":"S1C0813","sona":"41857","block":6,"time":"2021-09-15T16:07:19.010Z","response":"neither","certainty":"high","char":"G","transposition":3,"order":["shifted","swapped"],"probe_pitches":[11,8,11,7,5,11,0,-1],"shifted_pitches":[11,8,11,6,5,11,0,-1],"swapped_pitches":[11,8,11,5,7,11,0,-1],"shift_direction":-1,"question_num":61,"has_decoy":false},{"rt":1364.300000000745,"stimulus":"[A] option 1, [L] option 2, [G] neither","key_press":71,"name":"choice","trial_type":"html-keyboard-response","trial_index":87,"time_elapsed":136523,"internal_node_id":"0.0-87.0","subject":"S1C0813","sona":"41857","block":6,"time":"2021-09-15T16:07:19.010Z","response":"neither","certainty":"high","char":"G","transposition":2,"order":["swapped","shifted"],"probe_pitches":[4,6,11,3,8,-1,3,0],"shifted_pitches":[4,6,11,2,8,-1,3,0],"swapped_pitches":[4,6,11,8,3,-1,3,0],"shift_direction":-1,"question_num":71,"has_decoy":false},{"rt":1224.5999999996275,"stimulus":"[A] option 1, [L] option 2, [G] neither","key_press":71,"name":"choice","trial_type":"html-keyboard-response","trial_index":98,"time_elapsed":153076,"internal_node_id":"0.0-98.0","subject":"S1C0813","sona":"41857","block":6,"time":"2021-09-15T16:07:19.010Z","response":"neither","certainty":"high","char":"G","transposition":-3,"order":["shifted","swapped"],"probe_pitches":[12,10,5,3,10,8,12,8],"shifted_pitches":[12,10,5,3,9,8,12,8],"swapped_pitches":[12,10,5,10,3,8,12,8],"shift_direction":-1,"question_num":81,"has_decoy":false},{"rt":12633.900000000373,"stimulus":"[A] option 1, [L] option 2, [G] neither","key_press":71,"name":"choice","trial_type":"html-keyboard-response","trial_index":109,"time_elapsed":181252,"internal_node_id":"0.0-109.0","subject":"S1C0813","sona":"41857","block":6,"time":"2021-09-15T16:07:19.010Z","response":"neither","certainty":"high","char":"G","transposition":-1,"order":["swapped","shifted"],"probe_pitches":[9,11,5,10,4,11,2,7],"shifted_pitches":[9,11,5,10,3,11,2,7],"swapped_pitches":[9,11,5,4,10,11,2,7],"shift_direction":-1,"question_num":91,"has_decoy":false},{"rt":1235.5999999996275,"stimulus":"[A] option 1, [L] option 2, [G] neither","key_press":71,"name":"choice","trial_type":"html-keyboard-response","trial_index":120,"time_elapsed":197938,"internal_node_id":"0.0-120.0","subject":"S1C0813","sona":"41857","block":6,"time":"2021-09-15T16:07:19.010Z","response":"neither","certainty":"high","char":"G","transposition":2,"order":["shifted","swapped"],"probe_pitches":[12,7,12,5,10,0,2,12],"shifted_pitches":[12,7,12,5,9,0,2,12],"swapped_pitches":[12,7,12,10,5,0,2,12],"shift_direction":-1,"question_num":101,"has_decoy":false},{"rt":1818.199999999255,"stimulus":"[A] option 1, [L] option 2, [G] neither","key_press":71,"name":"choice","trial_type":"html-keyboard-response","trial_index":131,"time_elapsed":223822,"internal_node_id":"0.0-131.0","subject":"S1C0813","sona":"41857","block":6,"time":"2021-09-15T16:07:19.010Z","response":"neither","certainty":"high","char":"G","transposition":-3,"order":["shifted","swapped"],"probe_pitches":[9,8,11,8,-1,0,6,4],"shifted_pitches":[9,8,11,7,-1,0,6,4],"swapped_pitches":[9,8,11,-1,8,0,6,4],"shift_direction":-1,"question_num":111,"has_decoy":false},{"rt":1257.4000000003725,"stimulus":"[A] option 1, [L] option 2, [G] neither","key_press":71,"name":"choice","trial_type":"html-keyboard-response","trial_index":142,"time_elapsed":240300,"internal_node_id":"0.0-142.0","subject":"S1C0813","sona":"41857","block":6,"time":"2021-09-15T16:07:19.010Z","response":"neither","certainty":"high","char":"G","transposition":3,"order":["shifted","swapped"],"probe_pitches":[3,0,5,12,10,8,12,5],"shifted_pitches":[3,0,5,12,11,8,12,5],"swapped_pitches":[3,0,5,10,12,8,12,5],"shift_direction":1,"question_num":121,"has_decoy":false},{"rt":3321.0999999996275,"stimulus":"[A] option 1, [L] option 2, [G] neither","key_press":76,"name":"choice","trial_type":"html-keyboard-response","trial_index":153,"time_elapsed":258581,"internal_node_id":"0.0-153.0","subject":"S1C0813","sona":"41857","block":6,"time":"2021-09-15T16:07:19.010Z","response":"2nd","certainty":"high","char":"L","transposition":1,"order":["swapped","shifted"],"probe_pitches":[10,12,7,12,10,0,5,3],"shifted_pitches":[10,12,7,12,9,0,5,3],"swapped_pitches":[10,12,7,10,12,0,5,3],"shift_direction":-1,"question_num":131,"has_decoy":false},{"rt":1070.7999999988824,"stimulus":"[A] option 1, [L] option 2, [G] neither","key_press":76,"name":"choice","trial_type":"html-keyboard-response","trial_index":164,"time_elapsed":275861,"internal_node_id":"0.0-164.0","subject":"S1C0813","sona":"41857","block":6,"time":"2021-09-15T16:07:19.010Z","response":"2nd","certainty":"high","char":"L","transposition":-1,"order":["swapped","shifted"],"probe_pitches":[3,9,7,2,0,-1,7,5],"shifted_pitches":[3,9,7,2,1,-1,7,5],"swapped_pitches":[3,9,7,0,2,-1,7,5],"shift_direction":1,"question_num":141,"has_decoy":false},{"rt":820,"stimulus":"[A] option 1, [L] option 2, [G] neither","key_press":76,"name":"choice","trial_type":"html-keyboard-response","trial_index":175,"time_elapsed":294959,"internal_node_id":"0.0-175.0","subject":"S1C0813","sona":"41857","block":6,"time":"2021-09-15T16:07:19.010Z","response":"2nd","certainty":"high","char":"L","transposition":-3,"order":["shifted","swapped"],"probe_pitches":[0,5,11,10,5,4,2,7],"shifted_pitches":[0,5,11,9,5,4,2,7],"swapped_pitches":[0,5,11,5,10,4,2,7],"shift_direction":-1,"question_num":151,"has_decoy":false},{"rt":954.3000000007451,"stimulus":"[A] option 1, [L] option 2, [G] neither","key_press":76,"name":"choice","trial_type":"html-keyboard-response","trial_index":186,"time_elapsed":310218,"internal_node_id":"0.0-186.0","subject":"S1C0813","sona":"41857","block":6,"time":"2021-09-15T16:07:19.010Z","response":"2nd","certainty":"high","char":"L","transposition":-2,"order":["swapped","shifted"],"probe_pitches":[2,0,3,11,9,3,8,0],"shifted_pitches":[2,0,3,11,10,3,8,0],"swapped_pitches":[2,0,3,9,11,3,8,0],"shift_direction":1,"question_num":161,"has_decoy":false},{"rt":2044.5999999996275,"stimulus":"[A] option 1, [L] option 2, [G] neither","key_press":71,"name":"choice","trial_type":"html-keyboard-response","trial_index":197,"time_elapsed":329201,"internal_node_id":"0.0-197.0","subject":"S1C0813","sona":"41857","block":6,"time":"2021-09-15T16:07:19.010Z","response":"neither","certainty":"high","char":"G","transposition":-1,"order":["shifted","swapped"],"probe_pitches":[4,9,2,7,9,4,12,2],"shifted_pitches":[4,9,2,6,9,4,12,2],"swapped_pitches":[4,9,2,9,7,4,12,2],"shift_direction":-1,"question_num":171,"has_decoy":false},{"rt":2846.199999999255,"stimulus":"[A] option 1, [L] option 2, [G] neither","key_press":76,"name":"choice","trial_type":"html-keyboard-response","trial_index":208,"time_elapsed":347778,"internal_node_id":"0.0-208.0","subject":"S1C0813","sona":"41857","block":6,"time":"2021-09-15T16:07:19.010Z","response":"2nd","certainty":"high","char":"L","transposition":-2,"order":["shifted","swapped"],"probe_pitches":[3,2,3,5,7,3,2,0],"shifted_pitches":[3,2,3,5,8,3,2,0],"swapped_pitches":[3,2,3,7,5,3,2,0],"shift_direction":1,"question_num":181,"has_decoy":false},{"rt":1319.9000000003725,"stimulus":"[A] option 1, [L] option 2, [G] neither","key_press":65,"name":"choice","trial_type":"html-keyboard-response","trial_index":219,"time_elapsed":366998,"internal_node_id":"0.0-219.0","subject":"S1C0813","sona":"41857","block":6,"time":"2021-09-15T16:07:19.010Z","response":"1st","certainty":"high","char":"A","transposition":0,"order":["shifted","swapped"],"probe_pitches":[5,10,5,10,7,0,10,3],"shifted_pitches":[5,10,5,9,7,0,10,3],"swapped_pitches":[5,10,5,7,10,0,10,3],"shift_direction":-1,"question_num":191,"has_decoy":false}]