[{"rt":405.7999999988824,"stimulus":"[A] option 1, [L] option 2, [G] neither","key_press":65,"name":"choice","trial_type":"html-keyboard-response","trial_index":10,"time_elapsed":16910,"internal_node_id":"0.0-10.0","subject":"S1C0813","sona":"41857","block":5,"time":"2021-09-15T16:01:07.292Z","response":"1st","certainty":"high","char":"A","transposition":-1,"order":["swapped","shifted"],"probe_pitches":[8,3,6,2,8,0,5,7],"shifted_pitches":[8,3,6,1,8,0,5,7],"swapped_pitches":[8,3,6,8,2,0,5,7],"shift_direction":-1,"question_num":1,"has_decoy":false},{"rt":374.90000000037253,"stimulus":"[A] option 1, [L] option 2, [G] neither","key_press":76,"name":"choice","trial_type":"html-keyboard-response","trial_index":21,"time_elapsed":31631,"internal_node_id":"0.0-21.0","subject":"S1C0813","sona":"41857","block":5,"time":"2021-09-15T16:01:07.292Z","response":"2nd","certainty":"high","char":"L","transposition":3,"order":["swapped","shifted"],"probe_pitches":[-1,4,6,1,8,4,6,8],"shifted_pitches":[-1,4,6,1,9,4,6,8],"swapped_pitches":[-1,4,6,8,1,4,6,8],"shift_direction":1,"question_num":11,"has_decoy":false},{"rt":386.5,"stimulus":"[A] option 1, [L] option 2, [G] neither","key_press":76,"name":"choice","trial_type":"html-keyboard-response","trial_index":32,"time_elapsed":46474,"internal_node_id":"0.0-32.0","subject":"S1C0813","sona":"41857","block":5,"time":"2021-09-15T16:01:07.292Z","response":"2nd","certainty":"high","char":"L","transposition":-2,"order":["swapped","shifted"],"probe_pitches":[-2,2,5,8,2,6,-1,3],"shifted_pitches":[-2,2,5,9,2,6,-1,3],"swapped_pitches":[-2,2,5,2,8,6,-1,3],"shift_direction":1,"question_num":21,"has_decoy":false},{"rt":1603.300000000745,"stimulus":"[A] option 1, [L] option 2, [G] neither","key_press":71,"name":"choice","trial_type":"html-keyboard-response","trial_index":43,"time_elapsed":62522,"internal_node_id":"0.0-43.0","subject":"S1C0813","sona":"41857","block":5,"time":"2021-09-15T16:01:07.292Z","response":"neither","certainty":"high","char":"G","transposition":2,"order":["swapped","shifted"],"probe_pitches":[2,7,0,5,2,7,6,-1],"shifted_pitches":[2,7,0,5,3,7,6,-1],"swapped_pitches":[2,7,0,2,5,7,6,-1],"shift_direction":1,"question_num":31,"has_decoy":false},{"rt":1715.9000000003725,"stimulus":"[A] option 1, [L] option 2, [G] neither","key_press":76,"name":"choice","trial_type":"html-keyboard-response","trial_index":54,"time_elapsed":79824,"internal_node_id":"0.0-54.0","subject":"S1C0813","sona":"41857","block":5,"time":"2021-09-15T16:01:07.292Z","response":"2nd","certainty":"high","char":"L","transposition":-2,"order":["swapped","shifted"],"probe_pitches":[3,4,1,9,6,4,10,-2],"shifted_pitches":[3,4,1,9,5,4,10,-2],"swapped_pitches":[3,4,1,6,9,4,10,-2],"shift_direction":-1,"question_num":41,"has_decoy":false},{"rt":2032.9000000003725,"stimulus":"[A] option 1, [L] option 2, [G] neither","key_press":65,"name":"choice","trial_type":"html-keyboard-response","trial_index":65,"time_elapsed":96956,"internal_node_id":"0.0-65.0","subject":"S1C0813","sona":"41857","block":5,"time":"2021-09-15T16:01:07.292Z","response":"1st","certainty":"high","char":"A","transposition":-2,"order":["shifted","swapped"],"probe_pitches":[1,6,3,8,11,6,1,8],"shifted_pitches":[1,6,3,9,11,6,1,8],"swapped_pitches":[1,6,3,11,8,6,1,8],"shift_direction":1,"question_num":51,"has_decoy":false},{"rt":1057.2000000011176,"stimulus":"[A] option 1, [L] option 2, [G] neither","key_press":76,"name":"choice","trial_type":"html-keyboard-response","trial_index":76,"time_elapsed":112358,"internal_node_id":"0.0-76.0","subject":"S1C0813","sona":"41857","block":5,"time":"2021-09-15T16:01:07.292Z","response":"2nd","certainty":"high","char":"L","transposition":-3,"order":["shifted","swapped"],"probe_pitches":[7,5,-2,6,-1,3,2,-1],"shifted_pitches":[7,5,-2,6,0,3,2,-1],"swapped_pitches":[7,5,-2,-1,6,3,2,-1],"shift_direction":1,"question_num":61,"has_decoy":false},{"rt":425,"stimulus":"[A] option 1, [L] option 2, [G] neither","key_press":71,"name":"choice","trial_type":"html-keyboard-response","trial_index":87,"time_elapsed":127491,"internal_node_id":"0.0-87.0","subject":"S1C0813","sona":"41857","block":5,"time":"2021-09-15T16:01:07.292Z","response":"neither","certainty":"high","char":"G","transposition":-2,"order":["shifted","swapped"],"probe_pitches":[11,6,3,8,1,-1,6,-1],"shifted_pitches":[11,6,3,8,2,-1,6,-1],"swapped_pitches":[11,6,3,1,8,-1,6,-1],"shift_direction":1,"question_num":71,"has_decoy":false},{"rt":535.6999999992549,"stimulus":"[A] option 1, [L] option 2, [G] neither","key_press":76,"name":"choice","trial_type":"html-keyboard-response","trial_index":98,"time_elapsed":142588,"internal_node_id":"0.0-98.0","subject":"S1C0813","sona":"41857","block":5,"time":"2021-09-15T16:01:07.292Z","response":"2nd","certainty":"high","char":"L","transposition":-3,"order":["shifted","swapped"],"probe_pitches":[6,11,6,9,11,2,9,4],"shifted_pitches":[6,11,6,9,10,2,9,4],"swapped_pitches":[6,11,6,11,9,2,9,4],"shift_direction":-1,"question_num":81,"has_decoy":false},{"rt":344.7999999988824,"stimulus":"[A] option 1, [L] option 2, [G] neither","key_press":76,"name":"choice","trial_type":"html-keyboard-response","trial_index":109,"time_elapsed":157292,"internal_node_id":"0.0-109.0","subject":"S1C0813","sona":"41857","block":5,"time":"2021-09-15T16:01:07.292Z","response":"2nd","certainty":"high","char":"L","transposition":-3,"order":["swapped","shifted"],"probe_pitches":[7,2,9,4,-1,7,11,2],"shifted_pitches":[7,2,9,3,-1,7,11,2],"swapped_pitches":[7,2,9,-1,4,7,11,2],"shift_direction":-1,"question_num":91,"has_decoy":false},{"rt":395.2000000011176,"stimulus":"[A] option 1, [L] option 2, [G] neither","key_press":76,"name":"choice","trial_type":"html-keyboard-response","trial_index":120,"time_elapsed":173635,"internal_node_id":"0.0-120.0","subject":"S1C0813","sona":"41857","block":5,"time":"2021-09-15T16:01:07.292Z","response":"2nd","certainty":"high","char":"L","transposition":3,"order":["swapped","shifted"],"probe_pitches":[5,0,5,6,3,1,7,8],"shifted_pitches":[5,0,5,6,4,1,7,8],"swapped_pitches":[5,0,5,3,6,1,7,8],"shift_direction":1,"question_num":101,"has_decoy":false},{"rt":692.8000000007451,"stimulus":"[A] option 1, [L] option 2, [G] neither","key_press":65,"name":"choice","trial_type":"html-keyboard-response","trial_index":131,"time_elapsed":189533,"internal_node_id":"0.0-131.0","subject":"S1C0813","sona":"41857","block":5,"time":"2021-09-15T16:01:07.292Z","response":"1st","certainty":"high","char":"A","transposition":1,"order":["shifted","swapped"],"probe_pitches":[3,-1,1,7,3,-1,1,7],"shifted_pitches":[3,-1,1,8,3,-1,1,7],"swapped_pitches":[3,-1,1,3,7,-1,1,7],"shift_direction":1,"question_num":111,"has_decoy":false},{"rt":517.1999999992549,"stimulus":"[A] option 1, [L] option 2, [G] neither","key_press":76,"name":"choice","trial_type":"html-keyboard-response","trial_index":142,"time_elapsed":205069,"internal_node_id":"0.0-142.0","subject":"S1C0813","sona":"41857","block":5,"time":"2021-09-15T16:01:07.292Z","response":"2nd","certainty":"high","char":"L","transposition":0,"order":["swapped","shifted"],"probe_pitches":[9,11,4,9,1,-1,1,6],"shifted_pitches":[9,11,4,8,1,-1,1,6],"swapped_pitches":[9,11,4,1,9,-1,1,6],"shift_direction":-1,"question_num":121,"has_decoy":false},{"rt":537.1999999992549,"stimulus":"[A] option 1, [L] option 2, [G] neither","key_press":76,"name":"choice","trial_type":"html-keyboard-response","trial_index":153,"time_elapsed":220410,"internal_node_id":"0.0-153.0","subject":"S1C0813","sona":"41857","block":5,"time":"2021-09-15T16:01:07.292Z","response":"2nd","certainty":"high","char":"L","transposition":0,"order":["shifted","swapped"],"probe_pitches":[1,3,0,8,9,2,1,6],"shifted_pitches":[1,3,0,7,9,2,1,6],"swapped_pitches":[1,3,0,9,8,2,1,6],"shift_direction":-1,"question_num":131,"has_decoy":false},{"rt":622.5999999996275,"stimulus":"[A] option 1, [L] option 2, [G] neither","key_press":71,"name":"choice","trial_type":"html-keyboard-response","trial_index":164,"time_elapsed":235568,"internal_node_id":"0.0-164.0","subject":"S1C0813","sona":"41857","block":5,"time":"2021-09-15T16:01:07.292Z","response":"neither","certainty":"high","char":"G","transposition":-3,"order":["shifted","swapped"],"probe_pitches":[8,6,4,3,8,7,9,-1],"shifted_pitches":[8,6,4,2,8,7,9,-1],"swapped_pitches":[8,6,4,8,3,7,9,-1],"shift_direction":-1,"question_num":141,"has_decoy":false},{"rt":1400.8999999985099,"stimulus":"[A] option 1, [L] option 2, [G] neither","key_press":71,"name":"choice","trial_type":"html-keyboard-response","trial_index":175,"time_elapsed":251535,"internal_node_id":"0.0-175.0","subject":"S1C0813","sona":"41857","block":5,"time":"2021-09-15T16:01:07.292Z","response":"neither","certainty":"high","char":"G","transposition":2,"order":["swapped","shifted"],"probe_pitches":[6,2,9,4,6,-1,9,2],"shifted_pitches":[6,2,9,5,6,-1,9,2],"swapped_pitches":[6,2,9,6,4,-1,9,2],"shift_direction":1,"question_num":151,"has_decoy":false},{"rt":488,"stimulus":"[A] option 1, [L] option 2, [G] neither","key_press":76,"name":"choice","trial_type":"html-keyboard-response","trial_index":186,"time_elapsed":269523,"internal_node_id":"0.0-186.0","subject":"S1C0813","sona":"41857","block":5,"time":"2021-09-15T16:01:07.292Z","response":"2nd","certainty":"high","char":"L","transposition":-1,"order":["swapped","shifted"],"probe_pitches":[7,4,-1,2,7,9,4,9],"shifted_pitches":[7,4,-1,2,8,9,4,9],"swapped_pitches":[7,4,-1,7,2,9,4,9],"shift_direction":1,"question_num":161,"has_decoy":false},{"rt":1128.800000000745,"stimulus":"[A] option 1, [L] option 2, [G] neither","key_press":76,"name":"choice","trial_type":"html-keyboard-response","trial_index":197,"time_elapsed":285039,"internal_node_id":"0.0-197.0","subject":"S1C0813","sona":"41857","block":5,"time":"2021-09-15T16:01:07.292Z","response":"2nd","certainty":"high","char":"L","transposition":-1,"order":["shifted","swapped"],"probe_pitches":[-1,4,10,9,7,1,4,7],"shifted_pitches":[-1,4,10,9,6,1,4,7],"swapped_pitches":[-1,4,10,7,9,1,4,7],"shift_direction":-1,"question_num":171,"has_decoy":false},{"rt":310.7999999988824,"stimulus":"[A] option 1, [L] option 2, [G] neither","key_press":76,"name":"choice","trial_type":"html-keyboard-response","trial_index":208,"time_elapsed":302306,"internal_node_id":"0.0-208.0","subject":"S1C0813","sona":"41857","block":5,"time":"2021-09-15T16:01:07.292Z","response":"2nd","certainty":"high","char":"L","transposition":-1,"order":["shifted","swapped"],"probe_pitches":[-1,1,6,-1,8,11,6,4],"shifted_pitches":[-1,1,6,-2,8,11,6,4],"swapped_pitches":[-1,1,6,8,-1,11,6,4],"shift_direction":-1,"question_num":181,"has_decoy":false},{"rt":1611.199999999255,"stimulus":"[A] option 1, [L] option 2, [G] neither","key_press":71,"name":"choice","trial_type":"html-keyboard-response","trial_index":219,"time_elapsed":318266,"internal_node_id":"0.0-219.0","subject":"S1C0813","sona":"41857","block":5,"time":"2021-09-15T16:01:07.292Z","response":"neither","certainty":"high","char":"G","transposition":1,"order":["shifted","swapped"],"probe_pitches":[9,6,-1,6,4,9,1,4],"shifted_pitches":[9,6,-1,6,3,9,1,4],"swapped_pitches":[9,6,-1,4,6,9,1,4],"shift_direction":-1,"question_num":191,"has_decoy":false}]