[{"rt":2642.89999999851,"stimulus":"[A] option 1, [L] option 2, [G] neither","key_press":71,"name":"choice","trial_type":"html-keyboard-response","trial_index":10,"time_elapsed":21400,"internal_node_id":"0.0-10.0","subject":"S1C0813","sona":"41857","block":4,"time":"2021-09-15T15:55:42.895Z","response":"neither","certainty":"high","char":"G","transposition":-3,"order":["shifted","swapped"],"probe_pitches":[1,-1,1,4,5,-2,8,2],"shifted_pitches":[1,-1,1,3,5,-2,8,2],"swapped_pitches":[1,-1,1,5,4,-2,8,2],"shift_direction":-1,"question_num":1,"has_decoy":false},{"rt":9255.89999999851,"stimulus":"[A] option 1, [L] option 2, [G] neither","key_press":71,"name":"choice","trial_type":"html-keyboard-response","trial_index":21,"time_elapsed":45964,"internal_node_id":"0.0-21.0","subject":"S1C0813","sona":"41857","block":4,"time":"2021-09-15T15:55:42.895Z","response":"neither","certainty":"high","char":"G","transposition":2,"order":["swapped","shifted"],"probe_pitches":[5,10,5,1,8,3,10,5],"shifted_pitches":[5,10,5,1,9,3,10,5],"swapped_pitches":[5,10,5,8,1,3,10,5],"shift_direction":1,"question_num":11,"has_decoy":false},{"rt":1310.699999999255,"stimulus":"[A] option 1, [L] option 2, [G] neither","key_press":65,"name":"choice","trial_type":"html-keyboard-response","trial_index":32,"time_elapsed":61650,"internal_node_id":"0.0-32.0","subject":"S1C0813","sona":"41857","block":4,"time":"2021-09-15T15:55:42.895Z","response":"1st","certainty":"high","char":"A","transposition":-2,"order":["swapped","shifted"],"probe_pitches":[10,8,1,3,6,1,8,3],"shifted_pitches":[10,8,1,3,7,1,8,3],"swapped_pitches":[10,8,1,6,3,1,8,3],"shift_direction":1,"question_num":21,"has_decoy":false},{"rt":934.9000000003725,"stimulus":"[A] option 1, [L] option 2, [G] neither","key_press":76,"name":"choice","trial_type":"html-keyboard-response","trial_index":43,"time_elapsed":80239,"internal_node_id":"0.0-43.0","subject":"S1C0813","sona":"41857","block":4,"time":"2021-09-15T15:55:42.895Z","response":"2nd","certainty":"high","char":"L","transposition":-3,"order":["shifted","swapped"],"probe_pitches":[6,2,4,9,0,4,2,6],"shifted_pitches":[6,2,4,9,1,4,2,6],"swapped_pitches":[6,2,4,0,9,4,2,6],"shift_direction":1,"question_num":31,"has_decoy":false},{"rt":757.9000000003725,"stimulus":"[A] option 1, [L] option 2, [G] neither","key_press":65,"name":"choice","trial_type":"html-keyboard-response","trial_index":54,"time_elapsed":101848,"internal_node_id":"0.0-54.0","subject":"S1C0813","sona":"41857","block":4,"time":"2021-09-15T15:55:42.895Z","response":"1st","certainty":"high","char":"A","transposition":0,"order":["swapped","shifted"],"probe_pitches":[6,5,6,5,7,1,-2,1],"shifted_pitches":[6,5,6,5,8,1,-2,1],"swapped_pitches":[6,5,6,7,5,1,-2,1],"shift_direction":1,"question_num":41,"has_decoy":false},{"rt":550.2000000011176,"stimulus":"[A] option 1, [L] option 2, [G] neither","key_press":71,"name":"choice","trial_type":"html-keyboard-response","trial_index":65,"time_elapsed":119053,"internal_node_id":"0.0-65.0","subject":"S1C0813","sona":"41857","block":4,"time":"2021-09-15T15:55:42.895Z","response":"neither","certainty":"high","char":"G","transposition":2,"order":["swapped","shifted"],"probe_pitches":[9,7,4,5,7,3,4,-3],"shifted_pitches":[9,7,4,6,7,3,4,-3],"swapped_pitches":[9,7,4,7,5,3,4,-3],"shift_direction":1,"question_num":51,"has_decoy":false},{"rt":2117.0999999996275,"stimulus":"[A] option 1, [L] option 2, [G] neither","key_press":71,"name":"choice","trial_type":"html-keyboard-response","trial_index":76,"time_elapsed":143760,"internal_node_id":"0.0-76.0","subject":"S1C0813","sona":"41857","block":4,"time":"2021-09-15T15:55:42.895Z","response":"neither","certainty":"high","char":"G","transposition":0,"order":["swapped","shifted"],"probe_pitches":[3,0,7,0,5,10,3,5],"shifted_pitches":[3,0,7,-1,5,10,3,5],"swapped_pitches":[3,0,7,5,0,10,3,5],"shift_direction":-1,"question_num":61,"has_decoy":false},{"rt":370.1000000014901,"stimulus":"[A] option 1, [L] option 2, [G] neither","key_press":76,"name":"choice","trial_type":"html-keyboard-response","trial_index":87,"time_elapsed":158967,"internal_node_id":"0.0-87.0","subject":"S1C0813","sona":"41857","block":4,"time":"2021-09-15T15:55:42.895Z","response":"2nd","certainty":"high","char":"L","transposition":-2,"order":["shifted","swapped"],"probe_pitches":[0,-3,1,5,8,1,9,0],"shifted_pitches":[0,-3,1,5,7,1,9,0],"swapped_pitches":[0,-3,1,8,5,1,9,0],"shift_direction":-1,"question_num":71,"has_decoy":false},{"rt":795.6999999992549,"stimulus":"[A] option 1, [L] option 2, [G] neither","key_press":71,"name":"choice","trial_type":"html-keyboard-response","trial_index":98,"time_elapsed":174950,"internal_node_id":"0.0-98.0","subject":"S1C0813","sona":"41857","block":4,"time":"2021-09-15T15:55:42.895Z","response":"neither","certainty":"high","char":"G","transposition":-1,"order":["shifted","swapped"],"probe_pitches":[-2,-1,5,4,3,-3,5,4],"shifted_pitches":[-2,-1,5,4,2,-3,5,4],"swapped_pitches":[-2,-1,5,3,4,-3,5,4],"shift_direction":-1,"question_num":81,"has_decoy":false},{"rt":671.2000000011176,"stimulus":"[A] option 1, [L] option 2, [G] neither","key_press":76,"name":"choice","trial_type":"html-keyboard-response","trial_index":109,"time_elapsed":191054,"internal_node_id":"0.0-109.0","subject":"S1C0813","sona":"41857","block":4,"time":"2021-09-15T15:55:42.895Z","response":"2nd","certainty":"high","char":"L","transposition":-2,"order":["shifted","swapped"],"probe_pitches":[3,5,0,-2,7,3,-2,0],"shifted_pitches":[3,5,0,-2,6,3,-2,0],"swapped_pitches":[3,5,0,7,-2,3,-2,0],"shift_direction":-1,"question_num":91,"has_decoy":false},{"rt":1390.199999999255,"stimulus":"[A] option 1, [L] option 2, [G] neither","key_press":71,"name":"choice","trial_type":"html-keyboard-response","trial_index":120,"time_elapsed":206812,"internal_node_id":"0.0-120.0","subject":"S1C0813","sona":"41857","block":4,"time":"2021-09-15T15:55:42.895Z","response":"neither","certainty":"high","char":"G","transposition":3,"order":["shifted","swapped"],"probe_pitches":[4,7,8,4,0,3,1,7],"shifted_pitches":[4,7,8,4,-1,3,1,7],"swapped_pitches":[4,7,8,0,4,3,1,7],"shift_direction":-1,"question_num":101,"has_decoy":false},{"rt":831.6999999992549,"stimulus":"[A] option 1, [L] option 2, [G] neither","key_press":76,"name":"choice","trial_type":"html-keyboard-response","trial_index":131,"time_elapsed":225704,"internal_node_id":"0.0-131.0","subject":"S1C0813","sona":"41857","block":4,"time":"2021-09-15T15:55:42.895Z","response":"2nd","certainty":"high","char":"L","transposition":1,"order":["shifted","swapped"],"probe_pitches":[7,2,-2,0,2,5,0,7],"shifted_pitches":[7,2,-2,-1,2,5,0,7],"swapped_pitches":[7,2,-2,2,0,5,0,7],"shift_direction":-1,"question_num":111,"has_decoy":false},{"rt":1976.300000000745,"stimulus":"[A] option 1, [L] option 2, [G] neither","key_press":71,"name":"choice","trial_type":"html-keyboard-response","trial_index":142,"time_elapsed":243151,"internal_node_id":"0.0-142.0","subject":"S1C0813","sona":"41857","block":4,"time":"2021-09-15T15:55:42.895Z","response":"neither","certainty":"high","char":"G","transposition":-2,"order":["swapped","shifted"],"probe_pitches":[4,1,8,1,-3,-2,5,1],"shifted_pitches":[4,1,8,0,-3,-2,5,1],"swapped_pitches":[4,1,8,-3,1,-2,5,1],"shift_direction":-1,"question_num":121,"has_decoy":false},{"rt":1413.4000000003725,"stimulus":"[A] option 1, [L] option 2, [G] neither","key_press":71,"name":"choice","trial_type":"html-keyboard-response","trial_index":153,"time_elapsed":259479,"internal_node_id":"0.0-153.0","subject":"S1C0813","sona":"41857","block":4,"time":"2021-09-15T15:55:42.895Z","response":"neither","certainty":"high","char":"G","transposition":-1,"order":["swapped","shifted"],"probe_pitches":[0,5,10,3,0,-2,8,-2],"shifted_pitches":[0,5,10,4,0,-2,8,-2],"swapped_pitches":[0,5,10,0,3,-2,8,-2],"shift_direction":1,"question_num":131,"has_decoy":false},{"rt":809.4000000003725,"stimulus":"[A] option 1, [L] option 2, [G] neither","key_press":65,"name":"choice","trial_type":"html-keyboard-response","trial_index":164,"time_elapsed":274880,"internal_node_id":"0.0-164.0","subject":"S1C0813","sona":"41857","block":4,"time":"2021-09-15T15:55:42.895Z","response":"1st","certainty":"high","char":"A","transposition":1,"order":["swapped","shifted"],"probe_pitches":[0,1,6,4,7,1,8,-3],"shifted_pitches":[0,1,6,5,7,1,8,-3],"swapped_pitches":[0,1,6,7,4,1,8,-3],"shift_direction":1,"question_num":141,"has_decoy":false},{"rt":731.6999999992549,"stimulus":"[A] option 1, [L] option 2, [G] neither","key_press":71,"name":"choice","trial_type":"html-keyboard-response","trial_index":175,"time_elapsed":294044,"internal_node_id":"0.0-175.0","subject":"S1C0813","sona":"41857","block":4,"time":"2021-09-15T15:55:42.895Z","response":"neither","certainty":"high","char":"G","transposition":-3,"order":["shifted","swapped"],"probe_pitches":[5,0,2,10,7,0,-2,2],"shifted_pitches":[5,0,2,10,6,0,-2,2],"swapped_pitches":[5,0,2,7,10,0,-2,2],"shift_direction":-1,"question_num":151,"has_decoy":false},{"rt":2364.39999999851,"stimulus":"[A] option 1, [L] option 2, [G] neither","key_press":76,"name":"choice","trial_type":"html-keyboard-response","trial_index":186,"time_elapsed":311148,"internal_node_id":"0.0-186.0","subject":"S1C0813","sona":"41857","block":4,"time":"2021-09-15T15:55:42.895Z","response":"2nd","certainty":"high","char":"L","transposition":3,"order":["shifted","swapped"],"probe_pitches":[1,5,-2,3,10,8,3,8],"shifted_pitches":[1,5,-2,4,10,8,3,8],"swapped_pitches":[1,5,-2,10,3,8,3,8],"shift_direction":1,"question_num":161,"has_decoy":false},{"rt":2890.300000000745,"stimulus":"[A] option 1, [L] option 2, [G] neither","key_press":71,"name":"choice","trial_type":"html-keyboard-response","trial_index":197,"time_elapsed":328996,"internal_node_id":"0.0-197.0","subject":"S1C0813","sona":"41857","block":4,"time":"2021-09-15T15:55:42.895Z","response":"neither","certainty":"high","char":"G","transposition":-1,"order":["swapped","shifted"],"probe_pitches":[3,8,1,8,3,-2,6,3],"shifted_pitches":[3,8,1,9,3,-2,6,3],"swapped_pitches":[3,8,1,3,8,-2,6,3],"shift_direction":1,"question_num":171,"has_decoy":false},{"rt":806.5,"stimulus":"[A] option 1, [L] option 2, [G] neither","key_press":76,"name":"choice","trial_type":"html-keyboard-response","trial_index":208,"time_elapsed":345717,"internal_node_id":"0.0-208.0","subject":"S1C0813","sona":"41857","block":4,"time":"2021-09-15T15:55:42.895Z","response":"2nd","certainty":"high","char":"L","transposition":-1,"order":["swapped","shifted"],"probe_pitches":[8,3,2,3,0,8,0,6],"shifted_pitches":[8,3,2,4,0,8,0,6],"swapped_pitches":[8,3,2,0,3,8,0,6],"shift_direction":1,"question_num":181,"has_decoy":false},{"rt":1986.0999999996275,"stimulus":"[A] option 1, [L] option 2, [G] neither","key_press":71,"name":"choice","trial_type":"html-keyboard-response","trial_index":219,"time_elapsed":363371,"internal_node_id":"0.0-219.0","subject":"S1C0813","sona":"41857","block":4,"time":"2021-09-15T15:55:42.895Z","response":"neither","certainty":"high","char":"G","transposition":-3,"order":["shifted","swapped"],"probe_pitches":[8,3,-2,0,8,5,0,-2],"shifted_pitches":[8,3,-2,0,7,5,0,-2],"swapped_pitches":[8,3,-2,8,0,5,0,-2],"shift_direction":-1,"question_num":191,"has_decoy":false}]