[{"rt":10675.699999999255,"stimulus":"[A] option 1, [L] option 2, [G] neither","key_press":76,"name":"choice","trial_type":"html-keyboard-response","trial_index":15,"time_elapsed":113568,"internal_node_id":"0.0-15.0","response":"2nd","certainty":"high","char":"L","transposition":-1,"order":["shifted","swapped"],"probe_pitches":[7,10,4,9,7,3,11,6],"shifted_pitches":[7,10,4,8,7,3,11,6],"swapped_pitches":[7,10,4,7,9,3,11,6],"shift_direction":-1,"question_num":1,"has_decoy":false,"subject":"S1C0813","sona":"41857","block":1,"time":"2021-09-15T15:37:41.053Z"},{"rt":4421.700000001118,"stimulus":"[A] option 1, [L] option 2, [G] neither","key_press":65,"name":"choice","trial_type":"html-keyboard-response","trial_index":26,"time_elapsed":138076,"internal_node_id":"0.0-26.0","response":"1st","certainty":"high","char":"A","transposition":2,"order":["swapped","shifted"],"probe_pitches":[2,7,5,0,7,-2,2,-2],"shifted_pitches":[2,7,5,-1,7,-2,2,-2],"swapped_pitches":[2,7,5,7,0,-2,2,-2],"shift_direction":-1,"question_num":11,"has_decoy":false,"subject":"S1C0813","sona":"41857","block":1,"time":"2021-09-15T15:37:41.053Z"},{"rt":3351.7000000011176,"stimulus":"[A] option 1, [L] option 2, [G] neither","key_press":65,"name":"choice","trial_type":"html-keyboard-response","trial_index":37,"time_elapsed":157032,"internal_node_id":"0.0-37.0","response":"1st","certainty":"high","char":"A","transposition":1,"order":["shifted","swapped"],"probe_pitches":[6,12,6,3,11,10,7,6],"shifted_pitches":[6,12,6,2,11,10,7,6],"swapped_pitches":[6,12,6,11,3,10,7,6],"shift_direction":-1,"question_num":21,"has_decoy":false,"subject":"S1C0813","sona":"41857","block":1,"time":"2021-09-15T15:37:41.053Z"},{"rt":4037.300000000745,"stimulus":"[A] option 1, [L] option 2, [G] neither","key_press":76,"name":"choice","trial_type":"html-keyboard-response","trial_index":48,"time_elapsed":178453,"internal_node_id":"0.0-48.0","response":"2nd","certainty":"high","char":"L","transposition":0,"order":["shifted","swapped"],"probe_pitches":[4,1,0,7,5,8,11,3],"shifted_pitches":[4,1,0,7,6,8,11,3],"swapped_pitches":[4,1,0,5,7,8,11,3],"shift_direction":1,"question_num":31,"has_decoy":false,"subject":"S1C0813","sona":"41857","block":1,"time":"2021-09-15T15:37:41.053Z"},{"rt":4767.9000000003725,"stimulus":"[A] option 1, [L] option 2, [G] neither","key_press":71,"name":"choice","trial_type":"html-keyboard-response","trial_index":59,"time_elapsed":200948,"internal_node_id":"0.0-59.0","response":"neither","certainty":"high","char":"G","transposition":3,"order":["shifted","swapped"],"probe_pitches":[8,10,6,1,3,8,1,8],"shifted_pitches":[8,10,6,2,3,8,1,8],"swapped_pitches":[8,10,6,3,1,8,1,8],"shift_direction":1,"question_num":41,"has_decoy":false,"subject":"S1C0813","sona":"41857","block":1,"time":"2021-09-15T15:37:41.053Z"},{"rt":961.1999999992549,"stimulus":"[A] option 1, [L] option 2, [G] neither","key_press":76,"name":"choice","trial_type":"html-keyboard-response","trial_index":70,"time_elapsed":218299,"internal_node_id":"0.0-70.0","response":"2nd","certainty":"high","char":"L","transposition":0,"order":["shifted","swapped"],"probe_pitches":[5,1,3,-2,5,10,1,8],"shifted_pitches":[5,1,3,-2,6,10,1,8],"swapped_pitches":[5,1,3,5,-2,10,1,8],"shift_direction":1,"question_num":51,"has_decoy":false,"subject":"S1C0813","sona":"41857","block":1,"time":"2021-09-15T15:37:41.053Z"},{"rt":4076.2999999988824,"stimulus":"[A] option 1, [L] option 2, [G] neither","key_press":76,"name":"choice","trial_type":"html-keyboard-response","trial_index":81,"time_elapsed":238031,"internal_node_id":"0.0-81.0","response":"2nd","certainty":"high","char":"L","transposition":-1,"order":["shifted","swapped"],"probe_pitches":[3,8,5,0,8,5,0,10],"shifted_pitches":[3,8,5,0,9,5,0,10],"swapped_pitches":[3,8,5,8,0,5,0,10],"shift_direction":1,"question_num":61,"has_decoy":false,"subject":"S1C0813","sona":"41857","block":1,"time":"2021-09-15T15:37:41.053Z"},{"rt":1813.5999999996275,"stimulus":"[A] option 1, [L] option 2, [G] neither","key_press":65,"name":"choice","trial_type":"html-keyboard-response","trial_index":92,"time_elapsed":254898,"internal_node_id":"0.0-92.0","response":"1st","certainty":"high","char":"A","transposition":1,"order":["shifted","swapped"],"probe_pitches":[2,5,2,10,7,-2,0,-2],"shifted_pitches":[2,5,2,10,6,-2,0,-2],"swapped_pitches":[2,5,2,7,10,-2,0,-2],"shift_direction":-1,"question_num":71,"has_decoy":false,"subject":"S1C0813","sona":"41857","block":1,"time":"2021-09-15T15:37:41.053Z"},{"rt":1319.699999999255,"stimulus":"[A] option 1, [L] option 2, [G] neither","key_press":76,"name":"choice","trial_type":"html-keyboard-response","trial_index":103,"time_elapsed":272291,"internal_node_id":"0.0-103.0","response":"2nd","certainty":"high","char":"L","transposition":-2,"order":["swapped","shifted"],"probe_pitches":[5,3,5,0,7,5,7,10],"shifted_pitches":[5,3,5,1,7,5,7,10],"swapped_pitches":[5,3,5,7,0,5,7,10],"shift_direction":1,"question_num":81,"has_decoy":false,"subject":"S1C0813","sona":"41857","block":1,"time":"2021-09-15T15:37:41.053Z"},{"rt":6423.9000000003725,"stimulus":"[A] option 1, [L] option 2, [G] neither","key_press":76,"name":"choice","trial_type":"html-keyboard-response","trial_index":114,"time_elapsed":293646,"internal_node_id":"0.0-114.0","response":"2nd","certainty":"high","char":"L","transposition":-2,"order":["swapped","shifted"],"probe_pitches":[10,5,0,-2,7,0,5,3],"shifted_pitches":[10,5,0,-2,6,0,5,3],"swapped_pitches":[10,5,0,7,-2,0,5,3],"shift_direction":-1,"question_num":91,"has_decoy":false,"subject":"S1C0813","sona":"41857","block":1,"time":"2021-09-15T15:37:41.053Z"},{"rt":9446.900000000373,"stimulus":"[A] option 1, [L] option 2, [G] neither","key_press":76,"name":"choice","trial_type":"html-keyboard-response","trial_index":125,"time_elapsed":320219,"internal_node_id":"0.0-125.0","response":"2nd","certainty":"high","char":"L","transposition":-1,"order":["swapped","shifted"],"probe_pitches":[8,3,1,3,8,10,5,3],"shifted_pitches":[8,3,1,2,8,10,5,3],"swapped_pitches":[8,3,1,8,3,10,5,3],"shift_direction":-1,"question_num":101,"has_decoy":false,"subject":"S1C0813","sona":"41857","block":1,"time":"2021-09-15T15:37:41.053Z"},{"rt":1428.2999999988824,"stimulus":"[A] option 1, [L] option 2, [G] neither","key_press":76,"name":"choice","trial_type":"html-keyboard-response","trial_index":136,"time_elapsed":342056,"internal_node_id":"0.0-136.0","response":"2nd","certainty":"high","char":"L","transposition":2,"order":["shifted","swapped"],"probe_pitches":[8,4,3,6,8,1,6,7],"shifted_pitches":[8,4,3,5,8,1,6,7],"swapped_pitches":[8,4,3,8,6,1,6,7],"shift_direction":-1,"question_num":111,"has_decoy":false,"subject":"S1C0813","sona":"41857","block":1,"time":"2021-09-15T15:37:41.053Z"},{"rt":1226.5,"stimulus":"[A] option 1, [L] option 2, [G] neither","key_press":65,"name":"choice","trial_type":"html-keyboard-response","trial_index":147,"time_elapsed":358654,"internal_node_id":"0.0-147.0","response":"1st","certainty":"high","char":"A","transposition":-1,"order":["swapped","shifted"],"probe_pitches":[12,8,5,11,6,12,2,6],"shifted_pitches":[12,8,5,11,7,12,2,6],"swapped_pitches":[12,8,5,6,11,12,2,6],"shift_direction":1,"question_num":121,"has_decoy":false,"subject":"S1C0813","sona":"41857","block":1,"time":"2021-09-15T15:37:41.053Z"},{"rt":364.1000000014901,"stimulus":"[A] option 1, [L] option 2, [G] neither","key_press":76,"name":"choice","trial_type":"html-keyboard-response","trial_index":158,"time_elapsed":374857,"internal_node_id":"0.0-158.0","response":"2nd","certainty":"high","char":"L","transposition":-3,"order":["swapped","shifted"],"probe_pitches":[10,8,4,5,10,1,3,10],"shifted_pitches":[10,8,4,5,11,1,3,10],"swapped_pitches":[10,8,4,10,5,1,3,10],"shift_direction":1,"question_num":131,"has_decoy":false,"subject":"S1C0813","sona":"41857","block":1,"time":"2021-09-15T15:37:41.053Z"},{"rt":1182.199999999255,"stimulus":"[A] option 1, [L] option 2, [G] neither","key_press":76,"name":"choice","trial_type":"html-keyboard-response","trial_index":169,"time_elapsed":390794,"internal_node_id":"0.0-169.0","response":"2nd","certainty":"high","char":"L","transposition":-3,"order":["swapped","shifted"],"probe_pitches":[8,4,5,6,4,0,9,1],"shifted_pitches":[8,4,5,6,3,0,9,1],"swapped_pitches":[8,4,5,4,6,0,9,1],"shift_direction":-1,"question_num":141,"has_decoy":false,"subject":"S1C0813","sona":"41857","block":1,"time":"2021-09-15T15:37:41.053Z"},{"rt":1734.9000000003725,"stimulus":"[A] option 1, [L] option 2, [G] neither","key_press":76,"name":"choice","trial_type":"html-keyboard-response","trial_index":180,"time_elapsed":407721,"internal_node_id":"0.0-180.0","response":"2nd","certainty":"high","char":"L","transposition":-2,"order":["shifted","swapped"],"probe_pitches":[6,7,8,9,11,2,12,11],"shifted_pitches":[6,7,8,9,10,2,12,11],"swapped_pitches":[6,7,8,11,9,2,12,11],"shift_direction":-1,"question_num":151,"has_decoy":false,"subject":"S1C0813","sona":"41857","block":1,"time":"2021-09-15T15:37:41.053Z"},{"rt":612.1999999992549,"stimulus":"[A] option 1, [L] option 2, [G] neither","key_press":76,"name":"choice","trial_type":"html-keyboard-response","trial_index":191,"time_elapsed":423514,"internal_node_id":"0.0-191.0","response":"2nd","certainty":"high","char":"L","transposition":-2,"order":["swapped","shifted"],"probe_pitches":[10,6,11,3,2,10,7,1],"shifted_pitches":[10,6,11,4,2,10,7,1],"swapped_pitches":[10,6,11,2,3,10,7,1],"shift_direction":1,"question_num":161,"has_decoy":false,"subject":"S1C0813","sona":"41857","block":1,"time":"2021-09-15T15:37:41.053Z"},{"rt":1414.7999999988824,"stimulus":"[A] option 1, [L] option 2, [G] neither","key_press":76,"name":"choice","trial_type":"html-keyboard-response","trial_index":202,"time_elapsed":439266,"internal_node_id":"0.0-202.0","response":"2nd","certainty":"high","char":"L","transposition":-3,"order":["shifted","swapped"],"probe_pitches":[3,1,8,10,3,6,-2,3],"shifted_pitches":[3,1,8,10,2,6,-2,3],"swapped_pitches":[3,1,8,3,10,6,-2,3],"shift_direction":-1,"question_num":171,"has_decoy":false,"subject":"S1C0813","sona":"41857","block":1,"time":"2021-09-15T15:37:41.053Z"},{"rt":1089.4000000003725,"stimulus":"[A] option 1, [L] option 2, [G] neither","key_press":76,"name":"choice","trial_type":"html-keyboard-response","trial_index":213,"time_elapsed":455340,"internal_node_id":"0.0-213.0","response":"2nd","certainty":"high","char":"L","transposition":3,"order":["swapped","shifted"],"probe_pitches":[8,5,1,8,0,6,7,2],"shifted_pitches":[8,5,1,9,0,6,7,2],"swapped_pitches":[8,5,1,0,8,6,7,2],"shift_direction":1,"question_num":181,"has_decoy":false,"subject":"S1C0813","sona":"41857","block":1,"time":"2021-09-15T15:37:41.053Z"},{"rt":1113.5,"stimulus":"[A] option 1, [L] option 2, [G] neither","key_press":76,"name":"choice","trial_type":"html-keyboard-response","trial_index":224,"time_elapsed":471699,"internal_node_id":"0.0-224.0","response":"2nd","certainty":"high","char":"L","transposition":-3,"order":["swapped","shifted"],"probe_pitches":[8,3,8,10,5,3,8,0],"shifted_pitches":[8,3,8,11,5,3,8,0],"swapped_pitches":[8,3,8,5,10,3,8,0],"shift_direction":1,"question_num":191,"has_decoy":false,"subject":"S1C0813","sona":"41857","block":1,"time":"2021-09-15T15:37:41.053Z"}]