[{"rt":187.30000001192093,"stimulus":"[A] option 1, [L] option 2, [G] neither","key_press":76,"name":"choice","trial_type":"html-keyboard-response","trial_index":10,"time_elapsed":23241,"internal_node_id":"0.0-10.0","subject":"S1C1211","sona":"41657","block":4,"time":"2021-09-15T17:24:26.472Z","response":"2nd","certainty":"high","char":"L","transposition":2,"order":["swapped","shifted"],"probe_pitches":[-2,0,-2,5,8,3,-2,10,3,8,5,10],"shifted_pitches":[-2,0,-2,5,8,2,-2,10,3,8,5,10],"swapped_pitches":[-2,0,-2,5,8,-2,3,10,3,8,5,10],"shift_direction":-1,"question_num":1,"has_decoy":false},{"rt":1166.2999999970198,"stimulus":"[A] option 1, [L] option 2, [G] neither","key_press":65,"name":"choice","trial_type":"html-keyboard-response","trial_index":21,"time_elapsed":43192,"internal_node_id":"0.0-21.0","subject":"S1C1211","sona":"41657","block":4,"time":"2021-09-15T17:24:26.472Z","response":"1st","certainty":"high","char":"A","transposition":-3,"order":["swapped","shifted"],"probe_pitches":[1,5,2,5,9,2,4,13,6,5,13,1],"shifted_pitches":[1,5,2,5,9,3,4,13,6,5,13,1],"swapped_pitches":[1,5,2,5,9,4,2,13,6,5,13,1],"shift_direction":1,"question_num":11,"has_decoy":false},{"rt":407.29999999701977,"stimulus":"[A] option 1, [L] option 2, [G] neither","key_press":65,"name":"choice","trial_type":"html-keyboard-response","trial_index":32,"time_elapsed":61982,"internal_node_id":"0.0-32.0","subject":"S1C1211","sona":"41657","block":4,"time":"2021-09-15T17:24:26.472Z","response":"1st","certainty":"high","char":"A","transposition":-1,"order":["shifted","swapped"],"probe_pitches":[5,10,7,2,10,2,-2,7,0,7,5,2],"shifted_pitches":[5,10,7,2,10,1,-2,7,0,7,5,2],"swapped_pitches":[5,10,7,2,10,-2,2,7,0,7,5,2],"shift_direction":-1,"question_num":21,"has_decoy":false},{"rt":15845.79999999702,"stimulus":"[A] option 1, [L] option 2, [G] neither","key_press":76,"name":"choice","trial_type":"html-keyboard-response","trial_index":43,"time_elapsed":96092,"internal_node_id":"0.0-43.0","subject":"S1C1211","sona":"41657","block":4,"time":"2021-09-15T17:24:26.472Z","response":"2nd","certainty":"high","char":"L","transposition":1,"order":["swapped","shifted"],"probe_pitches":[-2,0,7,3,10,5,0,3,10,0,10,0],"shifted_pitches":[-2,0,7,3,10,5,-1,3,10,0,10,0],"swapped_pitches":[-2,0,7,3,10,0,5,3,10,0,10,0],"shift_direction":-1,"question_num":31,"has_decoy":false},{"rt":1813.4000000059605,"stimulus":"[A] option 1, [L] option 2, [G] neither","key_press":71,"name":"choice","trial_type":"html-keyboard-response","trial_index":54,"time_elapsed":116289,"internal_node_id":"0.0-54.0","subject":"S1C1211","sona":"41657","block":4,"time":"2021-09-15T17:24:26.472Z","response":"neither","certainty":"high","char":"G","transposition":-2,"order":["swapped","shifted"],"probe_pitches":[7,3,10,3,9,2,6,8,3,10,1,12],"shifted_pitches":[7,3,10,3,9,2,5,8,3,10,1,12],"swapped_pitches":[7,3,10,3,9,6,2,8,3,10,1,12],"shift_direction":-1,"question_num":41,"has_decoy":false},{"rt":3377.5,"stimulus":"[A] option 1, [L] option 2, [G] neither","key_press":65,"name":"choice","trial_type":"html-keyboard-response","trial_index":65,"time_elapsed":137911,"internal_node_id":"0.0-65.0","subject":"S1C1211","sona":"41657","block":4,"time":"2021-09-15T17:24:26.472Z","response":"1st","certainty":"high","char":"A","transposition":0,"order":["swapped","shifted"],"probe_pitches":[5,8,3,8,10,0,8,10,8,-2,5,3],"shifted_pitches":[5,8,3,8,10,0,9,10,8,-2,5,3],"swapped_pitches":[5,8,3,8,10,8,0,10,8,-2,5,3],"shift_direction":1,"question_num":51,"has_decoy":false},{"rt":1484.5,"stimulus":"[A] option 1, [L] option 2, [G] neither","key_press":76,"name":"choice","trial_type":"html-keyboard-response","trial_index":76,"time_elapsed":157690,"internal_node_id":"0.0-76.0","subject":"S1C1211","sona":"41657","block":4,"time":"2021-09-15T17:24:26.472Z","response":"2nd","certainty":"high","char":"L","transposition":-2,"order":["swapped","shifted"],"probe_pitches":[5,8,1,3,5,1,10,3,10,5,3,-2],"shifted_pitches":[5,8,1,3,5,1,11,3,10,5,3,-2],"swapped_pitches":[5,8,1,3,5,10,1,3,10,5,3,-2],"shift_direction":1,"question_num":61,"has_decoy":false},{"rt":2967.1000000089407,"stimulus":"[A] option 1, [L] option 2, [G] neither","key_press":71,"name":"choice","trial_type":"html-keyboard-response","trial_index":87,"time_elapsed":178931,"internal_node_id":"0.0-87.0","subject":"S1C1211","sona":"41657","block":4,"time":"2021-09-15T17:24:26.472Z","response":"neither","certainty":"high","char":"G","transposition":1,"order":["swapped","shifted"],"probe_pitches":[11,9,4,3,5,2,6,13,2,3,9,4],"shifted_pitches":[11,9,4,3,5,2,7,13,2,3,9,4],"swapped_pitches":[11,9,4,3,5,6,2,13,2,3,9,4],"shift_direction":1,"question_num":71,"has_decoy":false},{"rt":434.1000000089407,"stimulus":"[A] option 1, [L] option 2, [G] neither","key_press":76,"name":"choice","trial_type":"html-keyboard-response","trial_index":98,"time_elapsed":197629,"internal_node_id":"0.0-98.0","subject":"S1C1211","sona":"41657","block":4,"time":"2021-09-15T17:24:26.472Z","response":"2nd","certainty":"high","char":"L","transposition":-1,"order":["shifted","swapped"],"probe_pitches":[3,-2,1,-2,6,1,3,6,1,8,6,8],"shifted_pitches":[3,-2,1,-2,6,2,3,6,1,8,6,8],"swapped_pitches":[3,-2,1,-2,6,3,1,6,1,8,6,8],"shift_direction":1,"question_num":81,"has_decoy":false},{"rt":364.29999999701977,"stimulus":"[A] option 1, [L] option 2, [G] neither","key_press":65,"name":"choice","trial_type":"html-keyboard-response","trial_index":109,"time_elapsed":216219,"internal_node_id":"0.0-109.0","subject":"S1C1211","sona":"41657","block":4,"time":"2021-09-15T17:24:26.472Z","response":"1st","certainty":"high","char":"A","transposition":0,"order":["shifted","swapped"],"probe_pitches":[7,6,12,13,11,5,12,9,2,8,13,8],"shifted_pitches":[7,6,12,13,11,4,12,9,2,8,13,8],"swapped_pitches":[7,6,12,13,11,12,5,9,2,8,13,8],"shift_direction":-1,"question_num":91,"has_decoy":false},{"rt":1123.0999999940395,"stimulus":"[A] option 1, [L] option 2, [G] neither","key_press":65,"name":"choice","trial_type":"html-keyboard-response","trial_index":120,"time_elapsed":235676,"internal_node_id":"0.0-120.0","subject":"S1C1211","sona":"41657","block":4,"time":"2021-09-15T17:24:26.472Z","response":"1st","certainty":"high","char":"A","transposition":2,"order":["shifted","swapped"],"probe_pitches":[9,5,9,10,2,8,5,2,3,4,1,4],"shifted_pitches":[9,5,9,10,2,8,6,2,3,4,1,4],"swapped_pitches":[9,5,9,10,2,5,8,2,3,4,1,4],"shift_direction":1,"question_num":101,"has_decoy":false},{"rt":1142,"stimulus":"[A] option 1, [L] option 2, [G] neither","key_press":65,"name":"choice","trial_type":"html-keyboard-response","trial_index":131,"time_elapsed":257968,"internal_node_id":"0.0-131.0","subject":"S1C1211","sona":"41657","block":4,"time":"2021-09-15T17:24:26.472Z","response":"1st","certainty":"high","char":"A","transposition":-2,"order":["swapped","shifted"],"probe_pitches":[8,10,3,-2,3,6,8,10,8,-2,1,3],"shifted_pitches":[8,10,3,-2,3,6,9,10,8,-2,1,3],"swapped_pitches":[8,10,3,-2,3,8,6,10,8,-2,1,3],"shift_direction":1,"question_num":111,"has_decoy":false},{"rt":1242.7999999970198,"stimulus":"[A] option 1, [L] option 2, [G] neither","key_press":76,"name":"choice","trial_type":"html-keyboard-response","trial_index":142,"time_elapsed":278538,"internal_node_id":"0.0-142.0","subject":"S1C1211","sona":"41657","block":4,"time":"2021-09-15T17:24:26.472Z","response":"2nd","certainty":"high","char":"L","transposition":3,"order":["shifted","swapped"],"probe_pitches":[10,5,-2,0,3,7,-2,10,-2,7,5,-2],"shifted_pitches":[10,5,-2,0,3,6,-2,10,-2,7,5,-2],"swapped_pitches":[10,5,-2,0,3,-2,7,10,-2,7,5,-2],"shift_direction":-1,"question_num":121,"has_decoy":false},{"rt":1112.5,"stimulus":"[A] option 1, [L] option 2, [G] neither","key_press":65,"name":"choice","trial_type":"html-keyboard-response","trial_index":153,"time_elapsed":299038,"internal_node_id":"0.0-153.0","subject":"S1C1211","sona":"41657","block":4,"time":"2021-09-15T17:24:26.472Z","response":"1st","certainty":"high","char":"A","transposition":-1,"order":["shifted","swapped"],"probe_pitches":[6,7,4,7,9,1,11,13,5,12,3,5],"shifted_pitches":[6,7,4,7,9,1,10,13,5,12,3,5],"swapped_pitches":[6,7,4,7,9,11,1,13,5,12,3,5],"shift_direction":-1,"question_num":131,"has_decoy":false},{"rt":500.20000000298023,"stimulus":"[A] option 1, [L] option 2, [G] neither","key_press":71,"name":"choice","trial_type":"html-keyboard-response","trial_index":164,"time_elapsed":320694,"internal_node_id":"0.0-164.0","subject":"S1C1211","sona":"41657","block":4,"time":"2021-09-15T17:24:26.472Z","response":"neither","certainty":"high","char":"G","transposition":-3,"order":["shifted","swapped"],"probe_pitches":[0,5,-2,2,10,7,2,5,-2,0,10,7],"shifted_pitches":[0,5,-2,2,10,6,2,5,-2,0,10,7],"swapped_pitches":[0,5,-2,2,10,2,7,5,-2,0,10,7],"shift_direction":-1,"question_num":141,"has_decoy":false},{"rt":372.29999999701977,"stimulus":"[A] option 1, [L] option 2, [G] neither","key_press":65,"name":"choice","trial_type":"html-keyboard-response","trial_index":175,"time_elapsed":340167,"internal_node_id":"0.0-175.0","subject":"S1C1211","sona":"41657","block":4,"time":"2021-09-15T17:24:26.472Z","response":"1st","certainty":"high","char":"A","transposition":-3,"order":["shifted","swapped"],"probe_pitches":[5,8,10,5,1,5,-2,8,-2,10,5,3],"shifted_pitches":[5,8,10,5,1,5,-1,8,-2,10,5,3],"swapped_pitches":[5,8,10,5,1,-2,5,8,-2,10,5,3],"shift_direction":1,"question_num":151,"has_decoy":false},{"rt":1583.2000000029802,"stimulus":"[A] option 1, [L] option 2, [G] neither","key_press":76,"name":"choice","trial_type":"html-keyboard-response","trial_index":186,"time_elapsed":359956,"internal_node_id":"0.0-186.0","subject":"S1C1211","sona":"41657","block":4,"time":"2021-09-15T17:24:26.472Z","response":"2nd","certainty":"high","char":"L","transposition":3,"order":["swapped","shifted"],"probe_pitches":[5,6,11,7,5,3,8,2,6,11,2,10],"shifted_pitches":[5,6,11,7,5,3,9,2,6,11,2,10],"swapped_pitches":[5,6,11,7,5,8,3,2,6,11,2,10],"shift_direction":1,"question_num":161,"has_decoy":false},{"rt":278.3999999910593,"stimulus":"[A] option 1, [L] option 2, [G] neither","key_press":76,"name":"choice","trial_type":"html-keyboard-response","trial_index":197,"time_elapsed":378333,"internal_node_id":"0.0-197.0","subject":"S1C1211","sona":"41657","block":4,"time":"2021-09-15T17:24:26.472Z","response":"2nd","certainty":"high","char":"L","transposition":-1,"order":["swapped","shifted"],"probe_pitches":[4,10,13,9,13,12,5,9,8,2,13,4],"shifted_pitches":[4,10,13,9,13,11,5,9,8,2,13,4],"swapped_pitches":[4,10,13,9,13,5,12,9,8,2,13,4],"shift_direction":-1,"question_num":171,"has_decoy":false},{"rt":342.30000001192093,"stimulus":"[A] option 1, [L] option 2, [G] neither","key_press":76,"name":"choice","trial_type":"html-keyboard-response","trial_index":208,"time_elapsed":396917,"internal_node_id":"0.0-208.0","subject":"S1C1211","sona":"41657","block":4,"time":"2021-09-15T17:24:26.472Z","response":"2nd","certainty":"high","char":"L","transposition":-2,"order":["shifted","swapped"],"probe_pitches":[2,1,7,13,10,7,4,5,2,13,3,1],"shifted_pitches":[2,1,7,13,10,8,4,5,2,13,3,1],"swapped_pitches":[2,1,7,13,10,4,7,5,2,13,3,1],"shift_direction":1,"question_num":181,"has_decoy":false},{"rt":459.20000000298023,"stimulus":"[A] option 1, [L] option 2, [G] neither","key_press":65,"name":"choice","trial_type":"html-keyboard-response","trial_index":219,"time_elapsed":415895,"internal_node_id":"0.0-219.0","subject":"S1C1211","sona":"41657","block":4,"time":"2021-09-15T17:24:26.472Z","response":"1st","certainty":"high","char":"A","transposition":-3,"order":["shifted","swapped"],"probe_pitches":[3,7,5,13,4,1,2,5,10,6,5,2],"shifted_pitches":[3,7,5,13,4,0,2,5,10,6,5,2],"swapped_pitches":[3,7,5,13,4,2,1,5,10,6,5,2],"shift_direction":-1,"question_num":191,"has_decoy":false}]