[{"rt":83.79999999701977,"stimulus":"[A] option 1, [L] option 2, [G] neither","key_press":65,"name":"choice","trial_type":"html-keyboard-response","trial_index":10,"time_elapsed":18974,"internal_node_id":"0.0-10.0","subject":"S1C1211","sona":"41657","block":3,"time":"2021-09-15T17:17:20.841Z","response":"1st","certainty":"high","char":"A","transposition":-3,"order":["shifted","swapped"],"probe_pitches":[6,7,11,9,11,6,12,10,7,9,10,15],"shifted_pitches":[6,7,11,9,11,5,12,10,7,9,10,15],"swapped_pitches":[6,7,11,9,11,12,6,10,7,9,10,15],"shift_direction":-1,"question_num":1,"has_decoy":false},{"rt":2743.7000000029802,"stimulus":"[A] option 1, [L] option 2, [G] neither","key_press":76,"name":"choice","trial_type":"html-keyboard-response","trial_index":21,"time_elapsed":40115,"internal_node_id":"0.0-21.0","subject":"S1C1211","sona":"41657","block":3,"time":"2021-09-15T17:17:20.841Z","response":"2nd","certainty":"high","char":"L","transposition":-3,"order":["shifted","swapped"],"probe_pitches":[3,8,10,15,12,9,13,11,6,9,15,11],"shifted_pitches":[3,8,10,15,12,9,14,11,6,9,15,11],"swapped_pitches":[3,8,10,15,12,13,9,11,6,9,15,11],"shift_direction":1,"question_num":11,"has_decoy":false},{"rt":1551.2000000029802,"stimulus":"[A] option 1, [L] option 2, [G] neither","key_press":65,"name":"choice","trial_type":"html-keyboard-response","trial_index":32,"time_elapsed":60012,"internal_node_id":"0.0-32.0","subject":"S1C1211","sona":"41657","block":3,"time":"2021-09-15T17:17:20.841Z","response":"1st","certainty":"high","char":"A","transposition":-1,"order":["swapped","shifted"],"probe_pitches":[6,11,6,9,4,5,12,10,7,9,15,14],"shifted_pitches":[6,11,6,9,4,5,13,10,7,9,15,14],"swapped_pitches":[6,11,6,9,4,12,5,10,7,9,15,14],"shift_direction":1,"question_num":21,"has_decoy":false},{"rt":2594.699999988079,"stimulus":"[A] option 1, [L] option 2, [G] neither","key_press":71,"name":"choice","trial_type":"html-keyboard-response","trial_index":43,"time_elapsed":81215,"internal_node_id":"0.0-43.0","subject":"S1C1211","sona":"41657","block":3,"time":"2021-09-15T17:17:20.841Z","response":"neither","certainty":"high","char":"G","transposition":2,"order":["swapped","shifted"],"probe_pitches":[14,11,5,8,5,3,8,11,10,14,9,12],"shifted_pitches":[14,11,5,8,5,3,7,11,10,14,9,12],"swapped_pitches":[14,11,5,8,5,8,3,11,10,14,9,12],"shift_direction":-1,"question_num":31,"has_decoy":false},{"rt":1894.7999999970198,"stimulus":"[A] option 1, [L] option 2, [G] neither","key_press":65,"name":"choice","trial_type":"html-keyboard-response","trial_index":54,"time_elapsed":101556,"internal_node_id":"0.0-54.0","subject":"S1C1211","sona":"41657","block":3,"time":"2021-09-15T17:17:20.841Z","response":"1st","certainty":"high","char":"A","transposition":-1,"order":["swapped","shifted"],"probe_pitches":[6,8,15,8,6,10,13,15,13,8,13,3],"shifted_pitches":[6,8,15,8,6,11,13,15,13,8,13,3],"swapped_pitches":[6,8,15,8,6,13,10,15,13,8,13,3],"shift_direction":1,"question_num":41,"has_decoy":false},{"rt":491.59999999403954,"stimulus":"[A] option 1, [L] option 2, [G] neither","key_press":76,"name":"choice","trial_type":"html-keyboard-response","trial_index":65,"time_elapsed":120401,"internal_node_id":"0.0-65.0","subject":"S1C1211","sona":"41657","block":3,"time":"2021-09-15T17:17:20.841Z","response":"2nd","certainty":"high","char":"L","transposition":-2,"order":["swapped","shifted"],"probe_pitches":[4,5,12,8,13,5,11,4,10,12,11,4],"shifted_pitches":[4,5,12,8,13,6,11,4,10,12,11,4],"swapped_pitches":[4,5,12,8,13,11,5,4,10,12,11,4],"shift_direction":1,"question_num":51,"has_decoy":false},{"rt":2578.5,"stimulus":"[A] option 1, [L] option 2, [G] neither","key_press":65,"name":"choice","trial_type":"html-keyboard-response","trial_index":76,"time_elapsed":141315,"internal_node_id":"0.0-76.0","subject":"S1C1211","sona":"41657","block":3,"time":"2021-09-15T17:17:20.841Z","response":"1st","certainty":"high","char":"A","transposition":-2,"order":["swapped","shifted"],"probe_pitches":[6,3,10,13,15,8,6,10,8,6,8,6],"shifted_pitches":[6,3,10,13,15,7,6,10,8,6,8,6],"swapped_pitches":[6,3,10,13,15,6,8,10,8,6,8,6],"shift_direction":-1,"question_num":61,"has_decoy":false},{"rt":3261.5,"stimulus":"[A] option 1, [L] option 2, [G] neither","key_press":65,"name":"choice","trial_type":"html-keyboard-response","trial_index":87,"time_elapsed":162993,"internal_node_id":"0.0-87.0","subject":"S1C1211","sona":"41657","block":3,"time":"2021-09-15T17:17:20.841Z","response":"1st","certainty":"high","char":"A","transposition":2,"order":["shifted","swapped"],"probe_pitches":[3,7,10,5,12,15,5,3,7,3,10,3],"shifted_pitches":[3,7,10,5,12,15,6,3,7,3,10,3],"swapped_pitches":[3,7,10,5,12,5,15,3,7,3,10,3],"shift_direction":1,"question_num":71,"has_decoy":false},{"rt":281.20000000298023,"stimulus":"[A] option 1, [L] option 2, [G] neither","key_press":76,"name":"choice","trial_type":"html-keyboard-response","trial_index":98,"time_elapsed":181583,"internal_node_id":"0.0-98.0","subject":"S1C1211","sona":"41657","block":3,"time":"2021-09-15T17:17:20.841Z","response":"2nd","certainty":"high","char":"L","transposition":3,"order":["shifted","swapped"],"probe_pitches":[4,3,9,6,10,12,9,4,15,4,9,15],"shifted_pitches":[4,3,9,6,10,12,8,4,15,4,9,15],"swapped_pitches":[4,3,9,6,10,9,12,4,15,4,9,15],"shift_direction":-1,"question_num":81,"has_decoy":false},{"rt":690,"stimulus":"[A] option 1, [L] option 2, [G] neither","key_press":76,"name":"choice","trial_type":"html-keyboard-response","trial_index":109,"time_elapsed":200502,"internal_node_id":"0.0-109.0","subject":"S1C1211","sona":"41657","block":3,"time":"2021-09-15T17:17:20.841Z","response":"2nd","certainty":"high","char":"L","transposition":-2,"order":["swapped","shifted"],"probe_pitches":[15,10,15,12,10,15,7,10,7,5,3,5],"shifted_pitches":[15,10,15,12,10,16,7,10,7,5,3,5],"swapped_pitches":[15,10,15,12,10,7,15,10,7,5,3,5],"shift_direction":1,"question_num":91,"has_decoy":false},{"rt":772.2000000029802,"stimulus":"[A] option 1, [L] option 2, [G] neither","key_press":65,"name":"choice","trial_type":"html-keyboard-response","trial_index":120,"time_elapsed":219682,"internal_node_id":"0.0-120.0","subject":"S1C1211","sona":"41657","block":3,"time":"2021-09-15T17:17:20.841Z","response":"1st","certainty":"high","char":"A","transposition":-1,"order":["swapped","shifted"],"probe_pitches":[5,8,15,12,5,3,10,12,5,15,3,15],"shifted_pitches":[5,8,15,12,5,2,10,12,5,15,3,15],"swapped_pitches":[5,8,15,12,5,10,3,12,5,15,3,15],"shift_direction":-1,"question_num":101,"has_decoy":false},{"rt":239.80000001192093,"stimulus":"[A] option 1, [L] option 2, [G] neither","key_press":76,"name":"choice","trial_type":"html-keyboard-response","trial_index":131,"time_elapsed":238340,"internal_node_id":"0.0-131.0","subject":"S1C1211","sona":"41657","block":3,"time":"2021-09-15T17:17:20.841Z","response":"2nd","certainty":"high","char":"L","transposition":-3,"order":["swapped","shifted"],"probe_pitches":[13,8,10,15,8,3,5,13,5,8,15,13],"shifted_pitches":[13,8,10,15,8,2,5,13,5,8,15,13],"swapped_pitches":[13,8,10,15,8,5,3,13,5,8,15,13],"shift_direction":-1,"question_num":111,"has_decoy":false},{"rt":461.1000000089407,"stimulus":"[A] option 1, [L] option 2, [G] neither","key_press":65,"name":"choice","trial_type":"html-keyboard-response","trial_index":142,"time_elapsed":257072,"internal_node_id":"0.0-142.0","subject":"S1C1211","sona":"41657","block":3,"time":"2021-09-15T17:17:20.841Z","response":"1st","certainty":"high","char":"A","transposition":0,"order":["shifted","swapped"],"probe_pitches":[11,15,8,3,8,11,5,8,5,13,12,9],"shifted_pitches":[11,15,8,3,8,10,5,8,5,13,12,9],"swapped_pitches":[11,15,8,3,8,5,11,8,5,13,12,9],"shift_direction":-1,"question_num":121,"has_decoy":false},{"rt":1011,"stimulus":"[A] option 1, [L] option 2, [G] neither","key_press":76,"name":"choice","trial_type":"html-keyboard-response","trial_index":153,"time_elapsed":277011,"internal_node_id":"0.0-153.0","subject":"S1C1211","sona":"41657","block":3,"time":"2021-09-15T17:17:20.841Z","response":"2nd","certainty":"high","char":"L","transposition":-2,"order":["swapped","shifted"],"probe_pitches":[3,4,3,4,6,12,3,8,12,6,10,8],"shifted_pitches":[3,4,3,4,6,11,3,8,12,6,10,8],"swapped_pitches":[3,4,3,4,6,3,12,8,12,6,10,8],"shift_direction":-1,"question_num":131,"has_decoy":false},{"rt":410.30000001192093,"stimulus":"[A] option 1, [L] option 2, [G] neither","key_press":65,"name":"choice","trial_type":"html-keyboard-response","trial_index":164,"time_elapsed":298751,"internal_node_id":"0.0-164.0","subject":"S1C1211","sona":"41657","block":3,"time":"2021-09-15T17:17:20.841Z","response":"1st","certainty":"high","char":"A","transposition":1,"order":["swapped","shifted"],"probe_pitches":[6,3,7,8,9,4,11,6,10,5,6,14],"shifted_pitches":[6,3,7,8,9,4,12,6,10,5,6,14],"swapped_pitches":[6,3,7,8,9,11,4,6,10,5,6,14],"shift_direction":1,"question_num":141,"has_decoy":false},{"rt":1211.5,"stimulus":"[A] option 1, [L] option 2, [G] neither","key_press":65,"name":"choice","trial_type":"html-keyboard-response","trial_index":175,"time_elapsed":318161,"internal_node_id":"0.0-175.0","subject":"S1C1211","sona":"41657","block":3,"time":"2021-09-15T17:17:20.841Z","response":"1st","certainty":"high","char":"A","transposition":3,"order":["shifted","swapped"],"probe_pitches":[5,3,5,8,12,10,15,8,5,8,15,8],"shifted_pitches":[5,3,5,8,12,10,16,8,5,8,15,8],"swapped_pitches":[5,3,5,8,12,15,10,8,5,8,15,8],"shift_direction":1,"question_num":151,"has_decoy":false},{"rt":958.4000000059605,"stimulus":"[A] option 1, [L] option 2, [G] neither","key_press":65,"name":"choice","trial_type":"html-keyboard-response","trial_index":186,"time_elapsed":340090,"internal_node_id":"0.0-186.0","subject":"S1C1211","sona":"41657","block":3,"time":"2021-09-15T17:17:20.841Z","response":"1st","certainty":"high","char":"A","transposition":-3,"order":["shifted","swapped"],"probe_pitches":[15,13,6,13,11,8,3,13,15,11,13,15],"shifted_pitches":[15,13,6,13,11,8,4,13,15,11,13,15],"swapped_pitches":[15,13,6,13,11,3,8,13,15,11,13,15],"shift_direction":1,"question_num":161,"has_decoy":false},{"rt":2096.2999999970198,"stimulus":"[A] option 1, [L] option 2, [G] neither","key_press":76,"name":"choice","trial_type":"html-keyboard-response","trial_index":197,"time_elapsed":360797,"internal_node_id":"0.0-197.0","subject":"S1C1211","sona":"41657","block":3,"time":"2021-09-15T17:17:20.841Z","response":"2nd","certainty":"high","char":"L","transposition":-1,"order":["shifted","swapped"],"probe_pitches":[12,13,6,12,15,8,11,12,10,7,3,6],"shifted_pitches":[12,13,6,12,15,9,11,12,10,7,3,6],"swapped_pitches":[12,13,6,12,15,11,8,12,10,7,3,6],"shift_direction":1,"question_num":171,"has_decoy":false},{"rt":408.40000000596046,"stimulus":"[A] option 1, [L] option 2, [G] neither","key_press":65,"name":"choice","trial_type":"html-keyboard-response","trial_index":208,"time_elapsed":379290,"internal_node_id":"0.0-208.0","subject":"S1C1211","sona":"41657","block":3,"time":"2021-09-15T17:17:20.841Z","response":"1st","certainty":"high","char":"A","transposition":0,"order":["shifted","swapped"],"probe_pitches":[6,8,3,6,15,8,6,13,8,11,3,13],"shifted_pitches":[6,8,3,6,15,8,5,13,8,11,3,13],"swapped_pitches":[6,8,3,6,15,6,8,13,8,11,3,13],"shift_direction":-1,"question_num":181,"has_decoy":false},{"rt":1229.2999999970198,"stimulus":"[A] option 1, [L] option 2, [G] neither","key_press":65,"name":"choice","trial_type":"html-keyboard-response","trial_index":219,"time_elapsed":398759,"internal_node_id":"0.0-219.0","subject":"S1C1211","sona":"41657","block":3,"time":"2021-09-15T17:17:20.841Z","response":"1st","certainty":"high","char":"A","transposition":1,"order":["shifted","swapped"],"probe_pitches":[5,10,5,10,13,3,5,15,13,8,5,8],"shifted_pitches":[5,10,5,10,13,3,4,15,13,8,5,8],"swapped_pitches":[5,10,5,10,13,5,3,15,13,8,5,8],"shift_direction":-1,"question_num":191,"has_decoy":false}]