[{"rt":1990.8999999910593,"stimulus":"[A] option 1, [L] option 2, [G] neither","key_press":65,"name":"choice","trial_type":"html-keyboard-response","trial_index":10,"time_elapsed":21009,"internal_node_id":"0.0-10.0","subject":"S1C1211","sona":"41657","block":5,"time":"2021-09-15T17:31:22.113Z","response":"1st","certainty":"high","char":"A","transposition":-3,"order":["shifted","swapped"],"probe_pitches":[7,2,4,9,4,9,2,-3,2,-1,-3,2],"shifted_pitches":[7,2,4,9,4,9,3,-3,2,-1,-3,2],"swapped_pitches":[7,2,4,9,4,2,9,-3,2,-1,-3,2],"shift_direction":1,"question_num":1,"has_decoy":false},{"rt":16241,"stimulus":"[A] option 1, [L] option 2, [G] neither","key_press":71,"name":"choice","trial_type":"html-keyboard-response","trial_index":21,"time_elapsed":55505,"internal_node_id":"0.0-21.0","subject":"S1C1211","sona":"41657","block":5,"time":"2021-09-15T17:31:22.113Z","response":"neither","certainty":"high","char":"G","transposition":1,"order":["swapped","shifted"],"probe_pitches":[2,3,4,8,-1,9,1,8,-1,2,7,-2],"shifted_pitches":[2,3,4,8,-1,9,0,8,-1,2,7,-2],"swapped_pitches":[2,3,4,8,-1,1,9,8,-1,2,7,-2],"shift_direction":-1,"question_num":11,"has_decoy":false},{"rt":230.29999999701977,"stimulus":"[A] option 1, [L] option 2, [G] neither","key_press":65,"name":"choice","trial_type":"html-keyboard-response","trial_index":32,"time_elapsed":74238,"internal_node_id":"0.0-32.0","subject":"S1C1211","sona":"41657","block":5,"time":"2021-09-15T17:31:22.113Z","response":"1st","certainty":"high","char":"A","transposition":-2,"order":["shifted","swapped"],"probe_pitches":[4,9,4,1,-1,-3,1,9,6,-1,1,-3],"shifted_pitches":[4,9,4,1,-1,-4,1,9,6,-1,1,-3],"swapped_pitches":[4,9,4,1,-1,1,-3,9,6,-1,1,-3],"shift_direction":-1,"question_num":21,"has_decoy":false},{"rt":2159.4000000059605,"stimulus":"[A] option 1, [L] option 2, [G] neither","key_press":71,"name":"choice","trial_type":"html-keyboard-response","trial_index":43,"time_elapsed":94647,"internal_node_id":"0.0-43.0","subject":"S1C1211","sona":"41657","block":5,"time":"2021-09-15T17:31:22.113Z","response":"neither","certainty":"high","char":"G","transposition":-1,"order":["swapped","shifted"],"probe_pitches":[7,8,6,1,-2,1,4,-1,8,-2,0,5],"shifted_pitches":[7,8,6,1,-2,2,4,-1,8,-2,0,5],"swapped_pitches":[7,8,6,1,-2,4,1,-1,8,-2,0,5],"shift_direction":1,"question_num":31,"has_decoy":false},{"rt":1018.1000000089407,"stimulus":"[A] option 1, [L] option 2, [G] neither","key_press":76,"name":"choice","trial_type":"html-keyboard-response","trial_index":54,"time_elapsed":114827,"internal_node_id":"0.0-54.0","subject":"S1C1211","sona":"41657","block":5,"time":"2021-09-15T17:31:22.113Z","response":"2nd","certainty":"high","char":"L","transposition":0,"order":["swapped","shifted"],"probe_pitches":[5,7,5,0,5,2,7,0,9,-3,7,-3],"shifted_pitches":[5,7,5,0,5,1,7,0,9,-3,7,-3],"swapped_pitches":[5,7,5,0,5,7,2,0,9,-3,7,-3],"shift_direction":-1,"question_num":41,"has_decoy":false},{"rt":367.29999999701977,"stimulus":"[A] option 1, [L] option 2, [G] neither","key_press":76,"name":"choice","trial_type":"html-keyboard-response","trial_index":65,"time_elapsed":134134,"internal_node_id":"0.0-65.0","subject":"S1C1211","sona":"41657","block":5,"time":"2021-09-15T17:31:22.113Z","response":"2nd","certainty":"high","char":"L","transposition":2,"order":["swapped","shifted"],"probe_pitches":[4,7,0,7,2,-3,4,2,0,9,4,0],"shifted_pitches":[4,7,0,7,2,-2,4,2,0,9,4,0],"swapped_pitches":[4,7,0,7,2,4,-3,2,0,9,4,0],"shift_direction":1,"question_num":51,"has_decoy":false},{"rt":1816.9000000059605,"stimulus":"[A] option 1, [L] option 2, [G] neither","key_press":76,"name":"choice","trial_type":"html-keyboard-response","trial_index":76,"time_elapsed":154896,"internal_node_id":"0.0-76.0","subject":"S1C1211","sona":"41657","block":5,"time":"2021-09-15T17:31:22.113Z","response":"2nd","certainty":"high","char":"L","transposition":0,"order":["swapped","shifted"],"probe_pitches":[3,8,1,2,7,1,3,-2,6,0,-3,2],"shifted_pitches":[3,8,1,2,7,1,4,-2,6,0,-3,2],"swapped_pitches":[3,8,1,2,7,3,1,-2,6,0,-3,2],"shift_direction":1,"question_num":61,"has_decoy":false},{"rt":1557.5,"stimulus":"[A] option 1, [L] option 2, [G] neither","key_press":76,"name":"choice","trial_type":"html-keyboard-response","trial_index":87,"time_elapsed":174707,"internal_node_id":"0.0-87.0","subject":"S1C1211","sona":"41657","block":5,"time":"2021-09-15T17:31:22.113Z","response":"2nd","certainty":"high","char":"L","transposition":-2,"order":["shifted","swapped"],"probe_pitches":[-3,-2,4,-2,-3,4,1,6,0,2,-1,2],"shifted_pitches":[-3,-2,4,-2,-3,5,1,6,0,2,-1,2],"swapped_pitches":[-3,-2,4,-2,-3,1,4,6,0,2,-1,2],"shift_direction":1,"question_num":71,"has_decoy":false},{"rt":817.5,"stimulus":"[A] option 1, [L] option 2, [G] neither","key_press":76,"name":"choice","trial_type":"html-keyboard-response","trial_index":98,"time_elapsed":197316,"internal_node_id":"0.0-98.0","subject":"S1C1211","sona":"41657","block":5,"time":"2021-09-15T17:31:22.113Z","response":"2nd","certainty":"high","char":"L","transposition":1,"order":["shifted","swapped"],"probe_pitches":[-1,4,2,4,2,-1,-3,6,-1,4,-3,6],"shifted_pitches":[-1,4,2,4,2,-1,-4,6,-1,4,-3,6],"swapped_pitches":[-1,4,2,4,2,-3,-1,6,-1,4,-3,6],"shift_direction":-1,"question_num":81,"has_decoy":false},{"rt":3137.7000000029802,"stimulus":"[A] option 1, [L] option 2, [G] neither","key_press":65,"name":"choice","trial_type":"html-keyboard-response","trial_index":109,"time_elapsed":218775,"internal_node_id":"0.0-109.0","subject":"S1C1211","sona":"41657","block":5,"time":"2021-09-15T17:31:22.113Z","response":"1st","certainty":"high","char":"A","transposition":3,"order":["swapped","shifted"],"probe_pitches":[4,9,2,-3,2,1,7,-3,-1,0,5,-3],"shifted_pitches":[4,9,2,-3,2,1,6,-3,-1,0,5,-3],"swapped_pitches":[4,9,2,-3,2,7,1,-3,-1,0,5,-3],"shift_direction":-1,"question_num":91,"has_decoy":false},{"rt":2507.0999999940395,"stimulus":"[A] option 1, [L] option 2, [G] neither","key_press":71,"name":"choice","trial_type":"html-keyboard-response","trial_index":120,"time_elapsed":240395,"internal_node_id":"0.0-120.0","subject":"S1C1211","sona":"41657","block":5,"time":"2021-09-15T17:31:22.113Z","response":"neither","certainty":"high","char":"G","transposition":2,"order":["shifted","swapped"],"probe_pitches":[7,2,5,7,3,-3,1,9,-1,7,-1,-3],"shifted_pitches":[7,2,5,7,3,-4,1,9,-1,7,-1,-3],"swapped_pitches":[7,2,5,7,3,1,-3,9,-1,7,-1,-3],"shift_direction":-1,"question_num":101,"has_decoy":false},{"rt":287,"stimulus":"[A] option 1, [L] option 2, [G] neither","key_press":65,"name":"choice","trial_type":"html-keyboard-response","trial_index":131,"time_elapsed":258966,"internal_node_id":"0.0-131.0","subject":"S1C1211","sona":"41657","block":5,"time":"2021-09-15T17:31:22.113Z","response":"1st","certainty":"high","char":"A","transposition":-2,"order":["swapped","shifted"],"probe_pitches":[-1,-3,-1,4,-3,6,2,4,9,2,4,6],"shifted_pitches":[-1,-3,-1,4,-3,6,3,4,9,2,4,6],"swapped_pitches":[-1,-3,-1,4,-3,2,6,4,9,2,4,6],"shift_direction":1,"question_num":111,"has_decoy":false},{"rt":297.70000000298023,"stimulus":"[A] option 1, [L] option 2, [G] neither","key_press":65,"name":"choice","trial_type":"html-keyboard-response","trial_index":142,"time_elapsed":277673,"internal_node_id":"0.0-142.0","subject":"S1C1211","sona":"41657","block":5,"time":"2021-09-15T17:31:22.113Z","response":"1st","certainty":"high","char":"A","transposition":-1,"order":["swapped","shifted"],"probe_pitches":[2,5,7,9,0,2,-3,7,9,7,2,0],"shifted_pitches":[2,5,7,9,0,1,-3,7,9,7,2,0],"swapped_pitches":[2,5,7,9,0,-3,2,7,9,7,2,0],"shift_direction":-1,"question_num":121,"has_decoy":false},{"rt":664.5999999940395,"stimulus":"[A] option 1, [L] option 2, [G] neither","key_press":76,"name":"choice","trial_type":"html-keyboard-response","trial_index":153,"time_elapsed":296611,"internal_node_id":"0.0-153.0","subject":"S1C1211","sona":"41657","block":5,"time":"2021-09-15T17:31:22.113Z","response":"2nd","certainty":"high","char":"L","transposition":-1,"order":["shifted","swapped"],"probe_pitches":[4,2,4,9,7,0,2,7,2,0,9,2],"shifted_pitches":[4,2,4,9,7,0,3,7,2,0,9,2],"swapped_pitches":[4,2,4,9,7,2,0,7,2,0,9,2],"shift_direction":1,"question_num":131,"has_decoy":false},{"rt":1596.5999999940395,"stimulus":"[A] option 1, [L] option 2, [G] neither","key_press":65,"name":"choice","trial_type":"html-keyboard-response","trial_index":164,"time_elapsed":316444,"internal_node_id":"0.0-164.0","subject":"S1C1211","sona":"41657","block":5,"time":"2021-09-15T17:31:22.113Z","response":"1st","certainty":"high","char":"A","transposition":-3,"order":["shifted","swapped"],"probe_pitches":[6,1,-1,1,9,4,1,-3,1,-1,-3,4],"shifted_pitches":[6,1,-1,1,9,4,0,-3,1,-1,-3,4],"swapped_pitches":[6,1,-1,1,9,1,4,-3,1,-1,-3,4],"shift_direction":-1,"question_num":141,"has_decoy":false},{"rt":1722.3999999910593,"stimulus":"[A] option 1, [L] option 2, [G] neither","key_press":76,"name":"choice","trial_type":"html-keyboard-response","trial_index":175,"time_elapsed":336480,"internal_node_id":"0.0-175.0","subject":"S1C1211","sona":"41657","block":5,"time":"2021-09-15T17:31:22.113Z","response":"2nd","certainty":"high","char":"L","transposition":3,"order":["swapped","shifted"],"probe_pitches":[2,7,2,-3,2,-1,-3,4,-3,9,2,9],"shifted_pitches":[2,7,2,-3,2,0,-3,4,-3,9,2,9],"swapped_pitches":[2,7,2,-3,2,-3,-1,4,-3,9,2,9],"shift_direction":1,"question_num":151,"has_decoy":false},{"rt":412.20000000298023,"stimulus":"[A] option 1, [L] option 2, [G] neither","key_press":71,"name":"choice","trial_type":"html-keyboard-response","trial_index":186,"time_elapsed":355720,"internal_node_id":"0.0-186.0","subject":"S1C1211","sona":"41657","block":5,"time":"2021-09-15T17:31:22.113Z","response":"neither","certainty":"high","char":"G","transposition":-1,"order":["shifted","swapped"],"probe_pitches":[2,1,7,6,-3,-2,4,7,-3,-2,1,2],"shifted_pitches":[2,1,7,6,-3,-2,3,7,-3,-2,1,2],"swapped_pitches":[2,1,7,6,-3,4,-2,7,-3,-2,1,2],"shift_direction":-1,"question_num":161,"has_decoy":false},{"rt":842.0999999940395,"stimulus":"[A] option 1, [L] option 2, [G] neither","key_press":76,"name":"choice","trial_type":"html-keyboard-response","trial_index":197,"time_elapsed":374802,"internal_node_id":"0.0-197.0","subject":"S1C1211","sona":"41657","block":5,"time":"2021-09-15T17:31:22.113Z","response":"2nd","certainty":"high","char":"L","transposition":-2,"order":["swapped","shifted"],"probe_pitches":[0,4,7,8,2,0,3,5,-2,6,3,-1],"shifted_pitches":[0,4,7,8,2,1,3,5,-2,6,3,-1],"swapped_pitches":[0,4,7,8,2,3,0,5,-2,6,3,-1],"shift_direction":1,"question_num":171,"has_decoy":false},{"rt":244,"stimulus":"[A] option 1, [L] option 2, [G] neither","key_press":76,"name":"choice","trial_type":"html-keyboard-response","trial_index":208,"time_elapsed":393302,"internal_node_id":"0.0-208.0","subject":"S1C1211","sona":"41657","block":5,"time":"2021-09-15T17:31:22.113Z","response":"2nd","certainty":"high","char":"L","transposition":-3,"order":["shifted","swapped"],"probe_pitches":[-2,0,2,-1,0,5,6,2,-1,9,8,0],"shifted_pitches":[-2,0,2,-1,0,5,7,2,-1,9,8,0],"swapped_pitches":[-2,0,2,-1,0,6,5,2,-1,9,8,0],"shift_direction":1,"question_num":181,"has_decoy":false},{"rt":384.40000000596046,"stimulus":"[A] option 1, [L] option 2, [G] neither","key_press":65,"name":"choice","trial_type":"html-keyboard-response","trial_index":219,"time_elapsed":412192,"internal_node_id":"0.0-219.0","subject":"S1C1211","sona":"41657","block":5,"time":"2021-09-15T17:31:22.113Z","response":"1st","certainty":"high","char":"A","transposition":-3,"order":["shifted","swapped"],"probe_pitches":[9,5,6,0,-2,0,1,6,2,8,2,9],"shifted_pitches":[9,5,6,0,-2,-1,1,6,2,8,2,9],"swapped_pitches":[9,5,6,0,-2,1,0,6,2,8,2,9],"shift_direction":-1,"question_num":191,"has_decoy":false}]