[{"rt":1123.0999999940395,"stimulus":"[A] option 1, [L] option 2, [G] neither","key_press":65,"name":"choice","trial_type":"html-keyboard-response","trial_index":10,"time_elapsed":21037,"internal_node_id":"0.0-10.0","subject":"S1C1211","sona":"41657","block":6,"time":"2021-09-15T17:37:57.985Z","response":"1st","certainty":"high","char":"A","transposition":-3,"order":["shifted","swapped"],"probe_pitches":[10,14,7,15,7,9,12,10,9,13,15,4],"shifted_pitches":[10,14,7,15,7,9,11,10,9,13,15,4],"swapped_pitches":[10,14,7,15,7,12,9,10,9,13,15,4],"shift_direction":-1,"question_num":1,"has_decoy":false},{"rt":1820.0999999940395,"stimulus":"[A] option 1, [L] option 2, [G] neither","key_press":71,"name":"choice","trial_type":"html-keyboard-response","trial_index":21,"time_elapsed":40947,"internal_node_id":"0.0-21.0","subject":"S1C1211","sona":"41657","block":6,"time":"2021-09-15T17:37:57.985Z","response":"neither","certainty":"high","char":"G","transposition":-3,"order":["swapped","shifted"],"probe_pitches":[0,5,9,7,2,0,5,9,5,7,5,2],"shifted_pitches":[0,5,9,7,2,-1,5,9,5,7,5,2],"swapped_pitches":[0,5,9,7,2,5,0,9,5,7,5,2],"shift_direction":-1,"question_num":11,"has_decoy":false},{"rt":1043.2000000029802,"stimulus":"[A] option 1, [L] option 2, [G] neither","key_press":76,"name":"choice","trial_type":"html-keyboard-response","trial_index":32,"time_elapsed":60618,"internal_node_id":"0.0-32.0","subject":"S1C1211","sona":"41657","block":6,"time":"2021-09-15T17:37:57.985Z","response":"2nd","certainty":"high","char":"L","transposition":-1,"order":["swapped","shifted"],"probe_pitches":[15,10,4,6,13,4,9,3,15,9,11,14],"shifted_pitches":[15,10,4,6,13,4,8,3,15,9,11,14],"swapped_pitches":[15,10,4,6,13,9,4,3,15,9,11,14],"shift_direction":-1,"question_num":21,"has_decoy":false},{"rt":2760.7999999970198,"stimulus":"[A] option 1, [L] option 2, [G] neither","key_press":71,"name":"choice","trial_type":"html-keyboard-response","trial_index":43,"time_elapsed":81646,"internal_node_id":"0.0-43.0","subject":"S1C1211","sona":"41657","block":6,"time":"2021-09-15T17:37:57.985Z","response":"neither","certainty":"high","char":"G","transposition":1,"order":["swapped","shifted"],"probe_pitches":[5,6,8,10,15,14,8,3,10,6,10,5],"shifted_pitches":[5,6,8,10,15,13,8,3,10,6,10,5],"swapped_pitches":[5,6,8,10,15,8,14,3,10,6,10,5],"shift_direction":-1,"question_num":31,"has_decoy":false},{"rt":2458.2000000029802,"stimulus":"[A] option 1, [L] option 2, [G] neither","key_press":71,"name":"choice","trial_type":"html-keyboard-response","trial_index":54,"time_elapsed":102574,"internal_node_id":"0.0-54.0","subject":"S1C1211","sona":"41657","block":6,"time":"2021-09-15T17:37:57.985Z","response":"neither","certainty":"high","char":"G","transposition":2,"order":["shifted","swapped"],"probe_pitches":[-3,0,7,2,4,2,7,9,2,-3,0,4],"shifted_pitches":[-3,0,7,2,4,2,6,9,2,-3,0,4],"swapped_pitches":[-3,0,7,2,4,7,2,9,2,-3,0,4],"shift_direction":-1,"question_num":41,"has_decoy":false},{"rt":220.79999999701977,"stimulus":"[A] option 1, [L] option 2, [G] neither","key_press":76,"name":"choice","trial_type":"html-keyboard-response","trial_index":65,"time_elapsed":121085,"internal_node_id":"0.0-65.0","subject":"S1C1211","sona":"41657","block":6,"time":"2021-09-15T17:37:57.985Z","response":"2nd","certainty":"high","char":"L","transposition":-2,"order":["swapped","shifted"],"probe_pitches":[4,3,6,10,3,11,14,9,13,7,8,3],"shifted_pitches":[4,3,6,10,3,12,14,9,13,7,8,3],"swapped_pitches":[4,3,6,10,3,14,11,9,13,7,8,3],"shift_direction":1,"question_num":51,"has_decoy":false},{"rt":1829,"stimulus":"[A] option 1, [L] option 2, [G] neither","key_press":71,"name":"choice","trial_type":"html-keyboard-response","trial_index":76,"time_elapsed":141216,"internal_node_id":"0.0-76.0","subject":"S1C1211","sona":"41657","block":6,"time":"2021-09-15T17:37:57.985Z","response":"neither","certainty":"high","char":"G","transposition":3,"order":["shifted","swapped"],"probe_pitches":[8,11,5,12,14,5,11,9,14,15,5,11],"shifted_pitches":[8,11,5,12,14,5,10,9,14,15,5,11],"swapped_pitches":[8,11,5,12,14,11,5,9,14,15,5,11],"shift_direction":-1,"question_num":61,"has_decoy":false},{"rt":187.70000000298023,"stimulus":"[A] option 1, [L] option 2, [G] neither","key_press":76,"name":"choice","trial_type":"html-keyboard-response","trial_index":87,"time_elapsed":159703,"internal_node_id":"0.0-87.0","subject":"S1C1211","sona":"41657","block":6,"time":"2021-09-15T17:37:57.985Z","response":"2nd","certainty":"high","char":"L","transposition":-2,"order":["swapped","shifted"],"probe_pitches":[11,13,8,7,5,3,12,8,9,6,13,15],"shifted_pitches":[11,13,8,7,5,2,12,8,9,6,13,15],"swapped_pitches":[11,13,8,7,5,12,3,8,9,6,13,15],"shift_direction":-1,"question_num":71,"has_decoy":false},{"rt":1498.300000011921,"stimulus":"[A] option 1, [L] option 2, [G] neither","key_press":71,"name":"choice","trial_type":"html-keyboard-response","trial_index":98,"time_elapsed":179495,"internal_node_id":"0.0-98.0","subject":"S1C1211","sona":"41657","block":6,"time":"2021-09-15T17:37:57.985Z","response":"neither","certainty":"high","char":"G","transposition":-1,"order":["shifted","swapped"],"probe_pitches":[8,13,12,11,10,6,8,3,15,9,6,12],"shifted_pitches":[8,13,12,11,10,7,8,3,15,9,6,12],"swapped_pitches":[8,13,12,11,10,8,6,3,15,9,6,12],"shift_direction":1,"question_num":81,"has_decoy":false},{"rt":755.8999999910593,"stimulus":"[A] option 1, [L] option 2, [G] neither","key_press":71,"name":"choice","trial_type":"html-keyboard-response","trial_index":109,"time_elapsed":198471,"internal_node_id":"0.0-109.0","subject":"S1C1211","sona":"41657","block":6,"time":"2021-09-15T17:37:57.985Z","response":"neither","certainty":"high","char":"G","transposition":3,"order":["swapped","shifted"],"probe_pitches":[4,-1,2,-3,2,4,-3,-1,-3,6,2,4],"shifted_pitches":[4,-1,2,-3,2,5,-3,-1,-3,6,2,4],"swapped_pitches":[4,-1,2,-3,2,-3,4,-1,-3,6,2,4],"shift_direction":1,"question_num":91,"has_decoy":false},{"rt":1329.199999988079,"stimulus":"[A] option 1, [L] option 2, [G] neither","key_press":76,"name":"choice","trial_type":"html-keyboard-response","trial_index":120,"time_elapsed":217854,"internal_node_id":"0.0-120.0","subject":"S1C1211","sona":"41657","block":6,"time":"2021-09-15T17:37:57.985Z","response":"2nd","certainty":"high","char":"L","transposition":0,"order":["swapped","shifted"],"probe_pitches":[0,-3,2,-3,5,0,-3,2,9,7,0,9],"shifted_pitches":[0,-3,2,-3,5,0,-4,2,9,7,0,9],"swapped_pitches":[0,-3,2,-3,5,-3,0,2,9,7,0,9],"shift_direction":-1,"question_num":101,"has_decoy":false},{"rt":647.2000000029802,"stimulus":"[A] option 1, [L] option 2, [G] neither","key_press":65,"name":"choice","trial_type":"html-keyboard-response","trial_index":131,"time_elapsed":236754,"internal_node_id":"0.0-131.0","subject":"S1C1211","sona":"41657","block":6,"time":"2021-09-15T17:37:57.985Z","response":"1st","certainty":"high","char":"A","transposition":-1,"order":["shifted","swapped"],"probe_pitches":[9,7,9,4,-1,2,-3,-1,4,7,9,-1],"shifted_pitches":[9,7,9,4,-1,2,-4,-1,4,7,9,-1],"swapped_pitches":[9,7,9,4,-1,-3,2,-1,4,7,9,-1],"shift_direction":-1,"question_num":111,"has_decoy":false},{"rt":1538.5,"stimulus":"[A] option 1, [L] option 2, [G] neither","key_press":65,"name":"choice","trial_type":"html-keyboard-response","trial_index":142,"time_elapsed":256554,"internal_node_id":"0.0-142.0","subject":"S1C1211","sona":"41657","block":6,"time":"2021-09-15T17:37:57.985Z","response":"1st","certainty":"high","char":"A","transposition":-3,"order":["shifted","swapped"],"probe_pitches":[4,6,3,10,6,10,4,6,7,8,7,11],"shifted_pitches":[4,6,3,10,6,10,5,6,7,8,7,11],"swapped_pitches":[4,6,3,10,6,4,10,6,7,8,7,11],"shift_direction":1,"question_num":121,"has_decoy":false},{"rt":1518.2999999970198,"stimulus":"[A] option 1, [L] option 2, [G] neither","key_press":76,"name":"choice","trial_type":"html-keyboard-response","trial_index":153,"time_elapsed":276363,"internal_node_id":"0.0-153.0","subject":"S1C1211","sona":"41657","block":6,"time":"2021-09-15T17:37:57.985Z","response":"2nd","certainty":"high","char":"L","transposition":-2,"order":["swapped","shifted"],"probe_pitches":[-1,-3,-1,6,4,-1,6,9,6,-3,2,9],"shifted_pitches":[-1,-3,-1,6,4,-2,6,9,6,-3,2,9],"swapped_pitches":[-1,-3,-1,6,4,6,-1,9,6,-3,2,9],"shift_direction":-1,"question_num":131,"has_decoy":false},{"rt":1197.2999999970198,"stimulus":"[A] option 1, [L] option 2, [G] neither","key_press":71,"name":"choice","trial_type":"html-keyboard-response","trial_index":164,"time_elapsed":296744,"internal_node_id":"0.0-164.0","subject":"S1C1211","sona":"41657","block":6,"time":"2021-09-15T17:37:57.985Z","response":"neither","certainty":"high","char":"G","transposition":0,"order":["shifted","swapped"],"probe_pitches":[12,8,12,4,3,8,14,5,15,14,8,10],"shifted_pitches":[12,8,12,4,3,9,14,5,15,14,8,10],"swapped_pitches":[12,8,12,4,3,14,8,5,15,14,8,10],"shift_direction":1,"question_num":141,"has_decoy":false},{"rt":209.3999999910593,"stimulus":"[A] option 1, [L] option 2, [G] neither","key_press":65,"name":"choice","trial_type":"html-keyboard-response","trial_index":175,"time_elapsed":315192,"internal_node_id":"0.0-175.0","subject":"S1C1211","sona":"41657","block":6,"time":"2021-09-15T17:37:57.985Z","response":"1st","certainty":"high","char":"A","transposition":-2,"order":["shifted","swapped"],"probe_pitches":[9,4,7,2,9,4,7,0,2,4,2,0],"shifted_pitches":[9,4,7,2,9,5,7,0,2,4,2,0],"swapped_pitches":[9,4,7,2,9,7,4,0,2,4,2,0],"shift_direction":1,"question_num":151,"has_decoy":false},{"rt":247,"stimulus":"[A] option 1, [L] option 2, [G] neither","key_press":76,"name":"choice","trial_type":"html-keyboard-response","trial_index":186,"time_elapsed":333713,"internal_node_id":"0.0-186.0","subject":"S1C1211","sona":"41657","block":6,"time":"2021-09-15T17:37:57.985Z","response":"2nd","certainty":"high","char":"L","transposition":2,"order":["swapped","shifted"],"probe_pitches":[13,15,14,11,13,9,5,3,10,3,4,7],"shifted_pitches":[13,15,14,11,13,9,6,3,10,3,4,7],"swapped_pitches":[13,15,14,11,13,5,9,3,10,3,4,7],"shift_direction":1,"question_num":161,"has_decoy":false},{"rt":1176.8999999910593,"stimulus":"[A] option 1, [L] option 2, [G] neither","key_press":71,"name":"choice","trial_type":"html-keyboard-response","trial_index":197,"time_elapsed":352922,"internal_node_id":"0.0-197.0","subject":"S1C1211","sona":"41657","block":6,"time":"2021-09-15T17:37:57.985Z","response":"neither","certainty":"high","char":"G","transposition":1,"order":["shifted","swapped"],"probe_pitches":[6,4,-3,-1,4,1,-3,4,9,6,1,-3],"shifted_pitches":[6,4,-3,-1,4,1,-2,4,9,6,1,-3],"swapped_pitches":[6,4,-3,-1,4,-3,1,4,9,6,1,-3],"shift_direction":1,"question_num":171,"has_decoy":false},{"rt":2244.2999999970198,"stimulus":"[A] option 1, [L] option 2, [G] neither","key_press":71,"name":"choice","trial_type":"html-keyboard-response","trial_index":208,"time_elapsed":373422,"internal_node_id":"0.0-208.0","subject":"S1C1211","sona":"41657","block":6,"time":"2021-09-15T17:37:57.985Z","response":"neither","certainty":"high","char":"G","transposition":-1,"order":["shifted","swapped"],"probe_pitches":[-3,2,-1,7,4,-3,2,9,-1,2,-3,7],"shifted_pitches":[-3,2,-1,7,4,-3,3,9,-1,2,-3,7],"swapped_pitches":[-3,2,-1,7,4,2,-3,9,-1,2,-3,7],"shift_direction":1,"question_num":181,"has_decoy":false},{"rt":276.79999999701977,"stimulus":"[A] option 1, [L] option 2, [G] neither","key_press":65,"name":"choice","trial_type":"html-keyboard-response","trial_index":219,"time_elapsed":392062,"internal_node_id":"0.0-219.0","subject":"S1C1211","sona":"41657","block":6,"time":"2021-09-15T17:37:57.985Z","response":"1st","certainty":"high","char":"A","transposition":-3,"order":["swapped","shifted"],"probe_pitches":[-3,1,-3,-1,-3,1,9,-1,6,4,1,4],"shifted_pitches":[-3,1,-3,-1,-3,2,9,-1,6,4,1,4],"swapped_pitches":[-3,1,-3,-1,-3,9,1,-1,6,4,1,4],"shift_direction":1,"question_num":191,"has_decoy":false}]