[{"rt":3540.4000000059605,"stimulus":"[A] option 1, [L] option 2, [G] neither","key_press":76,"name":"choice","trial_type":"html-keyboard-response","trial_index":15,"time_elapsed":48344,"internal_node_id":"0.0-15.0","response":"2nd","certainty":"high","char":"L","transposition":1,"order":["shifted","swapped"],"probe_pitches":[1,6,10,4,8,1,9,7,10,-2,7,1],"shifted_pitches":[1,6,10,4,8,0,9,7,10,-2,7,1],"swapped_pitches":[1,6,10,4,8,9,1,7,10,-2,7,1],"shift_direction":-1,"question_num":1,"has_decoy":false,"subject":"S1C1211","sona":"41657","block":1,"time":"2021-09-15T17:03:46.968Z"},{"rt":1651,"stimulus":"[A] option 1, [L] option 2, [G] neither","key_press":76,"name":"choice","trial_type":"html-keyboard-response","trial_index":26,"time_elapsed":69465,"internal_node_id":"0.0-26.0","response":"2nd","certainty":"high","char":"L","transposition":-3,"order":["swapped","shifted"],"probe_pitches":[-2,1,3,0,-1,7,5,2,9,7,10,3],"shifted_pitches":[-2,1,3,0,-1,7,6,2,9,7,10,3],"swapped_pitches":[-2,1,3,0,-1,5,7,2,9,7,10,3],"shift_direction":1,"question_num":11,"has_decoy":false,"subject":"S1C1211","sona":"41657","block":1,"time":"2021-09-15T17:03:46.968Z"},{"rt":1240.5,"stimulus":"[A] option 1, [L] option 2, [G] neither","key_press":65,"name":"choice","trial_type":"html-keyboard-response","trial_index":37,"time_elapsed":89754,"internal_node_id":"0.0-37.0","response":"1st","certainty":"high","char":"A","transposition":-3,"order":["swapped","shifted"],"probe_pitches":[3,7,10,7,5,7,0,10,5,7,3,10],"shifted_pitches":[3,7,10,7,5,7,1,10,5,7,3,10],"swapped_pitches":[3,7,10,7,5,0,7,10,5,7,3,10],"shift_direction":1,"question_num":21,"has_decoy":false,"subject":"S1C1211","sona":"41657","block":1,"time":"2021-09-15T17:03:46.968Z"},{"rt":2758.4000000059605,"stimulus":"[A] option 1, [L] option 2, [G] neither","key_press":65,"name":"choice","trial_type":"html-keyboard-response","trial_index":48,"time_elapsed":116883,"internal_node_id":"0.0-48.0","response":"1st","certainty":"high","char":"A","transposition":-1,"order":["swapped","shifted"],"probe_pitches":[1,-1,4,0,8,9,3,7,4,10,1,8],"shifted_pitches":[1,-1,4,0,8,9,2,7,4,10,1,8],"swapped_pitches":[1,-1,4,0,8,3,9,7,4,10,1,8],"shift_direction":-1,"question_num":31,"has_decoy":false,"subject":"S1C1211","sona":"41657","block":1,"time":"2021-09-15T17:03:46.968Z"},{"rt":22478.29999999702,"stimulus":"[A] option 1, [L] option 2, [G] neither","key_press":76,"name":"choice","trial_type":"html-keyboard-response","trial_index":59,"time_elapsed":165442,"internal_node_id":"0.0-59.0","response":"2nd","certainty":"high","char":"L","transposition":1,"order":["swapped","shifted"],"probe_pitches":[-2,1,8,5,10,8,5,10,8,5,3,5],"shifted_pitches":[-2,1,8,5,10,7,5,10,8,5,3,5],"swapped_pitches":[-2,1,8,5,10,5,8,10,8,5,3,5],"shift_direction":-1,"question_num":41,"has_decoy":false,"subject":"S1C1211","sona":"41657","block":1,"time":"2021-09-15T17:03:46.968Z"},{"rt":418.40000000596046,"stimulus":"[A] option 1, [L] option 2, [G] neither","key_press":65,"name":"choice","trial_type":"html-keyboard-response","trial_index":70,"time_elapsed":190912,"internal_node_id":"0.0-70.0","response":"1st","certainty":"high","char":"A","transposition":0,"order":["shifted","swapped"],"probe_pitches":[3,6,10,6,1,6,3,1,10,3,1,8],"shifted_pitches":[3,6,10,6,1,6,4,1,10,3,1,8],"swapped_pitches":[3,6,10,6,1,3,6,1,10,3,1,8],"shift_direction":1,"question_num":51,"has_decoy":false,"subject":"S1C1211","sona":"41657","block":1,"time":"2021-09-15T17:03:46.968Z"},{"rt":944,"stimulus":"[A] option 1, [L] option 2, [G] neither","key_press":76,"name":"choice","trial_type":"html-keyboard-response","trial_index":81,"time_elapsed":210921,"internal_node_id":"0.0-81.0","response":"2nd","certainty":"high","char":"L","transposition":-3,"order":["swapped","shifted"],"probe_pitches":[9,7,6,9,2,1,3,9,7,1,2,3],"shifted_pitches":[9,7,6,9,2,1,4,9,7,1,2,3],"swapped_pitches":[9,7,6,9,2,3,1,9,7,1,2,3],"shift_direction":1,"question_num":61,"has_decoy":false,"subject":"S1C1211","sona":"41657","block":1,"time":"2021-09-15T17:03:46.968Z"},{"rt":142217.60000000894,"stimulus":"[A] option 1, [L] option 2, [G] neither","key_press":65,"name":"choice","trial_type":"html-keyboard-response","trial_index":92,"time_elapsed":372352,"internal_node_id":"0.0-92.0","response":"1st","certainty":"high","char":"A","transposition":-2,"order":["shifted","swapped"],"probe_pitches":[5,0,-1,4,8,4,-2,0,1,5,4,2],"shifted_pitches":[5,0,-1,4,8,3,-2,0,1,5,4,2],"swapped_pitches":[5,0,-1,4,8,-2,4,0,1,5,4,2],"shift_direction":-1,"question_num":71,"has_decoy":false,"subject":"S1C1211","sona":"41657","block":1,"time":"2021-09-15T17:03:46.968Z"},{"rt":346208.40000000596,"stimulus":"[A] option 1, [L] option 2, [G] neither","key_press":76,"name":"choice","trial_type":"html-keyboard-response","trial_index":103,"time_elapsed":738130,"internal_node_id":"0.0-103.0","response":"2nd","certainty":"high","char":"L","transposition":-2,"order":["shifted","swapped"],"probe_pitches":[1,0,2,10,8,10,6,1,4,10,4,5],"shifted_pitches":[1,0,2,10,8,10,7,1,4,10,4,5],"swapped_pitches":[1,0,2,10,8,6,10,1,4,10,4,5],"shift_direction":1,"question_num":81,"has_decoy":false,"subject":"S1C1211","sona":"41657","block":1,"time":"2021-09-15T17:03:46.968Z"},{"rt":3039,"stimulus":"[A] option 1, [L] option 2, [G] neither","key_press":65,"name":"choice","trial_type":"html-keyboard-response","trial_index":114,"time_elapsed":761661,"internal_node_id":"0.0-114.0","response":"1st","certainty":"high","char":"A","transposition":2,"order":["shifted","swapped"],"probe_pitches":[-1,2,6,7,2,6,8,3,-2,9,10,3],"shifted_pitches":[-1,2,6,7,2,5,8,3,-2,9,10,3],"swapped_pitches":[-1,2,6,7,2,8,6,3,-2,9,10,3],"shift_direction":-1,"question_num":91,"has_decoy":false,"subject":"S1C1211","sona":"41657","block":1,"time":"2021-09-15T17:03:46.968Z"},{"rt":1256.5999999940395,"stimulus":"[A] option 1, [L] option 2, [G] neither","key_press":76,"name":"choice","trial_type":"html-keyboard-response","trial_index":125,"time_elapsed":783020,"internal_node_id":"0.0-125.0","response":"2nd","certainty":"high","char":"L","transposition":2,"order":["shifted","swapped"],"probe_pitches":[5,2,-2,5,2,0,5,10,2,7,2,7],"shifted_pitches":[5,2,-2,5,2,0,6,10,2,7,2,7],"swapped_pitches":[5,2,-2,5,2,5,0,10,2,7,2,7],"shift_direction":1,"question_num":101,"has_decoy":false,"subject":"S1C1211","sona":"41657","block":1,"time":"2021-09-15T17:03:46.968Z"},{"rt":2116.1000000089407,"stimulus":"[A] option 1, [L] option 2, [G] neither","key_press":65,"name":"choice","trial_type":"html-keyboard-response","trial_index":136,"time_elapsed":804370,"internal_node_id":"0.0-136.0","response":"1st","certainty":"high","char":"A","transposition":-3,"order":["shifted","swapped"],"probe_pitches":[-2,3,5,-2,3,10,0,5,3,7,3,-2],"shifted_pitches":[-2,3,5,-2,3,10,-1,5,3,7,3,-2],"swapped_pitches":[-2,3,5,-2,3,0,10,5,3,7,3,-2],"shift_direction":-1,"question_num":111,"has_decoy":false,"subject":"S1C1211","sona":"41657","block":1,"time":"2021-09-15T17:03:46.968Z"},{"rt":1296.9000000059605,"stimulus":"[A] option 1, [L] option 2, [G] neither","key_press":76,"name":"choice","trial_type":"html-keyboard-response","trial_index":147,"time_elapsed":876558,"internal_node_id":"0.0-147.0","response":"2nd","certainty":"high","char":"L","transposition":-2,"order":["shifted","swapped"],"probe_pitches":[5,8,1,5,3,8,1,3,-2,8,3,10],"shifted_pitches":[5,8,1,5,3,9,1,3,-2,8,3,10],"swapped_pitches":[5,8,1,5,3,1,8,3,-2,8,3,10],"shift_direction":1,"question_num":121,"has_decoy":false,"subject":"S1C1211","sona":"41657","block":1,"time":"2021-09-15T17:03:46.968Z"},{"rt":1214.7999999970198,"stimulus":"[A] option 1, [L] option 2, [G] neither","key_press":76,"name":"choice","trial_type":"html-keyboard-response","trial_index":158,"time_elapsed":896986,"internal_node_id":"0.0-158.0","response":"2nd","certainty":"high","char":"L","transposition":3,"order":["swapped","shifted"],"probe_pitches":[1,2,1,2,4,1,10,5,-2,3,0,2],"shifted_pitches":[1,2,1,2,4,1,9,5,-2,3,0,2],"swapped_pitches":[1,2,1,2,4,10,1,5,-2,3,0,2],"shift_direction":-1,"question_num":131,"has_decoy":false,"subject":"S1C1211","sona":"41657","block":1,"time":"2021-09-15T17:03:46.968Z"},{"rt":107.20000000298023,"stimulus":"[A] option 1, [L] option 2, [G] neither","key_press":76,"name":"choice","trial_type":"html-keyboard-response","trial_index":169,"time_elapsed":915585,"internal_node_id":"0.0-169.0","response":"2nd","certainty":"high","char":"L","transposition":0,"order":["swapped","shifted"],"probe_pitches":[2,5,9,7,9,7,2,4,9,4,5,-1],"shifted_pitches":[2,5,9,7,9,8,2,4,9,4,5,-1],"swapped_pitches":[2,5,9,7,9,2,7,4,9,4,5,-1],"shift_direction":1,"question_num":141,"has_decoy":false,"subject":"S1C1211","sona":"41657","block":1,"time":"2021-09-15T17:03:46.968Z"},{"rt":1423.5999999940395,"stimulus":"[A] option 1, [L] option 2, [G] neither","key_press":76,"name":"choice","trial_type":"html-keyboard-response","trial_index":180,"time_elapsed":935407,"internal_node_id":"0.0-180.0","response":"2nd","certainty":"high","char":"L","transposition":-1,"order":["shifted","swapped"],"probe_pitches":[9,4,3,8,6,0,5,9,0,2,0,4],"shifted_pitches":[9,4,3,8,6,1,5,9,0,2,0,4],"swapped_pitches":[9,4,3,8,6,5,0,9,0,2,0,4],"shift_direction":1,"question_num":151,"has_decoy":false,"subject":"S1C1211","sona":"41657","block":1,"time":"2021-09-15T17:03:46.968Z"},{"rt":1954.1000000089407,"stimulus":"[A] option 1, [L] option 2, [G] neither","key_press":65,"name":"choice","trial_type":"html-keyboard-response","trial_index":191,"time_elapsed":957795,"internal_node_id":"0.0-191.0","response":"1st","certainty":"high","char":"A","transposition":-2,"order":["swapped","shifted"],"probe_pitches":[5,0,-2,3,8,3,5,8,-2,5,-2,3],"shifted_pitches":[5,0,-2,3,8,2,5,8,-2,5,-2,3],"swapped_pitches":[5,0,-2,3,8,5,3,8,-2,5,-2,3],"shift_direction":-1,"question_num":161,"has_decoy":false,"subject":"S1C1211","sona":"41657","block":1,"time":"2021-09-15T17:03:46.968Z"},{"rt":362.79999999701977,"stimulus":"[A] option 1, [L] option 2, [G] neither","key_press":65,"name":"choice","trial_type":"html-keyboard-response","trial_index":202,"time_elapsed":981356,"internal_node_id":"0.0-202.0","response":"1st","certainty":"high","char":"A","transposition":-1,"order":["swapped","shifted"],"probe_pitches":[1,-2,1,3,6,1,8,-2,1,10,3,10],"shifted_pitches":[1,-2,1,3,6,1,9,-2,1,10,3,10],"swapped_pitches":[1,-2,1,3,6,8,1,-2,1,10,3,10],"shift_direction":1,"question_num":171,"has_decoy":false,"subject":"S1C1211","sona":"41657","block":1,"time":"2021-09-15T17:03:46.968Z"},{"rt":405.5,"stimulus":"[A] option 1, [L] option 2, [G] neither","key_press":76,"name":"choice","trial_type":"html-keyboard-response","trial_index":213,"time_elapsed":1001416,"internal_node_id":"0.0-213.0","response":"2nd","certainty":"high","char":"L","transposition":3,"order":["swapped","shifted"],"probe_pitches":[8,3,8,0,-2,5,0,3,0,10,5,-2],"shifted_pitches":[8,3,8,0,-2,4,0,3,0,10,5,-2],"swapped_pitches":[8,3,8,0,-2,0,5,3,0,10,5,-2],"shift_direction":-1,"question_num":181,"has_decoy":false,"subject":"S1C1211","sona":"41657","block":1,"time":"2021-09-15T17:03:46.968Z"},{"rt":265.20000000298023,"stimulus":"[A] option 1, [L] option 2, [G] neither","key_press":65,"name":"choice","trial_type":"html-keyboard-response","trial_index":224,"time_elapsed":1020126,"internal_node_id":"0.0-224.0","response":"1st","certainty":"high","char":"A","transposition":-1,"order":["shifted","swapped"],"probe_pitches":[5,7,2,-2,7,5,10,7,5,0,7,0],"shifted_pitches":[5,7,2,-2,7,4,10,7,5,0,7,0],"swapped_pitches":[5,7,2,-2,7,10,5,7,5,0,7,0],"shift_direction":-1,"question_num":191,"has_decoy":false,"subject":"S1C1211","sona":"41657","block":1,"time":"2021-09-15T17:03:46.968Z"}]