[{"rt":2202.3999999910593,"stimulus":"[A] option 1, [L] option 2, [G] neither","key_press":65,"name":"choice","trial_type":"html-keyboard-response","trial_index":10,"time_elapsed":22187,"internal_node_id":"0.0-10.0","subject":"S1C1211","sona":"41657","block":2,"time":"2021-09-15T17:10:37.959Z","response":"1st","certainty":"high","char":"A","transposition":-3,"order":["swapped","shifted"],"probe_pitches":[8,9,7,4,2,-3,-2,1,8,0,7,5],"shifted_pitches":[8,9,7,4,2,-3,-1,1,8,0,7,5],"swapped_pitches":[8,9,7,4,2,-2,-3,1,8,0,7,5],"shift_direction":1,"question_num":1,"has_decoy":false},{"rt":1751.1000000089407,"stimulus":"[A] option 1, [L] option 2, [G] neither","key_press":76,"name":"choice","trial_type":"html-keyboard-response","trial_index":21,"time_elapsed":42386,"internal_node_id":"0.0-21.0","subject":"S1C1211","sona":"41657","block":2,"time":"2021-09-15T17:10:37.959Z","response":"2nd","certainty":"high","char":"L","transposition":-2,"order":["swapped","shifted"],"probe_pitches":[-1,1,6,8,4,9,3,6,-3,5,3,1],"shifted_pitches":[-1,1,6,8,4,9,2,6,-3,5,3,1],"swapped_pitches":[-1,1,6,8,4,3,9,6,-3,5,3,1],"shift_direction":-1,"question_num":11,"has_decoy":false},{"rt":1221.2999999970198,"stimulus":"[A] option 1, [L] option 2, [G] neither","key_press":65,"name":"choice","trial_type":"html-keyboard-response","trial_index":32,"time_elapsed":62885,"internal_node_id":"0.0-32.0","subject":"S1C1211","sona":"41657","block":2,"time":"2021-09-15T17:10:37.959Z","response":"1st","certainty":"high","char":"A","transposition":-3,"order":["shifted","swapped"],"probe_pitches":[7,9,7,14,12,7,5,9,7,5,9,14],"shifted_pitches":[7,9,7,14,12,6,5,9,7,5,9,14],"swapped_pitches":[7,9,7,14,12,5,7,9,7,5,9,14],"shift_direction":-1,"question_num":21,"has_decoy":false},{"rt":1452.8999999910593,"stimulus":"[A] option 1, [L] option 2, [G] neither","key_press":76,"name":"choice","trial_type":"html-keyboard-response","trial_index":43,"time_elapsed":85506,"internal_node_id":"0.0-43.0","subject":"S1C1211","sona":"41657","block":2,"time":"2021-09-15T17:10:37.959Z","response":"2nd","certainty":"high","char":"L","transposition":-2,"order":["swapped","shifted"],"probe_pitches":[7,2,9,7,2,12,7,14,9,7,4,12],"shifted_pitches":[7,2,9,7,2,12,6,14,9,7,4,12],"swapped_pitches":[7,2,9,7,2,7,12,14,9,7,4,12],"shift_direction":-1,"question_num":31,"has_decoy":false},{"rt":299.29999999701977,"stimulus":"[A] option 1, [L] option 2, [G] neither","key_press":76,"name":"choice","trial_type":"html-keyboard-response","trial_index":54,"time_elapsed":105801,"internal_node_id":"0.0-54.0","subject":"S1C1211","sona":"41657","block":2,"time":"2021-09-15T17:10:37.959Z","response":"2nd","certainty":"high","char":"L","transposition":0,"order":["swapped","shifted"],"probe_pitches":[5,2,5,2,10,7,5,14,10,5,12,10],"shifted_pitches":[5,2,5,2,10,8,5,14,10,5,12,10],"swapped_pitches":[5,2,5,2,10,5,7,14,10,5,12,10],"shift_direction":1,"question_num":41,"has_decoy":false},{"rt":326,"stimulus":"[A] option 1, [L] option 2, [G] neither","key_press":65,"name":"choice","trial_type":"html-keyboard-response","trial_index":65,"time_elapsed":124855,"internal_node_id":"0.0-65.0","subject":"S1C1211","sona":"41657","block":2,"time":"2021-09-15T17:10:37.959Z","response":"1st","certainty":"high","char":"A","transposition":-2,"order":["swapped","shifted"],"probe_pitches":[5,4,-2,3,-1,8,5,0,4,9,1,2],"shifted_pitches":[5,4,-2,3,-1,8,6,0,4,9,1,2],"swapped_pitches":[5,4,-2,3,-1,5,8,0,4,9,1,2],"shift_direction":1,"question_num":51,"has_decoy":false},{"rt":320,"stimulus":"[A] option 1, [L] option 2, [G] neither","key_press":76,"name":"choice","trial_type":"html-keyboard-response","trial_index":76,"time_elapsed":144243,"internal_node_id":"0.0-76.0","subject":"S1C1211","sona":"41657","block":2,"time":"2021-09-15T17:10:37.959Z","response":"2nd","certainty":"high","char":"L","transposition":2,"order":["shifted","swapped"],"probe_pitches":[6,1,4,5,-1,4,6,3,5,-2,4,1],"shifted_pitches":[6,1,4,5,-1,4,7,3,5,-2,4,1],"swapped_pitches":[6,1,4,5,-1,6,4,3,5,-2,4,1],"shift_direction":1,"question_num":61,"has_decoy":false},{"rt":969.0999999940395,"stimulus":"[A] option 1, [L] option 2, [G] neither","key_press":65,"name":"choice","trial_type":"html-keyboard-response","trial_index":87,"time_elapsed":163793,"internal_node_id":"0.0-87.0","subject":"S1C1211","sona":"41657","block":2,"time":"2021-09-15T17:10:37.959Z","response":"1st","certainty":"high","char":"A","transposition":0,"order":["swapped","shifted"],"probe_pitches":[7,4,3,8,3,6,4,-1,9,4,6,-1],"shifted_pitches":[7,4,3,8,3,5,4,-1,9,4,6,-1],"swapped_pitches":[7,4,3,8,3,4,6,-1,9,4,6,-1],"shift_direction":-1,"question_num":71,"has_decoy":false},{"rt":329.29999999701977,"stimulus":"[A] option 1, [L] option 2, [G] neither","key_press":76,"name":"choice","trial_type":"html-keyboard-response","trial_index":98,"time_elapsed":183403,"internal_node_id":"0.0-98.0","subject":"S1C1211","sona":"41657","block":2,"time":"2021-09-15T17:10:37.959Z","response":"2nd","certainty":"high","char":"L","transposition":-1,"order":["shifted","swapped"],"probe_pitches":[-3,-1,-2,-3,-1,9,2,-1,-3,4,0,3],"shifted_pitches":[-3,-1,-2,-3,-1,9,1,-1,-3,4,0,3],"swapped_pitches":[-3,-1,-2,-3,-1,2,9,-1,-3,4,0,3],"shift_direction":-1,"question_num":81,"has_decoy":false},{"rt":418.5,"stimulus":"[A] option 1, [L] option 2, [G] neither","key_press":65,"name":"choice","trial_type":"html-keyboard-response","trial_index":109,"time_elapsed":202683,"internal_node_id":"0.0-109.0","subject":"S1C1211","sona":"41657","block":2,"time":"2021-09-15T17:10:37.959Z","response":"1st","certainty":"high","char":"A","transposition":-3,"order":["swapped","shifted"],"probe_pitches":[6,2,9,14,6,9,4,2,4,11,14,4],"shifted_pitches":[6,2,9,14,6,8,4,2,4,11,14,4],"swapped_pitches":[6,2,9,14,6,4,9,2,4,11,14,4],"shift_direction":-1,"question_num":91,"has_decoy":false},{"rt":82.40000000596046,"stimulus":"[A] option 1, [L] option 2, [G] neither","key_press":65,"name":"choice","trial_type":"html-keyboard-response","trial_index":120,"time_elapsed":221172,"internal_node_id":"0.0-120.0","subject":"S1C1211","sona":"41657","block":2,"time":"2021-09-15T17:10:37.959Z","response":"1st","certainty":"high","char":"A","transposition":-3,"order":["shifted","swapped"],"probe_pitches":[7,9,6,-2,7,5,0,8,2,8,9,1],"shifted_pitches":[7,9,6,-2,7,4,0,8,2,8,9,1],"swapped_pitches":[7,9,6,-2,7,0,5,8,2,8,9,1],"shift_direction":-1,"question_num":101,"has_decoy":false},{"rt":1409.2999999970198,"stimulus":"[A] option 1, [L] option 2, [G] neither","key_press":76,"name":"choice","trial_type":"html-keyboard-response","trial_index":131,"time_elapsed":242751,"internal_node_id":"0.0-131.0","subject":"S1C1211","sona":"41657","block":2,"time":"2021-09-15T17:10:37.959Z","response":"2nd","certainty":"high","char":"L","transposition":-1,"order":["swapped","shifted"],"probe_pitches":[2,1,-3,2,8,2,6,9,7,5,1,2],"shifted_pitches":[2,1,-3,2,8,3,6,9,7,5,1,2],"swapped_pitches":[2,1,-3,2,8,6,2,9,7,5,1,2],"shift_direction":1,"question_num":111,"has_decoy":false},{"rt":1257,"stimulus":"[A] option 1, [L] option 2, [G] neither","key_press":76,"name":"choice","trial_type":"html-keyboard-response","trial_index":142,"time_elapsed":264971,"internal_node_id":"0.0-142.0","subject":"S1C1211","sona":"41657","block":2,"time":"2021-09-15T17:10:37.959Z","response":"2nd","certainty":"high","char":"L","transposition":1,"order":["swapped","shifted"],"probe_pitches":[14,12,9,14,5,9,12,2,12,2,7,12],"shifted_pitches":[14,12,9,14,5,9,13,2,12,2,7,12],"swapped_pitches":[14,12,9,14,5,12,9,2,12,2,7,12],"shift_direction":1,"question_num":121,"has_decoy":false},{"rt":465.40000000596046,"stimulus":"[A] option 1, [L] option 2, [G] neither","key_press":65,"name":"choice","trial_type":"html-keyboard-response","trial_index":153,"time_elapsed":285868,"internal_node_id":"0.0-153.0","subject":"S1C1211","sona":"41657","block":2,"time":"2021-09-15T17:10:37.959Z","response":"1st","certainty":"high","char":"A","transposition":3,"order":["shifted","swapped"],"probe_pitches":[3,0,2,5,-2,-3,1,-2,1,-3,3,-3],"shifted_pitches":[3,0,2,5,-2,-4,1,-2,1,-3,3,-3],"swapped_pitches":[3,0,2,5,-2,1,-3,-2,1,-3,3,-3],"shift_direction":-1,"question_num":131,"has_decoy":false},{"rt":347.29999999701977,"stimulus":"[A] option 1, [L] option 2, [G] neither","key_press":76,"name":"choice","trial_type":"html-keyboard-response","trial_index":164,"time_elapsed":305841,"internal_node_id":"0.0-164.0","subject":"S1C1211","sona":"41657","block":2,"time":"2021-09-15T17:10:37.959Z","response":"2nd","certainty":"high","char":"L","transposition":-2,"order":["swapped","shifted"],"probe_pitches":[14,11,4,7,4,9,7,2,9,4,11,9],"shifted_pitches":[14,11,4,7,4,10,7,2,9,4,11,9],"swapped_pitches":[14,11,4,7,4,7,9,2,9,4,11,9],"shift_direction":1,"question_num":141,"has_decoy":false},{"rt":1680.9000000059605,"stimulus":"[A] option 1, [L] option 2, [G] neither","key_press":65,"name":"choice","trial_type":"html-keyboard-response","trial_index":175,"time_elapsed":328201,"internal_node_id":"0.0-175.0","subject":"S1C1211","sona":"41657","block":2,"time":"2021-09-15T17:10:37.959Z","response":"1st","certainty":"high","char":"A","transposition":-1,"order":["shifted","swapped"],"probe_pitches":[9,11,4,11,6,9,2,11,9,11,14,9],"shifted_pitches":[9,11,4,11,6,9,3,11,9,11,14,9],"swapped_pitches":[9,11,4,11,6,2,9,11,9,11,14,9],"shift_direction":1,"question_num":151,"has_decoy":false},{"rt":105.6000000089407,"stimulus":"[A] option 1, [L] option 2, [G] neither","key_press":76,"name":"choice","trial_type":"html-keyboard-response","trial_index":186,"time_elapsed":350000,"internal_node_id":"0.0-186.0","subject":"S1C1211","sona":"41657","block":2,"time":"2021-09-15T17:10:37.959Z","response":"2nd","certainty":"high","char":"L","transposition":-1,"order":["shifted","swapped"],"probe_pitches":[11,14,9,7,11,7,14,11,2,4,9,2],"shifted_pitches":[11,14,9,7,11,7,13,11,2,4,9,2],"swapped_pitches":[11,14,9,7,11,14,7,11,2,4,9,2],"shift_direction":-1,"question_num":161,"has_decoy":false},{"rt":375.40000000596046,"stimulus":"[A] option 1, [L] option 2, [G] neither","key_press":65,"name":"choice","trial_type":"html-keyboard-response","trial_index":197,"time_elapsed":369967,"internal_node_id":"0.0-197.0","subject":"S1C1211","sona":"41657","block":2,"time":"2021-09-15T17:10:37.959Z","response":"1st","certainty":"high","char":"A","transposition":2,"order":["shifted","swapped"],"probe_pitches":[2,5,2,5,7,10,14,12,5,2,7,14],"shifted_pitches":[2,5,2,5,7,10,13,12,5,2,7,14],"swapped_pitches":[2,5,2,5,7,14,10,12,5,2,7,14],"shift_direction":-1,"question_num":171,"has_decoy":false},{"rt":136,"stimulus":"[A] option 1, [L] option 2, [G] neither","key_press":65,"name":"choice","trial_type":"html-keyboard-response","trial_index":208,"time_elapsed":388260,"internal_node_id":"0.0-208.0","subject":"S1C1211","sona":"41657","block":2,"time":"2021-09-15T17:10:37.959Z","response":"1st","certainty":"high","char":"A","transposition":3,"order":["shifted","swapped"],"probe_pitches":[9,12,14,7,14,9,7,14,2,4,2,12],"shifted_pitches":[9,12,14,7,14,10,7,14,2,4,2,12],"swapped_pitches":[9,12,14,7,14,7,9,14,2,4,2,12],"shift_direction":1,"question_num":181,"has_decoy":false},{"rt":1569.5,"stimulus":"[A] option 1, [L] option 2, [G] neither","key_press":76,"name":"choice","trial_type":"html-keyboard-response","trial_index":219,"time_elapsed":408089,"internal_node_id":"0.0-219.0","subject":"S1C1211","sona":"41657","block":2,"time":"2021-09-15T17:10:37.959Z","response":"2nd","certainty":"high","char":"L","transposition":1,"order":["shifted","swapped"],"probe_pitches":[-1,5,-2,1,-2,-1,4,9,6,9,-3,8],"shifted_pitches":[-1,5,-2,1,-2,0,4,9,6,9,-3,8],"swapped_pitches":[-1,5,-2,1,-2,4,-1,9,6,9,-3,8],"shift_direction":1,"question_num":191,"has_decoy":false}]