[{"rt":15153.199999999255,"stimulus":"[A] option 1, [L] option 2, [G] neither","key_press":65,"name":"choice","trial_type":"html-keyboard-response","trial_index":15,"time_elapsed":127632,"internal_node_id":"0.0-15.0","response":"1st","certainty":"high","char":"A","transposition":-1,"order":["swapped","shifted"],"probe_pitches":[3,5,2,3,6,2,1,11,8,4,2,6,1,7,11,8],"shifted_pitches":[3,5,2,3,6,2,1,12,8,4,2,6,1,7,11,8],"swapped_pitches":[3,5,2,3,6,2,1,8,11,4,2,6,1,7,11,8],"shift_direction":1,"question_num":1,"has_decoy":false,"subject":"S1C1620","sona":"42102","block":1,"time":"2021-09-17T03:55:13.610Z"},{"rt":11171.800000000745,"stimulus":"[A] option 1, [L] option 2, [G] neither","key_press":76,"name":"choice","trial_type":"html-keyboard-response","trial_index":26,"time_elapsed":164673,"internal_node_id":"0.0-26.0","response":"2nd","certainty":"high","char":"L","transposition":0,"order":["swapped","shifted"],"probe_pitches":[6,1,4,1,4,11,8,11,4,-1,1,-1,6,1,4,1],"shifted_pitches":[6,1,4,1,4,11,8,11,5,-1,1,-1,6,1,4,1],"swapped_pitches":[6,1,4,1,4,11,8,4,11,-1,1,-1,6,1,4,1],"shift_direction":1,"question_num":11,"has_decoy":false,"subject":"S1C1620","sona":"42102","block":1,"time":"2021-09-17T03:55:13.610Z"},{"rt":1651.7999999970198,"stimulus":"[A] option 1, [L] option 2, [G] neither","key_press":65,"name":"choice","trial_type":"html-keyboard-response","trial_index":37,"time_elapsed":191675,"internal_node_id":"0.0-37.0","response":"1st","certainty":"high","char":"A","transposition":-2,"order":["swapped","shifted"],"probe_pitches":[-1,1,4,6,8,-1,8,11,-1,1,8,1,-1,11,6,1],"shifted_pitches":[-1,1,4,6,8,-1,8,11,-2,1,8,1,-1,11,6,1],"swapped_pitches":[-1,1,4,6,8,-1,8,-1,11,1,8,1,-1,11,6,1],"shift_direction":-1,"question_num":21,"has_decoy":false,"subject":"S1C1620","sona":"42102","block":1,"time":"2021-09-17T03:55:13.610Z"},{"rt":7265,"stimulus":"[A] option 1, [L] option 2, [G] neither","key_press":71,"name":"choice","trial_type":"html-keyboard-response","trial_index":48,"time_elapsed":225151,"internal_node_id":"0.0-48.0","response":"neither","certainty":"high","char":"G","transposition":-3,"order":["shifted","swapped"],"probe_pitches":[6,12,10,9,1,7,8,2,9,10,1,10,11,12,8,9],"shifted_pitches":[6,12,10,9,1,7,8,3,9,10,1,10,11,12,8,9],"swapped_pitches":[6,12,10,9,1,7,8,9,2,10,1,10,11,12,8,9],"shift_direction":1,"question_num":31,"has_decoy":false,"subject":"S1C1620","sona":"42102","block":1,"time":"2021-09-17T03:55:13.610Z"},{"rt":1338.5,"stimulus":"[A] option 1, [L] option 2, [G] neither","key_press":71,"name":"choice","trial_type":"html-keyboard-response","trial_index":59,"time_elapsed":250500,"internal_node_id":"0.0-59.0","response":"neither","certainty":"high","char":"G","transposition":-2,"order":["shifted","swapped"],"probe_pitches":[1,4,9,13,11,3,6,11,4,1,12,13,9,1,9,3],"shifted_pitches":[1,4,9,13,11,3,6,11,5,1,12,13,9,1,9,3],"swapped_pitches":[1,4,9,13,11,3,6,4,11,1,12,13,9,1,9,3],"shift_direction":1,"question_num":41,"has_decoy":false,"subject":"S1C1620","sona":"42102","block":1,"time":"2021-09-17T03:55:13.610Z"},{"rt":1595.5999999977648,"stimulus":"[A] option 1, [L] option 2, [G] neither","key_press":76,"name":"choice","trial_type":"html-keyboard-response","trial_index":70,"time_elapsed":275709,"internal_node_id":"0.0-70.0","response":"2nd","certainty":"high","char":"L","transposition":-1,"order":["swapped","shifted"],"probe_pitches":[-1,1,6,3,11,8,-1,6,1,8,3,1,-1,8,1,-1],"shifted_pitches":[-1,1,6,3,11,8,-1,5,1,8,3,1,-1,8,1,-1],"swapped_pitches":[-1,1,6,3,11,8,-1,1,6,8,3,1,-1,8,1,-1],"shift_direction":-1,"question_num":51,"has_decoy":false,"subject":"S1C1620","sona":"42102","block":1,"time":"2021-09-17T03:55:13.610Z"},{"rt":734.1999999992549,"stimulus":"[A] option 1, [L] option 2, [G] neither","key_press":65,"name":"choice","trial_type":"html-keyboard-response","trial_index":81,"time_elapsed":305541,"internal_node_id":"0.0-81.0","response":"1st","certainty":"high","char":"A","transposition":1,"order":["shifted","swapped"],"probe_pitches":[2,4,2,7,-1,2,11,9,-1,4,-1,9,11,7,11,9],"shifted_pitches":[2,4,2,7,-1,2,11,9,-2,4,-1,9,11,7,11,9],"swapped_pitches":[2,4,2,7,-1,2,11,-1,9,4,-1,9,11,7,11,9],"shift_direction":-1,"question_num":61,"has_decoy":false,"subject":"S1C1620","sona":"42102","block":1,"time":"2021-09-17T03:55:13.610Z"},{"rt":438.69999999925494,"stimulus":"[A] option 1, [L] option 2, [G] neither","key_press":76,"name":"choice","trial_type":"html-keyboard-response","trial_index":92,"time_elapsed":328470,"internal_node_id":"0.0-92.0","response":"2nd","certainty":"high","char":"L","transposition":0,"order":["swapped","shifted"],"probe_pitches":[13,7,3,11,7,13,4,7,9,6,2,10,6,10,13,1],"shifted_pitches":[13,7,3,11,7,13,4,7,8,6,2,10,6,10,13,1],"swapped_pitches":[13,7,3,11,7,13,4,9,7,6,2,10,6,10,13,1],"shift_direction":-1,"question_num":71,"has_decoy":false,"subject":"S1C1620","sona":"42102","block":1,"time":"2021-09-17T03:55:13.610Z"},{"rt":787.8999999985099,"stimulus":"[A] option 1, [L] option 2, [G] neither","key_press":71,"name":"choice","trial_type":"html-keyboard-response","trial_index":103,"time_elapsed":352872,"internal_node_id":"0.0-103.0","response":"neither","certainty":"high","char":"G","transposition":-3,"order":["swapped","shifted"],"probe_pitches":[11,9,11,9,4,1,-1,6,1,11,-1,6,9,1,11,-1],"shifted_pitches":[11,9,11,9,4,1,-1,7,1,11,-1,6,9,1,11,-1],"swapped_pitches":[11,9,11,9,4,1,-1,1,6,11,-1,6,9,1,11,-1],"shift_direction":1,"question_num":81,"has_decoy":false,"subject":"S1C1620","sona":"42102","block":1,"time":"2021-09-17T03:55:13.610Z"},{"rt":1330.5,"stimulus":"[A] option 1, [L] option 2, [G] neither","key_press":76,"name":"choice","trial_type":"html-keyboard-response","trial_index":114,"time_elapsed":376726,"internal_node_id":"0.0-114.0","response":"2nd","certainty":"high","char":"L","transposition":-2,"order":["shifted","swapped"],"probe_pitches":[2,5,7,5,12,6,1,10,12,7,8,3,10,9,4,6],"shifted_pitches":[2,5,7,5,12,6,1,10,11,7,8,3,10,9,4,6],"swapped_pitches":[2,5,7,5,12,6,1,12,10,7,8,3,10,9,4,6],"shift_direction":-1,"question_num":91,"has_decoy":false,"subject":"S1C1620","sona":"42102","block":1,"time":"2021-09-17T03:55:13.610Z"},{"rt":1497.699999999255,"stimulus":"[A] option 1, [L] option 2, [G] neither","key_press":76,"name":"choice","trial_type":"html-keyboard-response","trial_index":125,"time_elapsed":401768,"internal_node_id":"0.0-125.0","response":"2nd","certainty":"high","char":"L","transposition":-1,"order":["swapped","shifted"],"probe_pitches":[4,6,1,-1,6,4,-1,6,1,9,6,4,6,1,4,9],"shifted_pitches":[4,6,1,-1,6,4,-1,6,0,9,6,4,6,1,4,9],"swapped_pitches":[4,6,1,-1,6,4,-1,1,6,9,6,4,6,1,4,9],"shift_direction":-1,"question_num":101,"has_decoy":false,"subject":"S1C1620","sona":"42102","block":1,"time":"2021-09-17T03:55:13.610Z"},{"rt":1149.800000000745,"stimulus":"[A] option 1, [L] option 2, [G] neither","key_press":65,"name":"choice","trial_type":"html-keyboard-response","trial_index":136,"time_elapsed":426041,"internal_node_id":"0.0-136.0","response":"1st","certainty":"high","char":"A","transposition":2,"order":["shifted","swapped"],"probe_pitches":[9,13,9,8,7,8,1,5,12,11,1,12,5,7,2,8],"shifted_pitches":[9,13,9,8,7,8,1,4,12,11,1,12,5,7,2,8],"swapped_pitches":[9,13,9,8,7,8,1,12,5,11,1,12,5,7,2,8],"shift_direction":-1,"question_num":111,"has_decoy":false,"subject":"S1C1620","sona":"42102","block":1,"time":"2021-09-17T03:55:13.610Z"},{"rt":1851,"stimulus":"[A] option 1, [L] option 2, [G] neither","key_press":71,"name":"choice","trial_type":"html-keyboard-response","trial_index":147,"time_elapsed":451368,"internal_node_id":"0.0-147.0","response":"neither","certainty":"high","char":"G","transposition":-3,"order":["swapped","shifted"],"probe_pitches":[4,1,2,3,2,10,11,5,4,7,1,10,13,8,3,10],"shifted_pitches":[4,1,2,3,2,10,11,6,4,7,1,10,13,8,3,10],"swapped_pitches":[4,1,2,3,2,10,11,4,5,7,1,10,13,8,3,10],"shift_direction":1,"question_num":121,"has_decoy":false,"subject":"S1C1620","sona":"42102","block":1,"time":"2021-09-17T03:55:13.610Z"},{"rt":1605.5999999977648,"stimulus":"[A] option 1, [L] option 2, [G] neither","key_press":65,"name":"choice","trial_type":"html-keyboard-response","trial_index":158,"time_elapsed":476212,"internal_node_id":"0.0-158.0","response":"1st","certainty":"high","char":"A","transposition":2,"order":["shifted","swapped"],"probe_pitches":[6,4,2,4,9,6,2,6,9,4,11,2,6,-1,11,6],"shifted_pitches":[6,4,2,4,9,6,2,7,9,4,11,2,6,-1,11,6],"swapped_pitches":[6,4,2,4,9,6,2,9,6,4,11,2,6,-1,11,6],"shift_direction":1,"question_num":131,"has_decoy":false,"subject":"S1C1620","sona":"42102","block":1,"time":"2021-09-17T03:55:13.610Z"},{"rt":2864.5,"stimulus":"[A] option 1, [L] option 2, [G] neither","key_press":71,"name":"choice","trial_type":"html-keyboard-response","trial_index":169,"time_elapsed":501906,"internal_node_id":"0.0-169.0","response":"neither","certainty":"high","char":"G","transposition":3,"order":["shifted","swapped"],"probe_pitches":[6,11,6,2,9,6,2,9,11,2,9,2,4,2,4,-1],"shifted_pitches":[6,11,6,2,9,6,2,9,10,2,9,2,4,2,4,-1],"swapped_pitches":[6,11,6,2,9,6,2,11,9,2,9,2,4,2,4,-1],"shift_direction":-1,"question_num":141,"has_decoy":false,"subject":"S1C1620","sona":"42102","block":1,"time":"2021-09-17T03:55:13.610Z"},{"rt":8995.699999999255,"stimulus":"[A] option 1, [L] option 2, [G] neither","key_press":71,"name":"choice","trial_type":"html-keyboard-response","trial_index":180,"time_elapsed":533885,"internal_node_id":"0.0-180.0","response":"neither","certainty":"high","char":"G","transposition":3,"order":["swapped","shifted"],"probe_pitches":[6,4,8,1,8,13,3,1,10,8,2,13,11,10,11,2],"shifted_pitches":[6,4,8,1,8,13,3,1,9,8,2,13,11,10,11,2],"swapped_pitches":[6,4,8,1,8,13,3,10,1,8,2,13,11,10,11,2],"shift_direction":-1,"question_num":151,"has_decoy":false,"subject":"S1C1620","sona":"42102","block":1,"time":"2021-09-17T03:55:13.610Z"},{"rt":599.1000000014901,"stimulus":"[A] option 1, [L] option 2, [G] neither","key_press":76,"name":"choice","trial_type":"html-keyboard-response","trial_index":191,"time_elapsed":556902,"internal_node_id":"0.0-191.0","response":"2nd","certainty":"high","char":"L","transposition":1,"order":["shifted","swapped"],"probe_pitches":[7,6,3,5,11,6,8,9,6,11,12,2,1,6,9,12],"shifted_pitches":[7,6,3,5,11,6,8,10,6,11,12,2,1,6,9,12],"swapped_pitches":[7,6,3,5,11,6,8,6,9,11,12,2,1,6,9,12],"shift_direction":1,"question_num":161,"has_decoy":false,"subject":"S1C1620","sona":"42102","block":1,"time":"2021-09-17T03:55:13.610Z"},{"rt":494.5999999977648,"stimulus":"[A] option 1, [L] option 2, [G] neither","key_press":76,"name":"choice","trial_type":"html-keyboard-response","trial_index":202,"time_elapsed":580010,"internal_node_id":"0.0-202.0","response":"2nd","certainty":"high","char":"L","transposition":-3,"order":["shifted","swapped"],"probe_pitches":[8,3,1,6,8,-1,3,-1,8,3,8,1,-1,6,1,-1],"shifted_pitches":[8,3,1,6,8,-1,3,0,8,3,8,1,-1,6,1,-1],"swapped_pitches":[8,3,1,6,8,-1,3,8,-1,3,8,1,-1,6,1,-1],"shift_direction":1,"question_num":171,"has_decoy":false,"subject":"S1C1620","sona":"42102","block":1,"time":"2021-09-17T03:55:13.610Z"},{"rt":1571.5,"stimulus":"[A] option 1, [L] option 2, [G] neither","key_press":71,"name":"choice","trial_type":"html-keyboard-response","trial_index":213,"time_elapsed":603905,"internal_node_id":"0.0-213.0","response":"neither","certainty":"high","char":"G","transposition":-2,"order":["shifted","swapped"],"probe_pitches":[2,4,-1,4,7,2,4,-1,2,4,2,4,-1,4,-1,9],"shifted_pitches":[2,4,-1,4,7,2,4,0,2,4,2,4,-1,4,-1,9],"swapped_pitches":[2,4,-1,4,7,2,4,2,-1,4,2,4,-1,4,-1,9],"shift_direction":1,"question_num":181,"has_decoy":false,"subject":"S1C1620","sona":"42102","block":1,"time":"2021-09-17T03:55:13.610Z"},{"rt":938.5,"stimulus":"[A] option 1, [L] option 2, [G] neither","key_press":71,"name":"choice","trial_type":"html-keyboard-response","trial_index":224,"time_elapsed":627256,"internal_node_id":"0.0-224.0","response":"neither","certainty":"high","char":"G","transposition":-1,"order":["swapped","shifted"],"probe_pitches":[6,4,9,4,3,2,11,1,8,10,6,3,9,3,1,4],"shifted_pitches":[6,4,9,4,3,2,11,1,7,10,6,3,9,3,1,4],"swapped_pitches":[6,4,9,4,3,2,11,8,1,10,6,3,9,3,1,4],"shift_direction":-1,"question_num":191,"has_decoy":false,"subject":"S1C1620","sona":"42102","block":1,"time":"2021-09-17T03:55:13.610Z"}]