[{"rt":434.60000002384186,"stimulus":"[A] option 1, [L] option 2, [G] neither","key_press":76,"name":"choice","trial_type":"html-keyboard-response","trial_index":10,"time_elapsed":22304,"internal_node_id":"0.0-10.0","subject":"S1C1206","sona":"41427","block":4,"time":"2021-09-07T00:07:14.444Z","response":"2nd","certainty":"high","char":"L","transposition":2,"order":["swapped","shifted"],"probe_pitches":[10,5,7,0,7,2,10,7,10,7,5,7],"shifted_pitches":[10,5,7,0,7,2,9,7,10,7,5,7],"swapped_pitches":[10,5,7,0,7,10,2,7,10,7,5,7],"shift_direction":-1,"question_num":1,"has_decoy":false},{"rt":440.69999998807907,"stimulus":"[A] option 1, [L] option 2, [G] neither","key_press":65,"name":"choice","trial_type":"html-keyboard-response","trial_index":21,"time_elapsed":41174,"internal_node_id":"0.0-21.0","subject":"S1C1206","sona":"41427","block":4,"time":"2021-09-07T00:07:14.444Z","response":"1st","certainty":"high","char":"A","transposition":3,"order":["shifted","swapped"],"probe_pitches":[5,0,3,-2,0,8,3,5,8,5,10,-2],"shifted_pitches":[5,0,3,-2,0,8,2,5,8,5,10,-2],"swapped_pitches":[5,0,3,-2,0,3,8,5,8,5,10,-2],"shift_direction":-1,"question_num":11,"has_decoy":false},{"rt":379.7999999523163,"stimulus":"[A] option 1, [L] option 2, [G] neither","key_press":76,"name":"choice","trial_type":"html-keyboard-response","trial_index":32,"time_elapsed":59939,"internal_node_id":"0.0-32.0","subject":"S1C1206","sona":"41427","block":4,"time":"2021-09-07T00:07:14.444Z","response":"2nd","certainty":"high","char":"L","transposition":-1,"order":["swapped","shifted"],"probe_pitches":[-2,2,0,2,7,2,-2,5,0,10,7,-2],"shifted_pitches":[-2,2,0,2,7,1,-2,5,0,10,7,-2],"swapped_pitches":[-2,2,0,2,7,-2,2,5,0,10,7,-2],"shift_direction":-1,"question_num":21,"has_decoy":false},{"rt":427,"stimulus":"[A] option 1, [L] option 2, [G] neither","key_press":76,"name":"choice","trial_type":"html-keyboard-response","trial_index":43,"time_elapsed":78699,"internal_node_id":"0.0-43.0","subject":"S1C1206","sona":"41427","block":4,"time":"2021-09-07T00:07:14.444Z","response":"2nd","certainty":"high","char":"L","transposition":-1,"order":["shifted","swapped"],"probe_pitches":[4,6,10,4,6,9,11,6,7,3,4,0],"shifted_pitches":[4,6,10,4,6,8,11,6,7,3,4,0],"swapped_pitches":[4,6,10,4,6,11,9,6,7,3,4,0],"shift_direction":-1,"question_num":31,"has_decoy":false},{"rt":565.8000000119209,"stimulus":"[A] option 1, [L] option 2, [G] neither","key_press":65,"name":"choice","trial_type":"html-keyboard-response","trial_index":54,"time_elapsed":97462,"internal_node_id":"0.0-54.0","subject":"S1C1206","sona":"41427","block":4,"time":"2021-09-07T00:07:14.444Z","response":"1st","certainty":"high","char":"A","transposition":-3,"order":["swapped","shifted"],"probe_pitches":[-1,1,6,3,9,1,8,7,8,1,6,9],"shifted_pitches":[-1,1,6,3,9,2,8,7,8,1,6,9],"swapped_pitches":[-1,1,6,3,9,8,1,7,8,1,6,9],"shift_direction":1,"question_num":41,"has_decoy":false},{"rt":1007.9000000357628,"stimulus":"[A] option 1, [L] option 2, [G] neither","key_press":76,"name":"choice","trial_type":"html-keyboard-response","trial_index":65,"time_elapsed":117391,"internal_node_id":"0.0-65.0","subject":"S1C1206","sona":"41427","block":4,"time":"2021-09-07T00:07:14.444Z","response":"2nd","certainty":"high","char":"L","transposition":-3,"order":["swapped","shifted"],"probe_pitches":[8,5,8,1,5,10,3,1,3,-2,10,8],"shifted_pitches":[8,5,8,1,5,10,2,1,3,-2,10,8],"swapped_pitches":[8,5,8,1,5,3,10,1,3,-2,10,8],"shift_direction":-1,"question_num":51,"has_decoy":false},{"rt":761.9000000357628,"stimulus":"[A] option 1, [L] option 2, [G] neither","key_press":65,"name":"choice","trial_type":"html-keyboard-response","trial_index":76,"time_elapsed":136504,"internal_node_id":"0.0-76.0","subject":"S1C1206","sona":"41427","block":4,"time":"2021-09-07T00:07:14.444Z","response":"1st","certainty":"high","char":"A","transposition":1,"order":["shifted","swapped"],"probe_pitches":[-2,0,3,0,5,-2,7,5,10,5,0,10],"shifted_pitches":[-2,0,3,0,5,-1,7,5,10,5,0,10],"swapped_pitches":[-2,0,3,0,5,7,-2,5,10,5,0,10],"shift_direction":1,"question_num":61,"has_decoy":false},{"rt":337.39999997615814,"stimulus":"[A] option 1, [L] option 2, [G] neither","key_press":65,"name":"choice","trial_type":"html-keyboard-response","trial_index":87,"time_elapsed":155476,"internal_node_id":"0.0-87.0","subject":"S1C1206","sona":"41427","block":4,"time":"2021-09-07T00:07:14.444Z","response":"1st","certainty":"high","char":"A","transposition":-2,"order":["shifted","swapped"],"probe_pitches":[4,2,6,9,3,10,0,4,8,7,11,7],"shifted_pitches":[4,2,6,9,3,10,1,4,8,7,11,7],"swapped_pitches":[4,2,6,9,3,0,10,4,8,7,11,7],"shift_direction":1,"question_num":71,"has_decoy":false},{"rt":393.2000000476837,"stimulus":"[A] option 1, [L] option 2, [G] neither","key_press":76,"name":"choice","trial_type":"html-keyboard-response","trial_index":98,"time_elapsed":174214,"internal_node_id":"0.0-98.0","subject":"S1C1206","sona":"41427","block":4,"time":"2021-09-07T00:07:14.444Z","response":"2nd","certainty":"high","char":"L","transposition":-1,"order":["swapped","shifted"],"probe_pitches":[8,3,1,-2,1,8,10,5,1,5,3,5],"shifted_pitches":[8,3,1,-2,1,9,10,5,1,5,3,5],"swapped_pitches":[8,3,1,-2,1,10,8,5,1,5,3,5],"shift_direction":1,"question_num":81,"has_decoy":false},{"rt":402.69999998807907,"stimulus":"[A] option 1, [L] option 2, [G] neither","key_press":65,"name":"choice","trial_type":"html-keyboard-response","trial_index":109,"time_elapsed":192999,"internal_node_id":"0.0-109.0","subject":"S1C1206","sona":"41427","block":4,"time":"2021-09-07T00:07:14.444Z","response":"1st","certainty":"high","char":"A","transposition":0,"order":["swapped","shifted"],"probe_pitches":[5,6,1,2,11,2,8,5,9,7,2,11],"shifted_pitches":[5,6,1,2,11,3,8,5,9,7,2,11],"swapped_pitches":[5,6,1,2,11,8,2,5,9,7,2,11],"shift_direction":1,"question_num":91,"has_decoy":false},{"rt":817.5,"stimulus":"[A] option 1, [L] option 2, [G] neither","key_press":76,"name":"choice","trial_type":"html-keyboard-response","trial_index":120,"time_elapsed":212120,"internal_node_id":"0.0-120.0","subject":"S1C1206","sona":"41427","block":4,"time":"2021-09-07T00:07:14.444Z","response":"2nd","certainty":"high","char":"L","transposition":-3,"order":["shifted","swapped"],"probe_pitches":[10,7,10,5,-2,0,3,10,3,10,7,0],"shifted_pitches":[10,7,10,5,-2,0,4,10,3,10,7,0],"swapped_pitches":[10,7,10,5,-2,3,0,10,3,10,7,0],"shift_direction":1,"question_num":101,"has_decoy":false},{"rt":422.5,"stimulus":"[A] option 1, [L] option 2, [G] neither","key_press":65,"name":"choice","trial_type":"html-keyboard-response","trial_index":131,"time_elapsed":233554,"internal_node_id":"0.0-131.0","subject":"S1C1206","sona":"41427","block":4,"time":"2021-09-07T00:07:14.444Z","response":"1st","certainty":"high","char":"A","transposition":-2,"order":["shifted","swapped"],"probe_pitches":[0,5,3,10,5,10,8,-2,10,0,-2,5],"shifted_pitches":[0,5,3,10,5,11,8,-2,10,0,-2,5],"swapped_pitches":[0,5,3,10,5,8,10,-2,10,0,-2,5],"shift_direction":1,"question_num":111,"has_decoy":false},{"rt":670.6000000238419,"stimulus":"[A] option 1, [L] option 2, [G] neither","key_press":65,"name":"choice","trial_type":"html-keyboard-response","trial_index":142,"time_elapsed":252543,"internal_node_id":"0.0-142.0","subject":"S1C1206","sona":"41427","block":4,"time":"2021-09-07T00:07:14.444Z","response":"1st","certainty":"high","char":"A","transposition":2,"order":["shifted","swapped"],"probe_pitches":[0,3,6,11,5,4,6,8,10,4,11,9],"shifted_pitches":[0,3,6,11,5,4,7,8,10,4,11,9],"swapped_pitches":[0,3,6,11,5,6,4,8,10,4,11,9],"shift_direction":1,"question_num":121,"has_decoy":false},{"rt":1020.3999999761581,"stimulus":"[A] option 1, [L] option 2, [G] neither","key_press":71,"name":"choice","trial_type":"html-keyboard-response","trial_index":153,"time_elapsed":271734,"internal_node_id":"0.0-153.0","subject":"S1C1206","sona":"41427","block":4,"time":"2021-09-07T00:07:14.444Z","response":"neither","certainty":"high","char":"G","transposition":-1,"order":["shifted","swapped"],"probe_pitches":[1,0,3,11,10,7,-1,3,10,11,9,3],"shifted_pitches":[1,0,3,11,10,6,-1,3,10,11,9,3],"swapped_pitches":[1,0,3,11,10,-1,7,3,10,11,9,3],"shift_direction":-1,"question_num":131,"has_decoy":false},{"rt":694.5,"stimulus":"[A] option 1, [L] option 2, [G] neither","key_press":65,"name":"choice","trial_type":"html-keyboard-response","trial_index":164,"time_elapsed":290822,"internal_node_id":"0.0-164.0","subject":"S1C1206","sona":"41427","block":4,"time":"2021-09-07T00:07:14.444Z","response":"1st","certainty":"high","char":"A","transposition":-2,"order":["swapped","shifted"],"probe_pitches":[-2,3,6,-2,1,-2,3,8,6,8,1,3],"shifted_pitches":[-2,3,6,-2,1,-1,3,8,6,8,1,3],"swapped_pitches":[-2,3,6,-2,1,3,-2,8,6,8,1,3],"shift_direction":1,"question_num":141,"has_decoy":false},{"rt":415.80000001192093,"stimulus":"[A] option 1, [L] option 2, [G] neither","key_press":76,"name":"choice","trial_type":"html-keyboard-response","trial_index":175,"time_elapsed":309566,"internal_node_id":"0.0-175.0","subject":"S1C1206","sona":"41427","block":4,"time":"2021-09-07T00:07:14.444Z","response":"2nd","certainty":"high","char":"L","transposition":-2,"order":["swapped","shifted"],"probe_pitches":[11,6,1,3,2,8,5,1,5,7,0,3],"shifted_pitches":[11,6,1,3,2,8,4,1,5,7,0,3],"swapped_pitches":[11,6,1,3,2,5,8,1,5,7,0,3],"shift_direction":-1,"question_num":151,"has_decoy":false},{"rt":545.1000000238419,"stimulus":"[A] option 1, [L] option 2, [G] neither","key_press":76,"name":"choice","trial_type":"html-keyboard-response","trial_index":186,"time_elapsed":328264,"internal_node_id":"0.0-186.0","subject":"S1C1206","sona":"41427","block":4,"time":"2021-09-07T00:07:14.444Z","response":"2nd","certainty":"high","char":"L","transposition":1,"order":["swapped","shifted"],"probe_pitches":[-1,3,6,11,5,8,11,6,7,2,0,4],"shifted_pitches":[-1,3,6,11,5,8,10,6,7,2,0,4],"swapped_pitches":[-1,3,6,11,5,11,8,6,7,2,0,4],"shift_direction":-1,"question_num":161,"has_decoy":false},{"rt":1075.699999988079,"stimulus":"[A] option 1, [L] option 2, [G] neither","key_press":71,"name":"choice","trial_type":"html-keyboard-response","trial_index":197,"time_elapsed":347690,"internal_node_id":"0.0-197.0","subject":"S1C1206","sona":"41427","block":4,"time":"2021-09-07T00:07:14.444Z","response":"neither","certainty":"high","char":"G","transposition":-3,"order":["shifted","swapped"],"probe_pitches":[8,11,8,10,4,10,1,0,2,5,7,-1],"shifted_pitches":[8,11,8,10,4,9,1,0,2,5,7,-1],"swapped_pitches":[8,11,8,10,4,1,10,0,2,5,7,-1],"shift_direction":-1,"question_num":171,"has_decoy":false},{"rt":381.9000000357628,"stimulus":"[A] option 1, [L] option 2, [G] neither","key_press":65,"name":"choice","trial_type":"html-keyboard-response","trial_index":208,"time_elapsed":366446,"internal_node_id":"0.0-208.0","subject":"S1C1206","sona":"41427","block":4,"time":"2021-09-07T00:07:14.444Z","response":"1st","certainty":"high","char":"A","transposition":0,"order":["shifted","swapped"],"probe_pitches":[3,-2,1,8,10,3,-2,10,-2,8,6,-2],"shifted_pitches":[3,-2,1,8,10,3,-3,10,-2,8,6,-2],"swapped_pitches":[3,-2,1,8,10,-2,3,10,-2,8,6,-2],"shift_direction":-1,"question_num":181,"has_decoy":false},{"rt":454,"stimulus":"[A] option 1, [L] option 2, [G] neither","key_press":76,"name":"choice","trial_type":"html-keyboard-response","trial_index":219,"time_elapsed":385787,"internal_node_id":"0.0-219.0","subject":"S1C1206","sona":"41427","block":4,"time":"2021-09-07T00:07:14.444Z","response":"2nd","certainty":"high","char":"L","transposition":3,"order":["swapped","shifted"],"probe_pitches":[-1,0,7,3,7,0,4,11,8,2,11,9],"shifted_pitches":[-1,0,7,3,7,0,5,11,8,2,11,9],"swapped_pitches":[-1,0,7,3,7,4,0,11,8,2,11,9],"shift_direction":1,"question_num":191,"has_decoy":false}]