[{"rt":1129.800000011921,"stimulus":"[A] option 1, [L] option 2, [G] neither","key_press":76,"name":"choice","trial_type":"html-keyboard-response","trial_index":10,"time_elapsed":7324050,"internal_node_id":"0.0-10.0","subject":"S1C1206","sona":"41427","block":5,"time":"2021-09-07T02:15:29.201Z","response":"2nd","certainty":"high","char":"L","transposition":2,"order":["shifted","swapped"],"probe_pitches":[2,7,5,9,0,5,2,-3,9,2,-3,2],"shifted_pitches":[2,7,5,9,0,5,1,-3,9,2,-3,2],"swapped_pitches":[2,7,5,9,0,2,5,-3,9,2,-3,2],"shift_direction":-1,"question_num":1,"has_decoy":false},{"rt":455.7999999523163,"stimulus":"[A] option 1, [L] option 2, [G] neither","key_press":76,"name":"choice","trial_type":"html-keyboard-response","trial_index":21,"time_elapsed":7342942,"internal_node_id":"0.0-21.0","subject":"S1C1206","sona":"41427","block":5,"time":"2021-09-07T02:15:29.201Z","response":"2nd","certainty":"high","char":"L","transposition":-2,"order":["swapped","shifted"],"probe_pitches":[9,12,6,3,2,4,10,3,5,4,9,0],"shifted_pitches":[9,12,6,3,2,4,11,3,5,4,9,0],"swapped_pitches":[9,12,6,3,2,10,4,3,5,4,9,0],"shift_direction":1,"question_num":11,"has_decoy":false},{"rt":499.39999997615814,"stimulus":"[A] option 1, [L] option 2, [G] neither","key_press":65,"name":"choice","trial_type":"html-keyboard-response","trial_index":32,"time_elapsed":7361811,"internal_node_id":"0.0-32.0","subject":"S1C1206","sona":"41427","block":5,"time":"2021-09-07T02:15:29.201Z","response":"1st","certainty":"high","char":"A","transposition":3,"order":["shifted","swapped"],"probe_pitches":[1,3,5,10,7,2,8,5,0,8,2,6],"shifted_pitches":[1,3,5,10,7,2,9,5,0,8,2,6],"swapped_pitches":[1,3,5,10,7,8,2,5,0,8,2,6],"shift_direction":1,"question_num":21,"has_decoy":false},{"rt":1160.6000000238419,"stimulus":"[A] option 1, [L] option 2, [G] neither","key_press":71,"name":"choice","trial_type":"html-keyboard-response","trial_index":43,"time_elapsed":7381347,"internal_node_id":"0.0-43.0","subject":"S1C1206","sona":"41427","block":5,"time":"2021-09-07T02:15:29.201Z","response":"neither","certainty":"high","char":"G","transposition":-1,"order":["shifted","swapped"],"probe_pitches":[9,12,9,3,12,8,11,2,11,2,9,11],"shifted_pitches":[9,12,9,3,12,7,11,2,11,2,9,11],"swapped_pitches":[9,12,9,3,12,11,8,2,11,2,9,11],"shift_direction":-1,"question_num":31,"has_decoy":false},{"rt":753.1999999880791,"stimulus":"[A] option 1, [L] option 2, [G] neither","key_press":76,"name":"choice","trial_type":"html-keyboard-response","trial_index":54,"time_elapsed":7400501,"internal_node_id":"0.0-54.0","subject":"S1C1206","sona":"41427","block":5,"time":"2021-09-07T02:15:29.201Z","response":"2nd","certainty":"high","char":"L","transposition":-3,"order":["swapped","shifted"],"probe_pitches":[7,9,2,0,9,0,2,7,2,-3,2,4],"shifted_pitches":[7,9,2,0,9,0,1,7,2,-3,2,4],"swapped_pitches":[7,9,2,0,9,2,0,7,2,-3,2,4],"shift_direction":-1,"question_num":41,"has_decoy":false},{"rt":1302.0999999642372,"stimulus":"[A] option 1, [L] option 2, [G] neither","key_press":71,"name":"choice","trial_type":"html-keyboard-response","trial_index":65,"time_elapsed":7420170,"internal_node_id":"0.0-65.0","subject":"S1C1206","sona":"41427","block":5,"time":"2021-09-07T02:15:29.201Z","response":"neither","certainty":"high","char":"G","transposition":-2,"order":["shifted","swapped"],"probe_pitches":[6,4,1,9,4,-1,6,9,-1,6,-1,-3],"shifted_pitches":[6,4,1,9,4,0,6,9,-1,6,-1,-3],"swapped_pitches":[6,4,1,9,4,6,-1,9,-1,6,-1,-3],"shift_direction":1,"question_num":51,"has_decoy":false},{"rt":1807.199999988079,"stimulus":"[A] option 1, [L] option 2, [G] neither","key_press":76,"name":"choice","trial_type":"html-keyboard-response","trial_index":76,"time_elapsed":7440337,"internal_node_id":"0.0-76.0","subject":"S1C1206","sona":"41427","block":5,"time":"2021-09-07T02:15:29.201Z","response":"2nd","certainty":"high","char":"L","transposition":-3,"order":["shifted","swapped"],"probe_pitches":[12,11,12,5,4,7,11,5,1,12,1,9],"shifted_pitches":[12,11,12,5,4,6,11,5,1,12,1,9],"swapped_pitches":[12,11,12,5,4,11,7,5,1,12,1,9],"shift_direction":-1,"question_num":61,"has_decoy":false},{"rt":366.80000001192093,"stimulus":"[A] option 1, [L] option 2, [G] neither","key_press":76,"name":"choice","trial_type":"html-keyboard-response","trial_index":87,"time_elapsed":7459200,"internal_node_id":"0.0-87.0","subject":"S1C1206","sona":"41427","block":5,"time":"2021-09-07T02:15:29.201Z","response":"2nd","certainty":"high","char":"L","transposition":1,"order":["shifted","swapped"],"probe_pitches":[12,6,2,5,0,3,10,2,12,2,1,11],"shifted_pitches":[12,6,2,5,0,4,10,2,12,2,1,11],"swapped_pitches":[12,6,2,5,0,10,3,2,12,2,1,11],"shift_direction":1,"question_num":71,"has_decoy":false},{"rt":2325.899999976158,"stimulus":"[A] option 1, [L] option 2, [G] neither","key_press":71,"name":"choice","trial_type":"html-keyboard-response","trial_index":98,"time_elapsed":7479836,"internal_node_id":"0.0-98.0","subject":"S1C1206","sona":"41427","block":5,"time":"2021-09-07T02:15:29.201Z","response":"neither","certainty":"high","char":"G","transposition":-1,"order":["swapped","shifted"],"probe_pitches":[6,2,-1,6,9,4,-1,6,-1,2,6,2],"shifted_pitches":[6,2,-1,6,9,4,0,6,-1,2,6,2],"swapped_pitches":[6,2,-1,6,9,-1,4,6,-1,2,6,2],"shift_direction":1,"question_num":81,"has_decoy":false},{"rt":423.19999998807907,"stimulus":"[A] option 1, [L] option 2, [G] neither","key_press":76,"name":"choice","trial_type":"html-keyboard-response","trial_index":109,"time_elapsed":7498466,"internal_node_id":"0.0-109.0","subject":"S1C1206","sona":"41427","block":5,"time":"2021-09-07T02:15:29.201Z","response":"2nd","certainty":"high","char":"L","transposition":0,"order":["swapped","shifted"],"probe_pitches":[4,6,2,4,2,-3,4,-1,6,4,-3,4],"shifted_pitches":[4,6,2,4,2,-4,4,-1,6,4,-3,4],"swapped_pitches":[4,6,2,4,2,4,-3,-1,6,4,-3,4],"shift_direction":-1,"question_num":91,"has_decoy":false},{"rt":371,"stimulus":"[A] option 1, [L] option 2, [G] neither","key_press":76,"name":"choice","trial_type":"html-keyboard-response","trial_index":120,"time_elapsed":7517287,"internal_node_id":"0.0-120.0","subject":"S1C1206","sona":"41427","block":5,"time":"2021-09-07T02:15:29.201Z","response":"2nd","certainty":"high","char":"L","transposition":-2,"order":["swapped","shifted"],"probe_pitches":[7,2,9,7,4,9,2,0,9,7,0,-3],"shifted_pitches":[7,2,9,7,4,8,2,0,9,7,0,-3],"swapped_pitches":[7,2,9,7,4,2,9,0,9,7,0,-3],"shift_direction":-1,"question_num":101,"has_decoy":false},{"rt":1349.8999999761581,"stimulus":"[A] option 1, [L] option 2, [G] neither","key_press":71,"name":"choice","trial_type":"html-keyboard-response","trial_index":131,"time_elapsed":7536991,"internal_node_id":"0.0-131.0","subject":"S1C1206","sona":"41427","block":5,"time":"2021-09-07T02:15:29.201Z","response":"neither","certainty":"high","char":"G","transposition":-1,"order":["swapped","shifted"],"probe_pitches":[9,10,4,0,9,4,2,12,2,9,12,5],"shifted_pitches":[9,10,4,0,9,3,2,12,2,9,12,5],"swapped_pitches":[9,10,4,0,9,2,4,12,2,9,12,5],"shift_direction":-1,"question_num":111,"has_decoy":false},{"rt":385,"stimulus":"[A] option 1, [L] option 2, [G] neither","key_press":76,"name":"choice","trial_type":"html-keyboard-response","trial_index":142,"time_elapsed":7555748,"internal_node_id":"0.0-142.0","subject":"S1C1206","sona":"41427","block":5,"time":"2021-09-07T02:15:29.201Z","response":"2nd","certainty":"high","char":"L","transposition":-2,"order":["swapped","shifted"],"probe_pitches":[12,6,3,11,7,6,11,2,7,5,6,2],"shifted_pitches":[12,6,3,11,7,6,10,2,7,5,6,2],"swapped_pitches":[12,6,3,11,7,11,6,2,7,5,6,2],"shift_direction":-1,"question_num":121,"has_decoy":false},{"rt":421.80000001192093,"stimulus":"[A] option 1, [L] option 2, [G] neither","key_press":65,"name":"choice","trial_type":"html-keyboard-response","trial_index":153,"time_elapsed":7574457,"internal_node_id":"0.0-153.0","subject":"S1C1206","sona":"41427","block":5,"time":"2021-09-07T02:15:29.201Z","response":"1st","certainty":"high","char":"A","transposition":-1,"order":["shifted","swapped"],"probe_pitches":[9,6,-1,1,-1,9,1,4,9,4,9,-1],"shifted_pitches":[9,6,-1,1,-1,10,1,4,9,4,9,-1],"swapped_pitches":[9,6,-1,1,-1,1,9,4,9,4,9,-1],"shift_direction":1,"question_num":131,"has_decoy":false},{"rt":1256.300000011921,"stimulus":"[A] option 1, [L] option 2, [G] neither","key_press":76,"name":"choice","trial_type":"html-keyboard-response","trial_index":164,"time_elapsed":7594079,"internal_node_id":"0.0-164.0","subject":"S1C1206","sona":"41427","block":5,"time":"2021-09-07T02:15:29.201Z","response":"2nd","certainty":"high","char":"L","transposition":3,"order":["shifted","swapped"],"probe_pitches":[-3,2,9,4,7,-1,4,2,-3,7,2,-1],"shifted_pitches":[-3,2,9,4,7,-1,5,2,-3,7,2,-1],"swapped_pitches":[-3,2,9,4,7,4,-1,2,-3,7,2,-1],"shift_direction":1,"question_num":141,"has_decoy":false},{"rt":575.5,"stimulus":"[A] option 1, [L] option 2, [G] neither","key_press":76,"name":"choice","trial_type":"html-keyboard-response","trial_index":175,"time_elapsed":7612913,"internal_node_id":"0.0-175.0","subject":"S1C1206","sona":"41427","block":5,"time":"2021-09-07T02:15:29.201Z","response":"2nd","certainty":"high","char":"L","transposition":-3,"order":["swapped","shifted"],"probe_pitches":[9,7,9,7,-1,7,9,-1,7,4,2,9],"shifted_pitches":[9,7,9,7,-1,8,9,-1,7,4,2,9],"swapped_pitches":[9,7,9,7,-1,9,7,-1,7,4,2,9],"shift_direction":1,"question_num":151,"has_decoy":false},{"rt":1767.9000000357628,"stimulus":"[A] option 1, [L] option 2, [G] neither","key_press":76,"name":"choice","trial_type":"html-keyboard-response","trial_index":186,"time_elapsed":7633021,"internal_node_id":"0.0-186.0","subject":"S1C1206","sona":"41427","block":5,"time":"2021-09-07T02:15:29.201Z","response":"2nd","certainty":"high","char":"L","transposition":0,"order":["shifted","swapped"],"probe_pitches":[2,6,3,2,6,12,7,10,0,10,12,1],"shifted_pitches":[2,6,3,2,6,12,8,10,0,10,12,1],"swapped_pitches":[2,6,3,2,6,7,12,10,0,10,12,1],"shift_direction":1,"question_num":161,"has_decoy":false},{"rt":509.89999997615814,"stimulus":"[A] option 1, [L] option 2, [G] neither","key_press":76,"name":"choice","trial_type":"html-keyboard-response","trial_index":197,"time_elapsed":7651810,"internal_node_id":"0.0-197.0","subject":"S1C1206","sona":"41427","block":5,"time":"2021-09-07T02:15:29.201Z","response":"2nd","certainty":"high","char":"L","transposition":2,"order":["swapped","shifted"],"probe_pitches":[6,0,1,2,9,12,6,3,4,9,4,8],"shifted_pitches":[6,0,1,2,9,12,5,3,4,9,4,8],"swapped_pitches":[6,0,1,2,9,6,12,3,4,9,4,8],"shift_direction":-1,"question_num":171,"has_decoy":false},{"rt":2148,"stimulus":"[A] option 1, [L] option 2, [G] neither","key_press":65,"name":"choice","trial_type":"html-keyboard-response","trial_index":208,"time_elapsed":7672354,"internal_node_id":"0.0-208.0","subject":"S1C1206","sona":"41427","block":5,"time":"2021-09-07T02:15:29.201Z","response":"1st","certainty":"high","char":"A","transposition":-3,"order":["swapped","shifted"],"probe_pitches":[3,6,9,6,5,1,12,7,6,5,3,7],"shifted_pitches":[3,6,9,6,5,2,12,7,6,5,3,7],"swapped_pitches":[3,6,9,6,5,12,1,7,6,5,3,7],"shift_direction":1,"question_num":181,"has_decoy":false},{"rt":425.2999999523163,"stimulus":"[A] option 1, [L] option 2, [G] neither","key_press":65,"name":"choice","trial_type":"html-keyboard-response","trial_index":219,"time_elapsed":7691068,"internal_node_id":"0.0-219.0","subject":"S1C1206","sona":"41427","block":5,"time":"2021-09-07T02:15:29.201Z","response":"1st","certainty":"high","char":"A","transposition":1,"order":["shifted","swapped"],"probe_pitches":[2,-3,0,5,7,0,-3,9,5,2,7,0],"shifted_pitches":[2,-3,0,5,7,0,-4,9,5,2,7,0],"swapped_pitches":[2,-3,0,5,7,-3,0,9,5,2,7,0],"shift_direction":-1,"question_num":191,"has_decoy":false}]