[{"rt":857,"stimulus":"[A] option 1, [L] option 2, [G] neither","key_press":76,"name":"choice","trial_type":"html-keyboard-response","trial_index":10,"time_elapsed":29047,"internal_node_id":"0.0-10.0","subject":"S1C1206","sona":"41427","block":2,"time":"2021-09-06T23:53:51.400Z","response":"2nd","certainty":"high","char":"L","transposition":-3,"order":["swapped","shifted"],"probe_pitches":[7,4,6,10,8,6,1,-1,0,9,5,-2],"shifted_pitches":[7,4,6,10,8,6,2,-1,0,9,5,-2],"swapped_pitches":[7,4,6,10,8,1,6,-1,0,9,5,-2],"shift_direction":1,"question_num":1,"has_decoy":false},{"rt":669.4000000357628,"stimulus":"[A] option 1, [L] option 2, [G] neither","key_press":76,"name":"choice","trial_type":"html-keyboard-response","trial_index":21,"time_elapsed":49361,"internal_node_id":"0.0-21.0","subject":"S1C1206","sona":"41427","block":2,"time":"2021-09-06T23:53:51.400Z","response":"2nd","certainty":"high","char":"L","transposition":-3,"order":["shifted","swapped"],"probe_pitches":[4,0,7,9,4,7,2,9,4,0,7,4],"shifted_pitches":[4,0,7,9,4,7,3,9,4,0,7,4],"swapped_pitches":[4,0,7,9,4,2,7,9,4,0,7,4],"shift_direction":1,"question_num":11,"has_decoy":false},{"rt":1154.300000011921,"stimulus":"[A] option 1, [L] option 2, [G] neither","key_press":65,"name":"choice","trial_type":"html-keyboard-response","trial_index":32,"time_elapsed":69008,"internal_node_id":"0.0-32.0","subject":"S1C1206","sona":"41427","block":2,"time":"2021-09-06T23:53:51.400Z","response":"1st","certainty":"high","char":"A","transposition":-1,"order":["swapped","shifted"],"probe_pitches":[4,3,6,2,7,9,0,7,9,5,10,2],"shifted_pitches":[4,3,6,2,7,8,0,7,9,5,10,2],"swapped_pitches":[4,3,6,2,7,0,9,7,9,5,10,2],"shift_direction":-1,"question_num":21,"has_decoy":false},{"rt":370,"stimulus":"[A] option 1, [L] option 2, [G] neither","key_press":76,"name":"choice","trial_type":"html-keyboard-response","trial_index":43,"time_elapsed":87733,"internal_node_id":"0.0-43.0","subject":"S1C1206","sona":"41427","block":2,"time":"2021-09-06T23:53:51.400Z","response":"2nd","certainty":"high","char":"L","transposition":-1,"order":["swapped","shifted"],"probe_pitches":[7,5,2,0,7,-3,5,7,2,5,2,9],"shifted_pitches":[7,5,2,0,7,-3,6,7,2,5,2,9],"swapped_pitches":[7,5,2,0,7,5,-3,7,2,5,2,9],"shift_direction":1,"question_num":31,"has_decoy":false},{"rt":480,"stimulus":"[A] option 1, [L] option 2, [G] neither","key_press":65,"name":"choice","trial_type":"html-keyboard-response","trial_index":54,"time_elapsed":106643,"internal_node_id":"0.0-54.0","subject":"S1C1206","sona":"41427","block":2,"time":"2021-09-06T23:53:51.400Z","response":"1st","certainty":"high","char":"A","transposition":3,"order":["shifted","swapped"],"probe_pitches":[2,4,5,8,10,8,0,1,5,4,6,-2],"shifted_pitches":[2,4,5,8,10,9,0,1,5,4,6,-2],"swapped_pitches":[2,4,5,8,10,0,8,1,5,4,6,-2],"shift_direction":1,"question_num":41,"has_decoy":false},{"rt":743.1999999880791,"stimulus":"[A] option 1, [L] option 2, [G] neither","key_press":76,"name":"choice","trial_type":"html-keyboard-response","trial_index":65,"time_elapsed":125680,"internal_node_id":"0.0-65.0","subject":"S1C1206","sona":"41427","block":2,"time":"2021-09-06T23:53:51.400Z","response":"2nd","certainty":"high","char":"L","transposition":0,"order":["shifted","swapped"],"probe_pitches":[7,2,5,0,-1,4,9,7,9,5,10,0],"shifted_pitches":[7,2,5,0,-1,3,9,7,9,5,10,0],"swapped_pitches":[7,2,5,0,-1,9,4,7,9,5,10,0],"shift_direction":-1,"question_num":51,"has_decoy":false},{"rt":731.3000000119209,"stimulus":"[A] option 1, [L] option 2, [G] neither","key_press":76,"name":"choice","trial_type":"html-keyboard-response","trial_index":76,"time_elapsed":144611,"internal_node_id":"0.0-76.0","subject":"S1C1206","sona":"41427","block":2,"time":"2021-09-06T23:53:51.400Z","response":"2nd","certainty":"high","char":"L","transposition":-3,"order":["swapped","shifted"],"probe_pitches":[2,6,-1,2,4,6,9,4,9,4,-3,-1],"shifted_pitches":[2,6,-1,2,4,6,10,4,9,4,-3,-1],"swapped_pitches":[2,6,-1,2,4,9,6,4,9,4,-3,-1],"shift_direction":1,"question_num":61,"has_decoy":false},{"rt":1478.3999999761581,"stimulus":"[A] option 1, [L] option 2, [G] neither","key_press":65,"name":"choice","trial_type":"html-keyboard-response","trial_index":87,"time_elapsed":164382,"internal_node_id":"0.0-87.0","subject":"S1C1206","sona":"41427","block":2,"time":"2021-09-06T23:53:51.400Z","response":"1st","certainty":"high","char":"A","transposition":-1,"order":["shifted","swapped"],"probe_pitches":[3,7,1,2,10,4,1,7,2,0,9,0],"shifted_pitches":[3,7,1,2,10,5,1,7,2,0,9,0],"swapped_pitches":[3,7,1,2,10,1,4,7,2,0,9,0],"shift_direction":1,"question_num":71,"has_decoy":false},{"rt":5014,"stimulus":"[A] option 1, [L] option 2, [G] neither","key_press":71,"name":"choice","trial_type":"html-keyboard-response","trial_index":98,"time_elapsed":187789,"internal_node_id":"0.0-98.0","subject":"S1C1206","sona":"41427","block":2,"time":"2021-09-06T23:53:51.400Z","response":"neither","certainty":"high","char":"G","transposition":-3,"order":["shifted","swapped"],"probe_pitches":[6,2,0,-2,7,6,3,5,-1,7,0,-2],"shifted_pitches":[6,2,0,-2,7,6,4,5,-1,7,0,-2],"swapped_pitches":[6,2,0,-2,7,3,6,5,-1,7,0,-2],"shift_direction":1,"question_num":81,"has_decoy":false},{"rt":369,"stimulus":"[A] option 1, [L] option 2, [G] neither","key_press":76,"name":"choice","trial_type":"html-keyboard-response","trial_index":109,"time_elapsed":206733,"internal_node_id":"0.0-109.0","subject":"S1C1206","sona":"41427","block":2,"time":"2021-09-06T23:53:51.400Z","response":"2nd","certainty":"high","char":"L","transposition":0,"order":["swapped","shifted"],"probe_pitches":[4,2,7,4,7,4,-1,2,4,9,-3,9],"shifted_pitches":[4,2,7,4,7,4,-2,2,4,9,-3,9],"swapped_pitches":[4,2,7,4,7,-1,4,2,4,9,-3,9],"shift_direction":-1,"question_num":91,"has_decoy":false},{"rt":1275.6000000238419,"stimulus":"[A] option 1, [L] option 2, [G] neither","key_press":76,"name":"choice","trial_type":"html-keyboard-response","trial_index":120,"time_elapsed":226350,"internal_node_id":"0.0-120.0","subject":"S1C1206","sona":"41427","block":2,"time":"2021-09-06T23:53:51.400Z","response":"2nd","certainty":"high","char":"L","transposition":-2,"order":["swapped","shifted"],"probe_pitches":[9,6,9,2,-1,-3,6,9,2,6,4,9],"shifted_pitches":[9,6,9,2,-1,-3,7,9,2,6,4,9],"swapped_pitches":[9,6,9,2,-1,6,-3,9,2,6,4,9],"shift_direction":1,"question_num":101,"has_decoy":false},{"rt":3714.5,"stimulus":"[A] option 1, [L] option 2, [G] neither","key_press":71,"name":"choice","trial_type":"html-keyboard-response","trial_index":131,"time_elapsed":248372,"internal_node_id":"0.0-131.0","subject":"S1C1206","sona":"41427","block":2,"time":"2021-09-06T23:53:51.400Z","response":"neither","certainty":"high","char":"G","transposition":-2,"order":["swapped","shifted"],"probe_pitches":[2,-1,2,6,0,9,2,-1,9,4,-1,3],"shifted_pitches":[2,-1,2,6,0,9,1,-1,9,4,-1,3],"swapped_pitches":[2,-1,2,6,0,2,9,-1,9,4,-1,3],"shift_direction":-1,"question_num":111,"has_decoy":false},{"rt":347.0999999642372,"stimulus":"[A] option 1, [L] option 2, [G] neither","key_press":76,"name":"choice","trial_type":"html-keyboard-response","trial_index":142,"time_elapsed":267074,"internal_node_id":"0.0-142.0","subject":"S1C1206","sona":"41427","block":2,"time":"2021-09-06T23:53:51.400Z","response":"2nd","certainty":"high","char":"L","transposition":1,"order":["swapped","shifted"],"probe_pitches":[2,0,7,3,7,-1,5,3,0,7,8,5],"shifted_pitches":[2,0,7,3,7,-1,6,3,0,7,8,5],"swapped_pitches":[2,0,7,3,7,5,-1,3,0,7,8,5],"shift_direction":1,"question_num":121,"has_decoy":false},{"rt":1434.800000011921,"stimulus":"[A] option 1, [L] option 2, [G] neither","key_press":76,"name":"choice","trial_type":"html-keyboard-response","trial_index":153,"time_elapsed":286822,"internal_node_id":"0.0-153.0","subject":"S1C1206","sona":"41427","block":2,"time":"2021-09-06T23:53:51.400Z","response":"2nd","certainty":"high","char":"L","transposition":-2,"order":["shifted","swapped"],"probe_pitches":[5,-1,2,4,9,5,1,8,4,10,1,5],"shifted_pitches":[5,-1,2,4,9,5,0,8,4,10,1,5],"swapped_pitches":[5,-1,2,4,9,1,5,8,4,10,1,5],"shift_direction":-1,"question_num":131,"has_decoy":false},{"rt":619,"stimulus":"[A] option 1, [L] option 2, [G] neither","key_press":76,"name":"choice","trial_type":"html-keyboard-response","trial_index":164,"time_elapsed":305731,"internal_node_id":"0.0-164.0","subject":"S1C1206","sona":"41427","block":2,"time":"2021-09-06T23:53:51.400Z","response":"2nd","certainty":"high","char":"L","transposition":2,"order":["swapped","shifted"],"probe_pitches":[3,5,4,9,6,8,4,3,-1,3,-1,2],"shifted_pitches":[3,5,4,9,6,7,4,3,-1,3,-1,2],"swapped_pitches":[3,5,4,9,6,4,8,3,-1,3,-1,2],"shift_direction":-1,"question_num":141,"has_decoy":false},{"rt":670.1000000238419,"stimulus":"[A] option 1, [L] option 2, [G] neither","key_press":65,"name":"choice","trial_type":"html-keyboard-response","trial_index":175,"time_elapsed":324734,"internal_node_id":"0.0-175.0","subject":"S1C1206","sona":"41427","block":2,"time":"2021-09-06T23:53:51.400Z","response":"1st","certainty":"high","char":"A","transposition":2,"order":["shifted","swapped"],"probe_pitches":[2,4,7,-1,7,9,-1,-3,4,-3,-1,-3],"shifted_pitches":[2,4,7,-1,7,8,-1,-3,4,-3,-1,-3],"swapped_pitches":[2,4,7,-1,7,-1,9,-3,4,-3,-1,-3],"shift_direction":-1,"question_num":151,"has_decoy":false},{"rt":2076,"stimulus":"[A] option 1, [L] option 2, [G] neither","key_press":71,"name":"choice","trial_type":"html-keyboard-response","trial_index":186,"time_elapsed":345138,"internal_node_id":"0.0-186.0","subject":"S1C1206","sona":"41427","block":2,"time":"2021-09-06T23:53:51.400Z","response":"neither","certainty":"high","char":"G","transposition":3,"order":["shifted","swapped"],"probe_pitches":[-3,1,-3,-1,6,-1,4,9,4,1,-3,9],"shifted_pitches":[-3,1,-3,-1,6,-2,4,9,4,1,-3,9],"swapped_pitches":[-3,1,-3,-1,6,4,-1,9,4,1,-3,9],"shift_direction":-1,"question_num":161,"has_decoy":false},{"rt":838.3000000119209,"stimulus":"[A] option 1, [L] option 2, [G] neither","key_press":76,"name":"choice","trial_type":"html-keyboard-response","trial_index":197,"time_elapsed":364300,"internal_node_id":"0.0-197.0","subject":"S1C1206","sona":"41427","block":2,"time":"2021-09-06T23:53:51.400Z","response":"2nd","certainty":"high","char":"L","transposition":1,"order":["shifted","swapped"],"probe_pitches":[2,7,0,7,2,5,7,0,7,9,7,2],"shifted_pitches":[2,7,0,7,2,6,7,0,7,9,7,2],"swapped_pitches":[2,7,0,7,2,7,5,0,7,9,7,2],"shift_direction":1,"question_num":171,"has_decoy":false},{"rt":6067.199999988079,"stimulus":"[A] option 1, [L] option 2, [G] neither","key_press":65,"name":"choice","trial_type":"html-keyboard-response","trial_index":208,"time_elapsed":388659,"internal_node_id":"0.0-208.0","subject":"S1C1206","sona":"41427","block":2,"time":"2021-09-06T23:53:51.400Z","response":"1st","certainty":"high","char":"A","transposition":-2,"order":["shifted","swapped"],"probe_pitches":[7,9,4,-3,0,7,-3,4,-3,0,9,2],"shifted_pitches":[7,9,4,-3,0,6,-3,4,-3,0,9,2],"swapped_pitches":[7,9,4,-3,0,-3,7,4,-3,0,9,2],"shift_direction":-1,"question_num":181,"has_decoy":false},{"rt":463.5,"stimulus":"[A] option 1, [L] option 2, [G] neither","key_press":76,"name":"choice","trial_type":"html-keyboard-response","trial_index":219,"time_elapsed":6347785,"internal_node_id":"0.0-219.0","subject":"S1C1206","sona":"41427","block":2,"time":"2021-09-06T23:53:51.400Z","response":"2nd","certainty":"high","char":"L","transposition":-1,"order":["swapped","shifted"],"probe_pitches":[9,4,6,9,6,1,-3,-1,1,-1,1,4],"shifted_pitches":[9,4,6,9,6,0,-3,-1,1,-1,1,4],"swapped_pitches":[9,4,6,9,6,-3,1,-1,1,-1,1,4],"shift_direction":-1,"question_num":191,"has_decoy":false}]