[{"rt":6021.699999988079,"stimulus":"[A] option 1, [L] option 2, [G] neither","key_press":76,"name":"choice","trial_type":"html-keyboard-response","trial_index":15,"time_elapsed":208609,"internal_node_id":"0.0-15.0","response":"2nd","certainty":"high","char":"L","transposition":-3,"order":["swapped","shifted"],"probe_pitches":[14,11,9,2,4,2,6,11,9,6,4,2],"shifted_pitches":[14,11,9,2,4,3,6,11,9,6,4,2],"swapped_pitches":[14,11,9,2,4,6,2,11,9,6,4,2],"shift_direction":1,"question_num":1,"has_decoy":false,"subject":"S1C1206","sona":"41427","block":1,"time":"2021-09-06T22:07:41.212Z"},{"rt":1086.300000011921,"stimulus":"[A] option 1, [L] option 2, [G] neither","key_press":65,"name":"choice","trial_type":"html-keyboard-response","trial_index":26,"time_elapsed":231887,"internal_node_id":"0.0-26.0","response":"1st","certainty":"high","char":"A","transposition":-1,"order":["shifted","swapped"],"probe_pitches":[12,7,9,4,7,4,14,12,4,12,2,12],"shifted_pitches":[12,7,9,4,7,4,13,12,4,12,2,12],"swapped_pitches":[12,7,9,4,7,14,4,12,4,12,2,12],"shift_direction":-1,"question_num":11,"has_decoy":false,"subject":"S1C1206","sona":"41427","block":1,"time":"2021-09-06T22:07:41.212Z"},{"rt":1295,"stimulus":"[A] option 1, [L] option 2, [G] neither","key_press":76,"name":"choice","trial_type":"html-keyboard-response","trial_index":37,"time_elapsed":252527,"internal_node_id":"0.0-37.0","response":"2nd","certainty":"high","char":"L","transposition":-3,"order":["shifted","swapped"],"probe_pitches":[2,-1,1,9,11,8,6,0,4,0,2,9],"shifted_pitches":[2,-1,1,9,11,8,7,0,4,0,2,9],"swapped_pitches":[2,-1,1,9,11,6,8,0,4,0,2,9],"shift_direction":1,"question_num":21,"has_decoy":false,"subject":"S1C1206","sona":"41427","block":1,"time":"2021-09-06T22:07:41.212Z"},{"rt":888.5999999642372,"stimulus":"[A] option 1, [L] option 2, [G] neither","key_press":76,"name":"choice","trial_type":"html-keyboard-response","trial_index":48,"time_elapsed":272575,"internal_node_id":"0.0-48.0","response":"2nd","certainty":"high","char":"L","transposition":2,"order":["swapped","shifted"],"probe_pitches":[14,11,9,2,4,14,11,4,2,4,9,6],"shifted_pitches":[14,11,9,2,4,15,11,4,2,4,9,6],"swapped_pitches":[14,11,9,2,4,11,14,4,2,4,9,6],"shift_direction":1,"question_num":31,"has_decoy":false,"subject":"S1C1206","sona":"41427","block":1,"time":"2021-09-06T22:07:41.212Z"},{"rt":890.1999999880791,"stimulus":"[A] option 1, [L] option 2, [G] neither","key_press":76,"name":"choice","trial_type":"html-keyboard-response","trial_index":59,"time_elapsed":292042,"internal_node_id":"0.0-59.0","response":"2nd","certainty":"high","char":"L","transposition":-1,"order":["shifted","swapped"],"probe_pitches":[11,10,5,11,4,0,2,11,3,4,8,5],"shifted_pitches":[11,10,5,11,4,1,2,11,3,4,8,5],"swapped_pitches":[11,10,5,11,4,2,0,11,3,4,8,5],"shift_direction":1,"question_num":41,"has_decoy":false,"subject":"S1C1206","sona":"41427","block":1,"time":"2021-09-06T22:07:41.212Z"},{"rt":2085.400000035763,"stimulus":"[A] option 1, [L] option 2, [G] neither","key_press":65,"name":"choice","trial_type":"html-keyboard-response","trial_index":70,"time_elapsed":312755,"internal_node_id":"0.0-70.0","response":"1st","certainty":"high","char":"A","transposition":-1,"order":["shifted","swapped"],"probe_pitches":[4,7,9,7,2,9,11,7,11,14,9,7],"shifted_pitches":[4,7,9,7,2,9,12,7,11,14,9,7],"swapped_pitches":[4,7,9,7,2,11,9,7,11,14,9,7],"shift_direction":1,"question_num":51,"has_decoy":false,"subject":"S1C1206","sona":"41427","block":1,"time":"2021-09-06T22:07:41.212Z"},{"rt":689.8999999761581,"stimulus":"[A] option 1, [L] option 2, [G] neither","key_press":76,"name":"choice","trial_type":"html-keyboard-response","trial_index":81,"time_elapsed":332066,"internal_node_id":"0.0-81.0","response":"2nd","certainty":"high","char":"L","transposition":-2,"order":["swapped","shifted"],"probe_pitches":[2,7,2,4,2,7,11,14,4,2,9,7],"shifted_pitches":[2,7,2,4,2,6,11,14,4,2,9,7],"swapped_pitches":[2,7,2,4,2,11,7,14,4,2,9,7],"shift_direction":-1,"question_num":61,"has_decoy":false,"subject":"S1C1206","sona":"41427","block":1,"time":"2021-09-06T22:07:41.212Z"},{"rt":10356,"stimulus":"[A] option 1, [L] option 2, [G] neither","key_press":65,"name":"choice","trial_type":"html-keyboard-response","trial_index":92,"time_elapsed":361208,"internal_node_id":"0.0-92.0","response":"1st","certainty":"high","char":"A","transposition":3,"order":["shifted","swapped"],"probe_pitches":[5,3,0,8,-1,5,3,7,1,6,0,1],"shifted_pitches":[5,3,0,8,-1,4,3,7,1,6,0,1],"swapped_pitches":[5,3,0,8,-1,3,5,7,1,6,0,1],"shift_direction":-1,"question_num":71,"has_decoy":false,"subject":"S1C1206","sona":"41427","block":1,"time":"2021-09-06T22:07:41.212Z"},{"rt":2415.099999964237,"stimulus":"[A] option 1, [L] option 2, [G] neither","key_press":65,"name":"choice","trial_type":"html-keyboard-response","trial_index":103,"time_elapsed":382146,"internal_node_id":"0.0-103.0","response":"1st","certainty":"high","char":"A","transposition":-2,"order":["shifted","swapped"],"probe_pitches":[10,14,7,14,12,14,7,2,10,12,14,5],"shifted_pitches":[10,14,7,14,12,14,6,2,10,12,14,5],"swapped_pitches":[10,14,7,14,12,7,14,2,10,12,14,5],"shift_direction":-1,"question_num":81,"has_decoy":false,"subject":"S1C1206","sona":"41427","block":1,"time":"2021-09-06T22:07:41.212Z"},{"rt":1198.3999999761581,"stimulus":"[A] option 1, [L] option 2, [G] neither","key_press":76,"name":"choice","trial_type":"html-keyboard-response","trial_index":114,"time_elapsed":402589,"internal_node_id":"0.0-114.0","response":"2nd","certainty":"high","char":"L","transposition":1,"order":["swapped","shifted"],"probe_pitches":[5,2,9,2,5,7,2,14,2,7,12,2],"shifted_pitches":[5,2,9,2,5,7,1,14,2,7,12,2],"swapped_pitches":[5,2,9,2,5,2,7,14,2,7,12,2],"shift_direction":-1,"question_num":91,"has_decoy":false,"subject":"S1C1206","sona":"41427","block":1,"time":"2021-09-06T22:07:41.212Z"},{"rt":8301.300000011921,"stimulus":"[A] option 1, [L] option 2, [G] neither","key_press":65,"name":"choice","trial_type":"html-keyboard-response","trial_index":125,"time_elapsed":429415,"internal_node_id":"0.0-125.0","response":"1st","certainty":"high","char":"A","transposition":0,"order":["swapped","shifted"],"probe_pitches":[9,5,9,3,10,3,9,11,6,1,6,1],"shifted_pitches":[9,5,9,3,10,2,9,11,6,1,6,1],"swapped_pitches":[9,5,9,3,10,9,3,11,6,1,6,1],"shift_direction":-1,"question_num":101,"has_decoy":false,"subject":"S1C1206","sona":"41427","block":1,"time":"2021-09-06T22:07:41.212Z"},{"rt":37313.60000002384,"stimulus":"[A] option 1, [L] option 2, [G] neither","key_press":65,"name":"choice","trial_type":"html-keyboard-response","trial_index":136,"time_elapsed":2581183,"internal_node_id":"0.0-136.0","response":"1st","certainty":"high","char":"A","transposition":-2,"order":["swapped","shifted"],"probe_pitches":[10,4,11,7,3,10,7,4,0,6,5,6],"shifted_pitches":[10,4,11,7,3,10,8,4,0,6,5,6],"swapped_pitches":[10,4,11,7,3,7,10,4,0,6,5,6],"shift_direction":1,"question_num":111,"has_decoy":false,"subject":"S1C1206","sona":"41427","block":1,"time":"2021-09-06T22:07:41.212Z"},{"rt":352.9000000357628,"stimulus":"[A] option 1, [L] option 2, [G] neither","key_press":65,"name":"choice","trial_type":"html-keyboard-response","trial_index":147,"time_elapsed":2601642,"internal_node_id":"0.0-147.0","response":"1st","certainty":"high","char":"A","transposition":3,"order":["shifted","swapped"],"probe_pitches":[2,7,5,12,14,12,2,14,10,2,7,10],"shifted_pitches":[2,7,5,12,14,13,2,14,10,2,7,10],"swapped_pitches":[2,7,5,12,14,2,12,14,10,2,7,10],"shift_direction":1,"question_num":121,"has_decoy":false,"subject":"S1C1206","sona":"41427","block":1,"time":"2021-09-06T22:07:41.212Z"},{"rt":2798.100000023842,"stimulus":"[A] option 1, [L] option 2, [G] neither","key_press":71,"name":"choice","trial_type":"html-keyboard-response","trial_index":158,"time_elapsed":2623191,"internal_node_id":"0.0-158.0","response":"neither","certainty":"high","char":"G","transposition":0,"order":["swapped","shifted"],"probe_pitches":[12,7,2,9,2,5,9,12,14,2,14,7],"shifted_pitches":[12,7,2,9,2,5,10,12,14,2,14,7],"swapped_pitches":[12,7,2,9,2,9,5,12,14,2,14,7],"shift_direction":1,"question_num":131,"has_decoy":false,"subject":"S1C1206","sona":"41427","block":1,"time":"2021-09-06T22:07:41.212Z"},{"rt":373.9000000357628,"stimulus":"[A] option 1, [L] option 2, [G] neither","key_press":76,"name":"choice","trial_type":"html-keyboard-response","trial_index":169,"time_elapsed":2643593,"internal_node_id":"0.0-169.0","response":"2nd","certainty":"high","char":"L","transposition":2,"order":["shifted","swapped"],"probe_pitches":[3,4,11,8,1,5,0,11,7,11,9,-1],"shifted_pitches":[3,4,11,8,1,6,0,11,7,11,9,-1],"swapped_pitches":[3,4,11,8,1,0,5,11,7,11,9,-1],"shift_direction":1,"question_num":141,"has_decoy":false,"subject":"S1C1206","sona":"41427","block":1,"time":"2021-09-06T22:07:41.212Z"},{"rt":1055.2000000476837,"stimulus":"[A] option 1, [L] option 2, [G] neither","key_press":65,"name":"choice","trial_type":"html-keyboard-response","trial_index":180,"time_elapsed":2663058,"internal_node_id":"0.0-180.0","response":"1st","certainty":"high","char":"A","transposition":-3,"order":["shifted","swapped"],"probe_pitches":[12,7,12,9,2,7,14,12,4,12,7,12],"shifted_pitches":[12,7,12,9,2,6,14,12,4,12,7,12],"swapped_pitches":[12,7,12,9,2,14,7,12,4,12,7,12],"shift_direction":-1,"question_num":151,"has_decoy":false,"subject":"S1C1206","sona":"41427","block":1,"time":"2021-09-06T22:07:41.212Z"},{"rt":3688.400000035763,"stimulus":"[A] option 1, [L] option 2, [G] neither","key_press":65,"name":"choice","trial_type":"html-keyboard-response","trial_index":191,"time_elapsed":2685206,"internal_node_id":"0.0-191.0","response":"1st","certainty":"high","char":"A","transposition":-1,"order":["swapped","shifted"],"probe_pitches":[6,5,-1,0,6,1,10,7,6,5,0,11],"shifted_pitches":[6,5,-1,0,6,1,9,7,6,5,0,11],"swapped_pitches":[6,5,-1,0,6,10,1,7,6,5,0,11],"shift_direction":-1,"question_num":161,"has_decoy":false,"subject":"S1C1206","sona":"41427","block":1,"time":"2021-09-06T22:07:41.212Z"},{"rt":2296.7000000476837,"stimulus":"[A] option 1, [L] option 2, [G] neither","key_press":65,"name":"choice","trial_type":"html-keyboard-response","trial_index":202,"time_elapsed":2705835,"internal_node_id":"0.0-202.0","response":"1st","certainty":"high","char":"A","transposition":-3,"order":["swapped","shifted"],"probe_pitches":[8,11,8,10,8,4,5,7,5,10,-1,7],"shifted_pitches":[8,11,8,10,8,3,5,7,5,10,-1,7],"swapped_pitches":[8,11,8,10,8,5,4,7,5,10,-1,7],"shift_direction":-1,"question_num":171,"has_decoy":false,"subject":"S1C1206","sona":"41427","block":1,"time":"2021-09-06T22:07:41.212Z"},{"rt":1026,"stimulus":"[A] option 1, [L] option 2, [G] neither","key_press":65,"name":"choice","trial_type":"html-keyboard-response","trial_index":213,"time_elapsed":2725247,"internal_node_id":"0.0-213.0","response":"1st","certainty":"high","char":"A","transposition":1,"order":["swapped","shifted"],"probe_pitches":[1,5,8,1,2,4,9,7,-1,7,2,8],"shifted_pitches":[1,5,8,1,2,4,10,7,-1,7,2,8],"swapped_pitches":[1,5,8,1,2,9,4,7,-1,7,2,8],"shift_direction":1,"question_num":181,"has_decoy":false,"subject":"S1C1206","sona":"41427","block":1,"time":"2021-09-06T22:07:41.212Z"},{"rt":591.1000000238419,"stimulus":"[A] option 1, [L] option 2, [G] neither","key_press":76,"name":"choice","trial_type":"html-keyboard-response","trial_index":224,"time_elapsed":2744354,"internal_node_id":"0.0-224.0","response":"2nd","certainty":"high","char":"L","transposition":-2,"order":["shifted","swapped"],"probe_pitches":[7,2,4,8,-1,2,6,1,8,4,1,2],"shifted_pitches":[7,2,4,8,-1,2,5,1,8,4,1,2],"swapped_pitches":[7,2,4,8,-1,6,2,1,8,4,1,2],"shift_direction":-1,"question_num":191,"has_decoy":false,"subject":"S1C1206","sona":"41427","block":1,"time":"2021-09-06T22:07:41.212Z"}]