[{"rt":468.39999997615814,"stimulus":"[A] option 1, [L] option 2, [G] neither","key_press":76,"name":"choice","trial_type":"html-keyboard-response","trial_index":10,"time_elapsed":23376,"internal_node_id":"0.0-10.0","subject":"S1C1206","sona":"41427","block":6,"time":"2021-09-07T02:21:58.753Z","response":"2nd","certainty":"high","char":"L","transposition":-2,"order":["shifted","swapped"],"probe_pitches":[-1,4,2,9,11,4,9,6,4,2,-1,11],"shifted_pitches":[-1,4,2,9,11,4,10,6,4,2,-1,11],"swapped_pitches":[-1,4,2,9,11,9,4,6,4,2,-1,11],"shift_direction":1,"question_num":1,"has_decoy":false},{"rt":1059.199999988079,"stimulus":"[A] option 1, [L] option 2, [G] neither","key_press":71,"name":"choice","trial_type":"html-keyboard-response","trial_index":21,"time_elapsed":42749,"internal_node_id":"0.0-21.0","subject":"S1C1206","sona":"41427","block":6,"time":"2021-09-07T02:21:58.753Z","response":"neither","certainty":"high","char":"G","transposition":-1,"order":["shifted","swapped"],"probe_pitches":[3,4,1,3,9,2,6,4,11,9,10,6],"shifted_pitches":[3,4,1,3,9,2,7,4,11,9,10,6],"swapped_pitches":[3,4,1,3,9,6,2,4,11,9,10,6],"shift_direction":1,"question_num":11,"has_decoy":false},{"rt":890.4000000357628,"stimulus":"[A] option 1, [L] option 2, [G] neither","key_press":76,"name":"choice","trial_type":"html-keyboard-response","trial_index":32,"time_elapsed":61923,"internal_node_id":"0.0-32.0","subject":"S1C1206","sona":"41427","block":6,"time":"2021-09-07T02:21:58.753Z","response":"2nd","certainty":"high","char":"L","transposition":-1,"order":["swapped","shifted"],"probe_pitches":[1,3,6,8,3,1,8,3,-1,8,3,8],"shifted_pitches":[1,3,6,8,3,1,7,3,-1,8,3,8],"swapped_pitches":[1,3,6,8,3,8,1,3,-1,8,3,8],"shift_direction":-1,"question_num":21,"has_decoy":false},{"rt":458.69999998807907,"stimulus":"[A] option 1, [L] option 2, [G] neither","key_press":65,"name":"choice","trial_type":"html-keyboard-response","trial_index":43,"time_elapsed":80696,"internal_node_id":"0.0-43.0","subject":"S1C1206","sona":"41427","block":6,"time":"2021-09-07T02:21:58.753Z","response":"1st","certainty":"high","char":"A","transposition":-2,"order":["swapped","shifted"],"probe_pitches":[9,8,5,2,10,3,1,13,5,9,3,10],"shifted_pitches":[9,8,5,2,10,4,1,13,5,9,3,10],"swapped_pitches":[9,8,5,2,10,1,3,13,5,9,3,10],"shift_direction":1,"question_num":31,"has_decoy":false},{"rt":451.30000001192093,"stimulus":"[A] option 1, [L] option 2, [G] neither","key_press":71,"name":"choice","trial_type":"html-keyboard-response","trial_index":54,"time_elapsed":99435,"internal_node_id":"0.0-54.0","subject":"S1C1206","sona":"41427","block":6,"time":"2021-09-07T02:21:58.753Z","response":"neither","certainty":"high","char":"G","transposition":-3,"order":["swapped","shifted"],"probe_pitches":[1,4,11,6,-1,6,8,4,6,1,4,11],"shifted_pitches":[1,4,11,6,-1,6,9,4,6,1,4,11],"swapped_pitches":[1,4,11,6,-1,8,6,4,6,1,4,11],"shift_direction":1,"question_num":41,"has_decoy":false},{"rt":1565.8999999761581,"stimulus":"[A] option 1, [L] option 2, [G] neither","key_press":71,"name":"choice","trial_type":"html-keyboard-response","trial_index":65,"time_elapsed":119375,"internal_node_id":"0.0-65.0","subject":"S1C1206","sona":"41427","block":6,"time":"2021-09-07T02:21:58.753Z","response":"neither","certainty":"high","char":"G","transposition":0,"order":["shifted","swapped"],"probe_pitches":[1,6,11,6,2,4,1,5,11,4,9,1],"shifted_pitches":[1,6,11,6,2,4,0,5,11,4,9,1],"swapped_pitches":[1,6,11,6,2,1,4,5,11,4,9,1],"shift_direction":-1,"question_num":51,"has_decoy":false},{"rt":416.30000001192093,"stimulus":"[A] option 1, [L] option 2, [G] neither","key_press":76,"name":"choice","trial_type":"html-keyboard-response","trial_index":76,"time_elapsed":138358,"internal_node_id":"0.0-76.0","subject":"S1C1206","sona":"41427","block":6,"time":"2021-09-07T02:21:58.753Z","response":"2nd","certainty":"high","char":"L","transposition":2,"order":["swapped","shifted"],"probe_pitches":[9,4,9,2,-1,7,9,-1,11,-1,11,2],"shifted_pitches":[9,4,9,2,-1,7,8,-1,11,-1,11,2],"swapped_pitches":[9,4,9,2,-1,9,7,-1,11,-1,11,2],"shift_direction":-1,"question_num":61,"has_decoy":false},{"rt":567.7000000476837,"stimulus":"[A] option 1, [L] option 2, [G] neither","key_press":71,"name":"choice","trial_type":"html-keyboard-response","trial_index":87,"time_elapsed":157319,"internal_node_id":"0.0-87.0","subject":"S1C1206","sona":"41427","block":6,"time":"2021-09-07T02:21:58.753Z","response":"neither","certainty":"high","char":"G","transposition":-3,"order":["shifted","swapped"],"probe_pitches":[4,1,-1,6,-1,6,9,11,4,11,4,1],"shifted_pitches":[4,1,-1,6,-1,7,9,11,4,11,4,1],"swapped_pitches":[4,1,-1,6,-1,9,6,11,4,11,4,1],"shift_direction":1,"question_num":71,"has_decoy":false},{"rt":393.5999999642372,"stimulus":"[A] option 1, [L] option 2, [G] neither","key_press":65,"name":"choice","trial_type":"html-keyboard-response","trial_index":98,"time_elapsed":175982,"internal_node_id":"0.0-98.0","subject":"S1C1206","sona":"41427","block":6,"time":"2021-09-07T02:21:58.753Z","response":"1st","certainty":"high","char":"A","transposition":1,"order":["shifted","swapped"],"probe_pitches":[4,7,11,9,11,7,2,-1,2,9,4,7],"shifted_pitches":[4,7,11,9,11,8,2,-1,2,9,4,7],"swapped_pitches":[4,7,11,9,11,2,7,-1,2,9,4,7],"shift_direction":1,"question_num":81,"has_decoy":false},{"rt":426.10000002384186,"stimulus":"[A] option 1, [L] option 2, [G] neither","key_press":65,"name":"choice","trial_type":"html-keyboard-response","trial_index":109,"time_elapsed":194739,"internal_node_id":"0.0-109.0","subject":"S1C1206","sona":"41427","block":6,"time":"2021-09-07T02:21:58.753Z","response":"1st","certainty":"high","char":"A","transposition":3,"order":["shifted","swapped"],"probe_pitches":[8,6,1,-1,8,6,1,11,3,8,-1,6],"shifted_pitches":[8,6,1,-1,8,5,1,11,3,8,-1,6],"swapped_pitches":[8,6,1,-1,8,1,6,11,3,8,-1,6],"shift_direction":-1,"question_num":91,"has_decoy":false},{"rt":450.30000001192093,"stimulus":"[A] option 1, [L] option 2, [G] neither","key_press":76,"name":"choice","trial_type":"html-keyboard-response","trial_index":120,"time_elapsed":213531,"internal_node_id":"0.0-120.0","subject":"S1C1206","sona":"41427","block":6,"time":"2021-09-07T02:21:58.753Z","response":"2nd","certainty":"high","char":"L","transposition":-2,"order":["shifted","swapped"],"probe_pitches":[13,12,6,8,3,6,10,13,4,1,5,8],"shifted_pitches":[13,12,6,8,3,6,9,13,4,1,5,8],"swapped_pitches":[13,12,6,8,3,10,6,13,4,1,5,8],"shift_direction":-1,"question_num":101,"has_decoy":false},{"rt":397,"stimulus":"[A] option 1, [L] option 2, [G] neither","key_press":76,"name":"choice","trial_type":"html-keyboard-response","trial_index":131,"time_elapsed":232197,"internal_node_id":"0.0-131.0","subject":"S1C1206","sona":"41427","block":6,"time":"2021-09-07T02:21:58.753Z","response":"2nd","certainty":"high","char":"L","transposition":-2,"order":["shifted","swapped"],"probe_pitches":[1,-1,6,1,4,9,6,1,4,11,1,-1],"shifted_pitches":[1,-1,6,1,4,8,6,1,4,11,1,-1],"swapped_pitches":[1,-1,6,1,4,6,9,1,4,11,1,-1],"shift_direction":-1,"question_num":111,"has_decoy":false},{"rt":728.4000000357628,"stimulus":"[A] option 1, [L] option 2, [G] neither","key_press":65,"name":"choice","trial_type":"html-keyboard-response","trial_index":142,"time_elapsed":251280,"internal_node_id":"0.0-142.0","subject":"S1C1206","sona":"41427","block":6,"time":"2021-09-07T02:21:58.753Z","response":"1st","certainty":"high","char":"A","transposition":-3,"order":["swapped","shifted"],"probe_pitches":[4,7,6,13,8,2,9,5,2,13,8,9],"shifted_pitches":[4,7,6,13,8,2,10,5,2,13,8,9],"swapped_pitches":[4,7,6,13,8,9,2,5,2,13,8,9],"shift_direction":1,"question_num":121,"has_decoy":false},{"rt":387.39999997615814,"stimulus":"[A] option 1, [L] option 2, [G] neither","key_press":76,"name":"choice","trial_type":"html-keyboard-response","trial_index":153,"time_elapsed":269849,"internal_node_id":"0.0-153.0","subject":"S1C1206","sona":"41427","block":6,"time":"2021-09-07T02:21:58.753Z","response":"2nd","certainty":"high","char":"L","transposition":0,"order":["swapped","shifted"],"probe_pitches":[-1,4,6,-1,6,4,1,11,-1,6,8,-1],"shifted_pitches":[-1,4,6,-1,6,4,0,11,-1,6,8,-1],"swapped_pitches":[-1,4,6,-1,6,1,4,11,-1,6,8,-1],"shift_direction":-1,"question_num":131,"has_decoy":false},{"rt":429.30000001192093,"stimulus":"[A] option 1, [L] option 2, [G] neither","key_press":65,"name":"choice","trial_type":"html-keyboard-response","trial_index":164,"time_elapsed":288526,"internal_node_id":"0.0-164.0","subject":"S1C1206","sona":"41427","block":6,"time":"2021-09-07T02:21:58.753Z","response":"1st","certainty":"high","char":"A","transposition":2,"order":["swapped","shifted"],"probe_pitches":[2,5,12,8,9,2,11,5,13,6,7,13],"shifted_pitches":[2,5,12,8,9,3,11,5,13,6,7,13],"swapped_pitches":[2,5,12,8,9,11,2,5,13,6,7,13],"shift_direction":1,"question_num":141,"has_decoy":false},{"rt":421.5,"stimulus":"[A] option 1, [L] option 2, [G] neither","key_press":76,"name":"choice","trial_type":"html-keyboard-response","trial_index":175,"time_elapsed":307295,"internal_node_id":"0.0-175.0","subject":"S1C1206","sona":"41427","block":6,"time":"2021-09-07T02:21:58.753Z","response":"2nd","certainty":"high","char":"L","transposition":3,"order":["swapped","shifted"],"probe_pitches":[4,1,3,9,3,9,6,1,6,11,9,3],"shifted_pitches":[4,1,3,9,3,9,5,1,6,11,9,3],"swapped_pitches":[4,1,3,9,3,6,9,1,6,11,9,3],"shift_direction":-1,"question_num":151,"has_decoy":false},{"rt":452.5,"stimulus":"[A] option 1, [L] option 2, [G] neither","key_press":76,"name":"choice","trial_type":"html-keyboard-response","trial_index":186,"time_elapsed":326045,"internal_node_id":"0.0-186.0","subject":"S1C1206","sona":"41427","block":6,"time":"2021-09-07T02:21:58.753Z","response":"2nd","certainty":"high","char":"L","transposition":-3,"order":["shifted","swapped"],"probe_pitches":[5,6,12,11,13,7,10,11,2,11,1,3],"shifted_pitches":[5,6,12,11,13,8,10,11,2,11,1,3],"swapped_pitches":[5,6,12,11,13,10,7,11,2,11,1,3],"shift_direction":1,"question_num":161,"has_decoy":false},{"rt":413.69999998807907,"stimulus":"[A] option 1, [L] option 2, [G] neither","key_press":76,"name":"choice","trial_type":"html-keyboard-response","trial_index":197,"time_elapsed":344603,"internal_node_id":"0.0-197.0","subject":"S1C1206","sona":"41427","block":6,"time":"2021-09-07T02:21:58.753Z","response":"2nd","certainty":"high","char":"L","transposition":-1,"order":["swapped","shifted"],"probe_pitches":[9,11,6,11,2,11,4,2,6,2,11,2],"shifted_pitches":[9,11,6,11,2,12,4,2,6,2,11,2],"swapped_pitches":[9,11,6,11,2,4,11,2,6,2,11,2],"shift_direction":1,"question_num":171,"has_decoy":false},{"rt":448.10000002384186,"stimulus":"[A] option 1, [L] option 2, [G] neither","key_press":76,"name":"choice","trial_type":"html-keyboard-response","trial_index":208,"time_elapsed":363373,"internal_node_id":"0.0-208.0","subject":"S1C1206","sona":"41427","block":6,"time":"2021-09-07T02:21:58.753Z","response":"2nd","certainty":"high","char":"L","transposition":-1,"order":["shifted","swapped"],"probe_pitches":[4,8,12,10,9,12,3,5,4,8,13,3],"shifted_pitches":[4,8,12,10,9,11,3,5,4,8,13,3],"swapped_pitches":[4,8,12,10,9,3,12,5,4,8,13,3],"shift_direction":-1,"question_num":181,"has_decoy":false},{"rt":1039.2000000476837,"stimulus":"[A] option 1, [L] option 2, [G] neither","key_press":71,"name":"choice","trial_type":"html-keyboard-response","trial_index":219,"time_elapsed":382716,"internal_node_id":"0.0-219.0","subject":"S1C1206","sona":"41427","block":6,"time":"2021-09-07T02:21:58.753Z","response":"neither","certainty":"high","char":"G","transposition":1,"order":["swapped","shifted"],"probe_pitches":[2,8,10,12,8,7,10,3,2,1,5,10],"shifted_pitches":[2,8,10,12,8,6,10,3,2,1,5,10],"swapped_pitches":[2,8,10,12,8,10,7,3,2,1,5,10],"shift_direction":-1,"question_num":191,"has_decoy":false}]