[{"rt":1089.9000000357628,"stimulus":"[A] option 1, [L] option 2, [G] neither","key_press":71,"name":"choice","trial_type":"html-keyboard-response","trial_index":10,"time_elapsed":20702,"internal_node_id":"0.0-10.0","subject":"S1C1206","sona":"41427","block":3,"time":"2021-09-07T00:00:39.299Z","response":"neither","certainty":"high","char":"G","transposition":-3,"order":["swapped","shifted"],"probe_pitches":[3,-1,5,0,-2,2,5,-2,-1,0,4,-2],"shifted_pitches":[3,-1,5,0,-2,1,5,-2,-1,0,4,-2],"swapped_pitches":[3,-1,5,0,-2,5,2,-2,-1,0,4,-2],"shift_direction":-1,"question_num":1,"has_decoy":false},{"rt":374.89999997615814,"stimulus":"[A] option 1, [L] option 2, [G] neither","key_press":76,"name":"choice","trial_type":"html-keyboard-response","trial_index":21,"time_elapsed":40515,"internal_node_id":"0.0-21.0","subject":"S1C1206","sona":"41427","block":3,"time":"2021-09-07T00:00:39.299Z","response":"2nd","certainty":"high","char":"L","transposition":-1,"order":["swapped","shifted"],"probe_pitches":[-1,3,-2,5,3,9,6,0,9,6,3,-1],"shifted_pitches":[-1,3,-2,5,3,9,7,0,9,6,3,-1],"swapped_pitches":[-1,3,-2,5,3,6,9,0,9,6,3,-1],"shift_direction":1,"question_num":11,"has_decoy":false},{"rt":1059.300000011921,"stimulus":"[A] option 1, [L] option 2, [G] neither","key_press":76,"name":"choice","trial_type":"html-keyboard-response","trial_index":32,"time_elapsed":59839,"internal_node_id":"0.0-32.0","subject":"S1C1206","sona":"41427","block":3,"time":"2021-09-07T00:00:39.299Z","response":"2nd","certainty":"high","char":"L","transposition":3,"order":["shifted","swapped"],"probe_pitches":[0,-2,5,3,1,0,-3,9,5,7,9,8],"shifted_pitches":[0,-2,5,3,1,-1,-3,9,5,7,9,8],"swapped_pitches":[0,-2,5,3,1,-3,0,9,5,7,9,8],"shift_direction":-1,"question_num":21,"has_decoy":false},{"rt":462.89999997615814,"stimulus":"[A] option 1, [L] option 2, [G] neither","key_press":65,"name":"choice","trial_type":"html-keyboard-response","trial_index":43,"time_elapsed":78736,"internal_node_id":"0.0-43.0","subject":"S1C1206","sona":"41427","block":3,"time":"2021-09-07T00:00:39.299Z","response":"1st","certainty":"high","char":"A","transposition":3,"order":["swapped","shifted"],"probe_pitches":[13,10,13,10,8,6,10,13,1,3,13,10],"shifted_pitches":[13,10,13,10,8,5,10,13,1,3,13,10],"swapped_pitches":[13,10,13,10,8,10,6,13,1,3,13,10],"shift_direction":-1,"question_num":31,"has_decoy":false},{"rt":430,"stimulus":"[A] option 1, [L] option 2, [G] neither","key_press":76,"name":"choice","trial_type":"html-keyboard-response","trial_index":54,"time_elapsed":97502,"internal_node_id":"0.0-54.0","subject":"S1C1206","sona":"41427","block":3,"time":"2021-09-07T00:00:39.299Z","response":"2nd","certainty":"high","char":"L","transposition":0,"order":["swapped","shifted"],"probe_pitches":[3,5,0,6,9,3,-2,-3,-1,1,7,-3],"shifted_pitches":[3,5,0,6,9,2,-2,-3,-1,1,7,-3],"swapped_pitches":[3,5,0,6,9,-2,3,-3,-1,1,7,-3],"shift_direction":-1,"question_num":41,"has_decoy":false},{"rt":349.4000000357628,"stimulus":"[A] option 1, [L] option 2, [G] neither","key_press":76,"name":"choice","trial_type":"html-keyboard-response","trial_index":65,"time_elapsed":116209,"internal_node_id":"0.0-65.0","subject":"S1C1206","sona":"41427","block":3,"time":"2021-09-07T00:00:39.299Z","response":"2nd","certainty":"high","char":"L","transposition":-1,"order":["swapped","shifted"],"probe_pitches":[8,3,8,13,5,3,13,10,1,8,13,5],"shifted_pitches":[8,3,8,13,5,3,14,10,1,8,13,5],"swapped_pitches":[8,3,8,13,5,13,3,10,1,8,13,5],"shift_direction":1,"question_num":51,"has_decoy":false},{"rt":903.3999999761581,"stimulus":"[A] option 1, [L] option 2, [G] neither","key_press":76,"name":"choice","trial_type":"html-keyboard-response","trial_index":76,"time_elapsed":135429,"internal_node_id":"0.0-76.0","subject":"S1C1206","sona":"41427","block":3,"time":"2021-09-07T00:00:39.299Z","response":"2nd","certainty":"high","char":"L","transposition":-1,"order":["swapped","shifted"],"probe_pitches":[6,1,4,9,1,11,9,6,11,6,1,6],"shifted_pitches":[6,1,4,9,1,11,10,6,11,6,1,6],"swapped_pitches":[6,1,4,9,1,9,11,6,11,6,1,6],"shift_direction":1,"question_num":61,"has_decoy":false},{"rt":1068.8999999761581,"stimulus":"[A] option 1, [L] option 2, [G] neither","key_press":76,"name":"choice","trial_type":"html-keyboard-response","trial_index":87,"time_elapsed":154773,"internal_node_id":"0.0-87.0","subject":"S1C1206","sona":"41427","block":3,"time":"2021-09-07T00:00:39.299Z","response":"2nd","certainty":"high","char":"L","transposition":2,"order":["swapped","shifted"],"probe_pitches":[3,2,-3,0,8,6,3,2,0,-2,-3,6],"shifted_pitches":[3,2,-3,0,8,6,4,2,0,-2,-3,6],"swapped_pitches":[3,2,-3,0,8,3,6,2,0,-2,-3,6],"shift_direction":1,"question_num":71,"has_decoy":false},{"rt":668.9000000357628,"stimulus":"[A] option 1, [L] option 2, [G] neither","key_press":76,"name":"choice","trial_type":"html-keyboard-response","trial_index":98,"time_elapsed":173764,"internal_node_id":"0.0-98.0","subject":"S1C1206","sona":"41427","block":3,"time":"2021-09-07T00:00:39.299Z","response":"2nd","certainty":"high","char":"L","transposition":1,"order":["shifted","swapped"],"probe_pitches":[1,-3,0,-1,4,9,-1,2,1,2,1,7],"shifted_pitches":[1,-3,0,-1,4,8,-1,2,1,2,1,7],"swapped_pitches":[1,-3,0,-1,4,-1,9,2,1,2,1,7],"shift_direction":-1,"question_num":81,"has_decoy":false},{"rt":374.5,"stimulus":"[A] option 1, [L] option 2, [G] neither","key_press":65,"name":"choice","trial_type":"html-keyboard-response","trial_index":109,"time_elapsed":192530,"internal_node_id":"0.0-109.0","subject":"S1C1206","sona":"41427","block":3,"time":"2021-09-07T00:00:39.299Z","response":"1st","certainty":"high","char":"A","transposition":-2,"order":["swapped","shifted"],"probe_pitches":[7,2,-1,2,5,7,1,4,8,-1,5,-2],"shifted_pitches":[7,2,-1,2,5,7,0,4,8,-1,5,-2],"swapped_pitches":[7,2,-1,2,5,1,7,4,8,-1,5,-2],"shift_direction":-1,"question_num":91,"has_decoy":false},{"rt":395.30000001192093,"stimulus":"[A] option 1, [L] option 2, [G] neither","key_press":65,"name":"choice","trial_type":"html-keyboard-response","trial_index":120,"time_elapsed":211366,"internal_node_id":"0.0-120.0","subject":"S1C1206","sona":"41427","block":3,"time":"2021-09-07T00:00:39.299Z","response":"1st","certainty":"high","char":"A","transposition":-2,"order":["shifted","swapped"],"probe_pitches":[8,4,6,8,4,13,11,4,13,6,4,1],"shifted_pitches":[8,4,6,8,4,14,11,4,13,6,4,1],"swapped_pitches":[8,4,6,8,4,11,13,4,13,6,4,1],"shift_direction":1,"question_num":101,"has_decoy":false},{"rt":827.9000000357628,"stimulus":"[A] option 1, [L] option 2, [G] neither","key_press":65,"name":"choice","trial_type":"html-keyboard-response","trial_index":131,"time_elapsed":230694,"internal_node_id":"0.0-131.0","subject":"S1C1206","sona":"41427","block":3,"time":"2021-09-07T00:00:39.299Z","response":"1st","certainty":"high","char":"A","transposition":-1,"order":["shifted","swapped"],"probe_pitches":[-1,-2,-3,-1,1,6,4,-2,9,-2,1,0],"shifted_pitches":[-1,-2,-3,-1,1,6,5,-2,9,-2,1,0],"swapped_pitches":[-1,-2,-3,-1,1,4,6,-2,9,-2,1,0],"shift_direction":1,"question_num":111,"has_decoy":false},{"rt":3229.800000011921,"stimulus":"[A] option 1, [L] option 2, [G] neither","key_press":65,"name":"choice","trial_type":"html-keyboard-response","trial_index":142,"time_elapsed":252279,"internal_node_id":"0.0-142.0","subject":"S1C1206","sona":"41427","block":3,"time":"2021-09-07T00:00:39.299Z","response":"1st","certainty":"high","char":"A","transposition":0,"order":["swapped","shifted"],"probe_pitches":[8,10,3,1,10,3,1,8,6,3,8,6],"shifted_pitches":[8,10,3,1,10,2,1,8,6,3,8,6],"swapped_pitches":[8,10,3,1,10,1,3,8,6,3,8,6],"shift_direction":-1,"question_num":121,"has_decoy":false},{"rt":679.2000000476837,"stimulus":"[A] option 1, [L] option 2, [G] neither","key_press":65,"name":"choice","trial_type":"html-keyboard-response","trial_index":153,"time_elapsed":271466,"internal_node_id":"0.0-153.0","subject":"S1C1206","sona":"41427","block":3,"time":"2021-09-07T00:00:39.299Z","response":"1st","certainty":"high","char":"A","transposition":1,"order":["shifted","swapped"],"probe_pitches":[13,11,8,6,3,6,11,8,1,6,8,3],"shifted_pitches":[13,11,8,6,3,6,10,8,1,6,8,3],"swapped_pitches":[13,11,8,6,3,11,6,8,1,6,8,3],"shift_direction":-1,"question_num":131,"has_decoy":false},{"rt":1506.300000011921,"stimulus":"[A] option 1, [L] option 2, [G] neither","key_press":71,"name":"choice","trial_type":"html-keyboard-response","trial_index":164,"time_elapsed":291045,"internal_node_id":"0.0-164.0","subject":"S1C1206","sona":"41427","block":3,"time":"2021-09-07T00:00:39.299Z","response":"neither","certainty":"high","char":"G","transposition":-2,"order":["shifted","swapped"],"probe_pitches":[3,1,3,11,6,1,8,6,8,1,13,3],"shifted_pitches":[3,1,3,11,6,0,8,6,8,1,13,3],"swapped_pitches":[3,1,3,11,6,8,1,6,8,1,13,3],"shift_direction":-1,"question_num":141,"has_decoy":false},{"rt":4634.800000011921,"stimulus":"[A] option 1, [L] option 2, [G] neither","key_press":65,"name":"choice","trial_type":"html-keyboard-response","trial_index":175,"time_elapsed":314033,"internal_node_id":"0.0-175.0","subject":"S1C1206","sona":"41427","block":3,"time":"2021-09-07T00:00:39.299Z","response":"1st","certainty":"high","char":"A","transposition":-2,"order":["shifted","swapped"],"probe_pitches":[-1,-2,1,9,3,-3,5,7,1,8,3,5],"shifted_pitches":[-1,-2,1,9,3,-3,6,7,1,8,3,5],"swapped_pitches":[-1,-2,1,9,3,5,-3,7,1,8,3,5],"shift_direction":1,"question_num":151,"has_decoy":false},{"rt":410.69999998807907,"stimulus":"[A] option 1, [L] option 2, [G] neither","key_press":65,"name":"choice","trial_type":"html-keyboard-response","trial_index":186,"time_elapsed":338534,"internal_node_id":"0.0-186.0","subject":"S1C1206","sona":"41427","block":3,"time":"2021-09-07T00:00:39.299Z","response":"1st","certainty":"high","char":"A","transposition":2,"order":["shifted","swapped"],"probe_pitches":[5,3,5,8,10,8,5,3,8,13,10,8],"shifted_pitches":[5,3,5,8,10,8,4,3,8,13,10,8],"swapped_pitches":[5,3,5,8,10,5,8,3,8,13,10,8],"shift_direction":-1,"question_num":161,"has_decoy":false},{"rt":1458.300000011921,"stimulus":"[A] option 1, [L] option 2, [G] neither","key_press":65,"name":"choice","trial_type":"html-keyboard-response","trial_index":197,"time_elapsed":358434,"internal_node_id":"0.0-197.0","subject":"S1C1206","sona":"41427","block":3,"time":"2021-09-07T00:00:39.299Z","response":"1st","certainty":"high","char":"A","transposition":-3,"order":["shifted","swapped"],"probe_pitches":[-2,4,7,6,9,2,5,9,7,1,2,9],"shifted_pitches":[-2,4,7,6,9,3,5,9,7,1,2,9],"swapped_pitches":[-2,4,7,6,9,5,2,9,7,1,2,9],"shift_direction":1,"question_num":171,"has_decoy":false},{"rt":1382.699999988079,"stimulus":"[A] option 1, [L] option 2, [G] neither","key_press":71,"name":"choice","trial_type":"html-keyboard-response","trial_index":208,"time_elapsed":378198,"internal_node_id":"0.0-208.0","subject":"S1C1206","sona":"41427","block":3,"time":"2021-09-07T00:00:39.299Z","response":"neither","certainty":"high","char":"G","transposition":-3,"order":["shifted","swapped"],"probe_pitches":[13,11,13,8,13,4,6,8,1,8,6,1],"shifted_pitches":[13,11,13,8,13,4,7,8,1,8,6,1],"swapped_pitches":[13,11,13,8,13,6,4,8,1,8,6,1],"shift_direction":1,"question_num":181,"has_decoy":false},{"rt":406.5999999642372,"stimulus":"[A] option 1, [L] option 2, [G] neither","key_press":76,"name":"choice","trial_type":"html-keyboard-response","trial_index":219,"time_elapsed":397062,"internal_node_id":"0.0-219.0","subject":"S1C1206","sona":"41427","block":3,"time":"2021-09-07T00:00:39.299Z","response":"2nd","certainty":"high","char":"L","transposition":-3,"order":["swapped","shifted"],"probe_pitches":[1,6,9,11,9,13,6,4,1,11,1,9],"shifted_pitches":[1,6,9,11,9,14,6,4,1,11,1,9],"swapped_pitches":[1,6,9,11,9,6,13,4,1,11,1,9],"shift_direction":1,"question_num":191,"has_decoy":false}]