[{"rt":890.5999999940395,"stimulus":"[A] option 1, [L] option 2, [G] neither","key_press":76,"name":"choice","trial_type":"html-keyboard-response","trial_index":10,"time_elapsed":15233,"internal_node_id":"0.0-10.0","subject":"S1C0826","sona":"38027","block":5,"time":"2021-09-17T17:15:58.678Z","response":"2nd","certainty":"high","char":"L","transposition":-1,"order":["shifted","swapped"],"probe_pitches":[11,9,3,6,11,2,0,4],"shifted_pitches":[11,9,3,7,11,2,0,4],"swapped_pitches":[11,9,3,11,6,2,0,4],"shift_direction":1,"question_num":1,"has_decoy":false},{"rt":295.59999999403954,"stimulus":"[A] option 1, [L] option 2, [G] neither","key_press":65,"name":"choice","trial_type":"html-keyboard-response","trial_index":21,"time_elapsed":30595,"internal_node_id":"0.0-21.0","subject":"S1C0826","sona":"38027","block":5,"time":"2021-09-17T17:15:58.678Z","response":"1st","certainty":"high","char":"A","transposition":-2,"order":["swapped","shifted"],"probe_pitches":[0,2,5,1,4,6,4,6],"shifted_pitches":[0,2,5,1,3,6,4,6],"swapped_pitches":[0,2,5,4,1,6,4,6],"shift_direction":-1,"question_num":11,"has_decoy":false},{"rt":275.80000001192093,"stimulus":"[A] option 1, [L] option 2, [G] neither","key_press":76,"name":"choice","trial_type":"html-keyboard-response","trial_index":32,"time_elapsed":44981,"internal_node_id":"0.0-32.0","subject":"S1C0826","sona":"38027","block":5,"time":"2021-09-17T17:15:58.678Z","response":"2nd","certainty":"high","char":"L","transposition":2,"order":["shifted","swapped"],"probe_pitches":[14,12,9,4,7,9,14,9],"shifted_pitches":[14,12,9,4,6,9,14,9],"swapped_pitches":[14,12,9,7,4,9,14,9],"shift_direction":-1,"question_num":21,"has_decoy":false},{"rt":414.90000000596046,"stimulus":"[A] option 1, [L] option 2, [G] neither","key_press":76,"name":"choice","trial_type":"html-keyboard-response","trial_index":43,"time_elapsed":59909,"internal_node_id":"0.0-43.0","subject":"S1C0826","sona":"38027","block":5,"time":"2021-09-17T17:15:58.678Z","response":"2nd","certainty":"high","char":"L","transposition":3,"order":["swapped","shifted"],"probe_pitches":[5,10,14,10,7,5,2,12],"shifted_pitches":[5,10,14,10,6,5,2,12],"swapped_pitches":[5,10,14,7,10,5,2,12],"shift_direction":-1,"question_num":31,"has_decoy":false},{"rt":476.19999998807907,"stimulus":"[A] option 1, [L] option 2, [G] neither","key_press":71,"name":"choice","trial_type":"html-keyboard-response","trial_index":54,"time_elapsed":74727,"internal_node_id":"0.0-54.0","subject":"S1C0826","sona":"38027","block":5,"time":"2021-09-17T17:15:58.678Z","response":"neither","certainty":"high","char":"G","transposition":-2,"order":["swapped","shifted"],"probe_pitches":[14,9,12,5,7,2,7,5],"shifted_pitches":[14,9,12,4,7,2,7,5],"swapped_pitches":[14,9,12,7,5,2,7,5],"shift_direction":-1,"question_num":41,"has_decoy":false},{"rt":484.7999999821186,"stimulus":"[A] option 1, [L] option 2, [G] neither","key_press":76,"name":"choice","trial_type":"html-keyboard-response","trial_index":65,"time_elapsed":89600,"internal_node_id":"0.0-65.0","subject":"S1C0826","sona":"38027","block":5,"time":"2021-09-17T17:15:58.678Z","response":"2nd","certainty":"high","char":"L","transposition":0,"order":["swapped","shifted"],"probe_pitches":[4,2,7,4,2,11,9,14],"shifted_pitches":[4,2,7,4,3,11,9,14],"swapped_pitches":[4,2,7,2,4,11,9,14],"shift_direction":1,"question_num":51,"has_decoy":false},{"rt":44.099999994039536,"stimulus":"[A] option 1, [L] option 2, [G] neither","key_press":76,"name":"choice","trial_type":"html-keyboard-response","trial_index":76,"time_elapsed":104055,"internal_node_id":"0.0-76.0","subject":"S1C0826","sona":"38027","block":5,"time":"2021-09-17T17:15:58.678Z","response":"2nd","certainty":"high","char":"L","transposition":2,"order":["shifted","swapped"],"probe_pitches":[-1,5,9,5,6,1,7,11],"shifted_pitches":[-1,5,9,4,6,1,7,11],"swapped_pitches":[-1,5,9,6,5,1,7,11],"shift_direction":-1,"question_num":61,"has_decoy":false},{"rt":1166.5,"stimulus":"[A] option 1, [L] option 2, [G] neither","key_press":71,"name":"choice","trial_type":"html-keyboard-response","trial_index":87,"time_elapsed":119694,"internal_node_id":"0.0-87.0","subject":"S1C0826","sona":"38027","block":5,"time":"2021-09-17T17:15:58.678Z","response":"neither","certainty":"high","char":"G","transposition":-1,"order":["shifted","swapped"],"probe_pitches":[7,4,9,4,7,12,2,9],"shifted_pitches":[7,4,9,3,7,12,2,9],"swapped_pitches":[7,4,9,7,4,12,2,9],"shift_direction":-1,"question_num":71,"has_decoy":false},{"rt":115.80000001192093,"stimulus":"[A] option 1, [L] option 2, [G] neither","key_press":76,"name":"choice","trial_type":"html-keyboard-response","trial_index":98,"time_elapsed":134306,"internal_node_id":"0.0-98.0","subject":"S1C0826","sona":"38027","block":5,"time":"2021-09-17T17:15:58.678Z","response":"2nd","certainty":"high","char":"L","transposition":-3,"order":["shifted","swapped"],"probe_pitches":[3,6,-1,7,4,5,3,10],"shifted_pitches":[3,6,-1,8,4,5,3,10],"swapped_pitches":[3,6,-1,4,7,5,3,10],"shift_direction":1,"question_num":81,"has_decoy":false},{"rt":252.30000001192093,"stimulus":"[A] option 1, [L] option 2, [G] neither","key_press":65,"name":"choice","trial_type":"html-keyboard-response","trial_index":109,"time_elapsed":148732,"internal_node_id":"0.0-109.0","subject":"S1C0826","sona":"38027","block":5,"time":"2021-09-17T17:15:58.678Z","response":"1st","certainty":"high","char":"A","transposition":3,"order":["swapped","shifted"],"probe_pitches":[4,-1,0,-1,5,0,1,2],"shifted_pitches":[4,-1,0,-1,6,0,1,2],"swapped_pitches":[4,-1,0,5,-1,0,1,2],"shift_direction":1,"question_num":91,"has_decoy":false},{"rt":217.09999999403954,"stimulus":"[A] option 1, [L] option 2, [G] neither","key_press":76,"name":"choice","trial_type":"html-keyboard-response","trial_index":120,"time_elapsed":163828,"internal_node_id":"0.0-120.0","subject":"S1C0826","sona":"38027","block":5,"time":"2021-09-17T17:15:58.678Z","response":"2nd","certainty":"high","char":"L","transposition":-2,"order":["shifted","swapped"],"probe_pitches":[4,10,8,10,3,6,10,8],"shifted_pitches":[4,10,8,10,2,6,10,8],"swapped_pitches":[4,10,8,3,10,6,10,8],"shift_direction":-1,"question_num":101,"has_decoy":false},{"rt":1250.2999999821186,"stimulus":"[A] option 1, [L] option 2, [G] neither","key_press":71,"name":"choice","trial_type":"html-keyboard-response","trial_index":131,"time_elapsed":179256,"internal_node_id":"0.0-131.0","subject":"S1C0826","sona":"38027","block":5,"time":"2021-09-17T17:15:58.678Z","response":"neither","certainty":"high","char":"G","transposition":1,"order":["swapped","shifted"],"probe_pitches":[9,4,9,2,10,7,3,11],"shifted_pitches":[9,4,9,1,10,7,3,11],"swapped_pitches":[9,4,9,10,2,7,3,11],"shift_direction":-1,"question_num":111,"has_decoy":false},{"rt":1791.4000000059605,"stimulus":"[A] option 1, [L] option 2, [G] neither","key_press":65,"name":"choice","trial_type":"html-keyboard-response","trial_index":142,"time_elapsed":195221,"internal_node_id":"0.0-142.0","subject":"S1C0826","sona":"38027","block":5,"time":"2021-09-17T17:15:58.678Z","response":"1st","certainty":"high","char":"A","transposition":-3,"order":["swapped","shifted"],"probe_pitches":[2,6,1,0,8,3,4,2],"shifted_pitches":[2,6,1,0,9,3,4,2],"swapped_pitches":[2,6,1,8,0,3,4,2],"shift_direction":1,"question_num":121,"has_decoy":false},{"rt":1795.800000011921,"stimulus":"[A] option 1, [L] option 2, [G] neither","key_press":76,"name":"choice","trial_type":"html-keyboard-response","trial_index":153,"time_elapsed":211748,"internal_node_id":"0.0-153.0","subject":"S1C0826","sona":"38027","block":5,"time":"2021-09-17T17:15:58.678Z","response":"2nd","certainty":"high","char":"L","transposition":0,"order":["swapped","shifted"],"probe_pitches":[2,4,5,9,7,8,9,0],"shifted_pitches":[2,4,5,10,7,8,9,0],"swapped_pitches":[2,4,5,7,9,8,9,0],"shift_direction":1,"question_num":131,"has_decoy":false},{"rt":1052.9000000059605,"stimulus":"[A] option 1, [L] option 2, [G] neither","key_press":71,"name":"choice","trial_type":"html-keyboard-response","trial_index":164,"time_elapsed":227187,"internal_node_id":"0.0-164.0","subject":"S1C0826","sona":"38027","block":5,"time":"2021-09-17T17:15:58.678Z","response":"neither","certainty":"high","char":"G","transposition":-3,"order":["swapped","shifted"],"probe_pitches":[12,14,7,9,12,14,9,5],"shifted_pitches":[12,14,7,9,13,14,9,5],"swapped_pitches":[12,14,7,12,9,14,9,5],"shift_direction":1,"question_num":141,"has_decoy":false},{"rt":2005.300000011921,"stimulus":"[A] option 1, [L] option 2, [G] neither","key_press":76,"name":"choice","trial_type":"html-keyboard-response","trial_index":175,"time_elapsed":243365,"internal_node_id":"0.0-175.0","subject":"S1C0826","sona":"38027","block":5,"time":"2021-09-17T17:15:58.678Z","response":"2nd","certainty":"high","char":"L","transposition":1,"order":["shifted","swapped"],"probe_pitches":[4,9,14,9,4,7,11,9],"shifted_pitches":[4,9,14,9,5,7,11,9],"swapped_pitches":[4,9,14,4,9,7,11,9],"shift_direction":1,"question_num":151,"has_decoy":false},{"rt":1251.699999988079,"stimulus":"[A] option 1, [L] option 2, [G] neither","key_press":71,"name":"choice","trial_type":"html-keyboard-response","trial_index":186,"time_elapsed":259151,"internal_node_id":"0.0-186.0","subject":"S1C0826","sona":"38027","block":5,"time":"2021-09-17T17:15:58.678Z","response":"neither","certainty":"high","char":"G","transposition":-1,"order":["shifted","swapped"],"probe_pitches":[2,4,9,4,6,9,4,11],"shifted_pitches":[2,4,9,5,6,9,4,11],"swapped_pitches":[2,4,9,6,4,9,4,11],"shift_direction":1,"question_num":161,"has_decoy":false},{"rt":1417.7000000178814,"stimulus":"[A] option 1, [L] option 2, [G] neither","key_press":71,"name":"choice","trial_type":"html-keyboard-response","trial_index":197,"time_elapsed":277642,"internal_node_id":"0.0-197.0","subject":"S1C0826","sona":"38027","block":5,"time":"2021-09-17T17:15:58.678Z","response":"neither","certainty":"high","char":"G","transposition":-2,"order":["shifted","swapped"],"probe_pitches":[11,6,9,11,4,2,6,2],"shifted_pitches":[11,6,9,10,4,2,6,2],"swapped_pitches":[11,6,9,4,11,2,6,2],"shift_direction":-1,"question_num":171,"has_decoy":false},{"rt":343,"stimulus":"[A] option 1, [L] option 2, [G] neither","key_press":76,"name":"choice","trial_type":"html-keyboard-response","trial_index":208,"time_elapsed":292871,"internal_node_id":"0.0-208.0","subject":"S1C0826","sona":"38027","block":5,"time":"2021-09-17T17:15:58.678Z","response":"2nd","certainty":"high","char":"L","transposition":-3,"order":["swapped","shifted"],"probe_pitches":[5,7,10,2,7,14,12,14],"shifted_pitches":[5,7,10,3,7,14,12,14],"swapped_pitches":[5,7,10,7,2,14,12,14],"shift_direction":1,"question_num":181,"has_decoy":false},{"rt":1402.699999988079,"stimulus":"[A] option 1, [L] option 2, [G] neither","key_press":71,"name":"choice","trial_type":"html-keyboard-response","trial_index":219,"time_elapsed":308309,"internal_node_id":"0.0-219.0","subject":"S1C0826","sona":"38027","block":5,"time":"2021-09-17T17:15:58.678Z","response":"neither","certainty":"high","char":"G","transposition":-1,"order":["shifted","swapped"],"probe_pitches":[9,8,11,4,6,-1,6,3],"shifted_pitches":[9,8,11,4,5,-1,6,3],"swapped_pitches":[9,8,11,6,4,-1,6,3],"shift_direction":-1,"question_num":191,"has_decoy":false}]