[{"rt":153.5,"stimulus":"[A] option 1, [L] option 2, [G] neither","key_press":76,"name":"choice","trial_type":"html-keyboard-response","trial_index":10,"time_elapsed":16055,"internal_node_id":"0.0-10.0","subject":"S1C0826","sona":"38027","block":4,"time":"2021-09-17T17:10:46.102Z","response":"2nd","certainty":"high","char":"L","transposition":3,"order":["swapped","shifted"],"probe_pitches":[-1,4,1,-3,-1,4,-3,6],"shifted_pitches":[-1,4,1,-3,-2,4,-3,6],"swapped_pitches":[-1,4,1,-1,-3,4,-3,6],"shift_direction":-1,"question_num":1,"has_decoy":false},{"rt":704.1999999880791,"stimulus":"[A] option 1, [L] option 2, [G] neither","key_press":71,"name":"choice","trial_type":"html-keyboard-response","trial_index":21,"time_elapsed":32808,"internal_node_id":"0.0-21.0","subject":"S1C0826","sona":"38027","block":4,"time":"2021-09-17T17:10:46.102Z","response":"neither","certainty":"high","char":"G","transposition":0,"order":["swapped","shifted"],"probe_pitches":[-2,0,2,-1,6,10,4,8],"shifted_pitches":[-2,0,2,-1,7,10,4,8],"swapped_pitches":[-2,0,2,6,-1,10,4,8],"shift_direction":1,"question_num":11,"has_decoy":false},{"rt":468,"stimulus":"[A] option 1, [L] option 2, [G] neither","key_press":65,"name":"choice","trial_type":"html-keyboard-response","trial_index":32,"time_elapsed":47484,"internal_node_id":"0.0-32.0","subject":"S1C0826","sona":"38027","block":4,"time":"2021-09-17T17:10:46.102Z","response":"1st","certainty":"high","char":"A","transposition":-2,"order":["swapped","shifted"],"probe_pitches":[9,3,6,-1,8,-2,7,3],"shifted_pitches":[9,3,6,0,8,-2,7,3],"swapped_pitches":[9,3,6,8,-1,-2,7,3],"shift_direction":1,"question_num":21,"has_decoy":false},{"rt":1458.800000011921,"stimulus":"[A] option 1, [L] option 2, [G] neither","key_press":71,"name":"choice","trial_type":"html-keyboard-response","trial_index":43,"time_elapsed":65040,"internal_node_id":"0.0-43.0","subject":"S1C0826","sona":"38027","block":4,"time":"2021-09-17T17:10:46.102Z","response":"neither","certainty":"high","char":"G","transposition":-2,"order":["shifted","swapped"],"probe_pitches":[-3,2,5,7,0,2,-3,7],"shifted_pitches":[-3,2,5,7,-1,2,-3,7],"swapped_pitches":[-3,2,5,0,7,2,-3,7],"shift_direction":-1,"question_num":31,"has_decoy":false},{"rt":3965.0999999940395,"stimulus":"[A] option 1, [L] option 2, [G] neither","key_press":76,"name":"choice","trial_type":"html-keyboard-response","trial_index":54,"time_elapsed":83488,"internal_node_id":"0.0-54.0","subject":"S1C0826","sona":"38027","block":4,"time":"2021-09-17T17:10:46.102Z","response":"2nd","certainty":"high","char":"L","transposition":-3,"order":["swapped","shifted"],"probe_pitches":[9,7,2,7,0,2,4,2],"shifted_pitches":[9,7,2,8,0,2,4,2],"swapped_pitches":[9,7,2,0,7,2,4,2],"shift_direction":1,"question_num":41,"has_decoy":false},{"rt":289.90000000596046,"stimulus":"[A] option 1, [L] option 2, [G] neither","key_press":65,"name":"choice","trial_type":"html-keyboard-response","trial_index":65,"time_elapsed":98111,"internal_node_id":"0.0-65.0","subject":"S1C0826","sona":"38027","block":4,"time":"2021-09-17T17:10:46.102Z","response":"1st","certainty":"high","char":"A","transposition":-1,"order":["swapped","shifted"],"probe_pitches":[6,9,4,6,9,2,-3,-1],"shifted_pitches":[6,9,4,7,9,2,-3,-1],"swapped_pitches":[6,9,4,9,6,2,-3,-1],"shift_direction":1,"question_num":51,"has_decoy":false},{"rt":2024.2000000178814,"stimulus":"[A] option 1, [L] option 2, [G] neither","key_press":71,"name":"choice","trial_type":"html-keyboard-response","trial_index":76,"time_elapsed":114731,"internal_node_id":"0.0-76.0","subject":"S1C0826","sona":"38027","block":4,"time":"2021-09-17T17:10:46.102Z","response":"neither","certainty":"high","char":"G","transposition":-1,"order":["shifted","swapped"],"probe_pitches":[-3,2,-1,4,6,-3,4,-1],"shifted_pitches":[-3,2,-1,4,7,-3,4,-1],"swapped_pitches":[-3,2,-1,6,4,-3,4,-1],"shift_direction":1,"question_num":61,"has_decoy":false},{"rt":3000.300000011921,"stimulus":"[A] option 1, [L] option 2, [G] neither","key_press":71,"name":"choice","trial_type":"html-keyboard-response","trial_index":87,"time_elapsed":133147,"internal_node_id":"0.0-87.0","subject":"S1C0826","sona":"38027","block":4,"time":"2021-09-17T17:10:46.102Z","response":"neither","certainty":"high","char":"G","transposition":0,"order":["swapped","shifted"],"probe_pitches":[9,4,0,2,7,0,4,0],"shifted_pitches":[9,4,0,2,6,0,4,0],"swapped_pitches":[9,4,0,7,2,0,4,0],"shift_direction":-1,"question_num":71,"has_decoy":false},{"rt":790.5,"stimulus":"[A] option 1, [L] option 2, [G] neither","key_press":65,"name":"choice","trial_type":"html-keyboard-response","trial_index":98,"time_elapsed":151950,"internal_node_id":"0.0-98.0","subject":"S1C0826","sona":"38027","block":4,"time":"2021-09-17T17:10:46.102Z","response":"1st","certainty":"high","char":"A","transposition":1,"order":["shifted","swapped"],"probe_pitches":[4,7,2,-3,-1,9,-1,7],"shifted_pitches":[4,7,2,-4,-1,9,-1,7],"swapped_pitches":[4,7,2,-1,-3,9,-1,7],"shift_direction":-1,"question_num":81,"has_decoy":false},{"rt":900.4000000059605,"stimulus":"[A] option 1, [L] option 2, [G] neither","key_press":65,"name":"choice","trial_type":"html-keyboard-response","trial_index":109,"time_elapsed":167265,"internal_node_id":"0.0-109.0","subject":"S1C0826","sona":"38027","block":4,"time":"2021-09-17T17:10:46.102Z","response":"1st","certainty":"high","char":"A","transposition":3,"order":["shifted","swapped"],"probe_pitches":[-1,4,9,7,1,3,1,0],"shifted_pitches":[-1,4,9,6,1,3,1,0],"swapped_pitches":[-1,4,9,1,7,3,1,0],"shift_direction":-1,"question_num":91,"has_decoy":false},{"rt":424.09999999403954,"stimulus":"[A] option 1, [L] option 2, [G] neither","key_press":76,"name":"choice","trial_type":"html-keyboard-response","trial_index":120,"time_elapsed":184831,"internal_node_id":"0.0-120.0","subject":"S1C0826","sona":"38027","block":4,"time":"2021-09-17T17:10:46.102Z","response":"2nd","certainty":"high","char":"L","transposition":1,"order":["shifted","swapped"],"probe_pitches":[2,0,6,4,7,-1,2,-2],"shifted_pitches":[2,0,6,4,8,-1,2,-2],"swapped_pitches":[2,0,6,7,4,-1,2,-2],"shift_direction":1,"question_num":101,"has_decoy":false},{"rt":804.6999999880791,"stimulus":"[A] option 1, [L] option 2, [G] neither","key_press":76,"name":"choice","trial_type":"html-keyboard-response","trial_index":131,"time_elapsed":200428,"internal_node_id":"0.0-131.0","subject":"S1C0826","sona":"38027","block":4,"time":"2021-09-17T17:10:46.102Z","response":"2nd","certainty":"high","char":"L","transposition":2,"order":["shifted","swapped"],"probe_pitches":[-1,-3,-1,-3,2,9,7,4],"shifted_pitches":[-1,-3,-1,-2,2,9,7,4],"swapped_pitches":[-1,-3,-1,2,-3,9,7,4],"shift_direction":1,"question_num":111,"has_decoy":false},{"rt":462.2999999821186,"stimulus":"[A] option 1, [L] option 2, [G] neither","key_press":76,"name":"choice","trial_type":"html-keyboard-response","trial_index":142,"time_elapsed":215264,"internal_node_id":"0.0-142.0","subject":"S1C0826","sona":"38027","block":4,"time":"2021-09-17T17:10:46.102Z","response":"2nd","certainty":"high","char":"L","transposition":-1,"order":["swapped","shifted"],"probe_pitches":[-2,2,-1,5,7,9,1,3],"shifted_pitches":[-2,2,-1,4,7,9,1,3],"swapped_pitches":[-2,2,-1,7,5,9,1,3],"shift_direction":-1,"question_num":121,"has_decoy":false},{"rt":918.8000000119209,"stimulus":"[A] option 1, [L] option 2, [G] neither","key_press":71,"name":"choice","trial_type":"html-keyboard-response","trial_index":153,"time_elapsed":230536,"internal_node_id":"0.0-153.0","subject":"S1C0826","sona":"38027","block":4,"time":"2021-09-17T17:10:46.102Z","response":"neither","certainty":"high","char":"G","transposition":2,"order":["shifted","swapped"],"probe_pitches":[5,0,6,3,2,9,5,4],"shifted_pitches":[5,0,6,3,1,9,5,4],"swapped_pitches":[5,0,6,2,3,9,5,4],"shift_direction":-1,"question_num":131,"has_decoy":false},{"rt":433.80000001192093,"stimulus":"[A] option 1, [L] option 2, [G] neither","key_press":76,"name":"choice","trial_type":"html-keyboard-response","trial_index":164,"time_elapsed":245321,"internal_node_id":"0.0-164.0","subject":"S1C0826","sona":"38027","block":4,"time":"2021-09-17T17:10:46.102Z","response":"2nd","certainty":"high","char":"L","transposition":-2,"order":["shifted","swapped"],"probe_pitches":[7,6,3,1,5,-2,9,8],"shifted_pitches":[7,6,3,2,5,-2,9,8],"swapped_pitches":[7,6,3,5,1,-2,9,8],"shift_direction":1,"question_num":141,"has_decoy":false},{"rt":1105.5,"stimulus":"[A] option 1, [L] option 2, [G] neither","key_press":76,"name":"choice","trial_type":"html-keyboard-response","trial_index":175,"time_elapsed":261752,"internal_node_id":"0.0-175.0","subject":"S1C0826","sona":"38027","block":4,"time":"2021-09-17T17:10:46.102Z","response":"2nd","certainty":"high","char":"L","transposition":-3,"order":["shifted","swapped"],"probe_pitches":[8,6,9,7,4,6,4,7],"shifted_pitches":[8,6,9,7,3,6,4,7],"swapped_pitches":[8,6,9,4,7,6,4,7],"shift_direction":-1,"question_num":151,"has_decoy":false},{"rt":1470.199999988079,"stimulus":"[A] option 1, [L] option 2, [G] neither","key_press":71,"name":"choice","trial_type":"html-keyboard-response","trial_index":186,"time_elapsed":277370,"internal_node_id":"0.0-186.0","subject":"S1C0826","sona":"38027","block":4,"time":"2021-09-17T17:10:46.102Z","response":"neither","certainty":"high","char":"G","transposition":-1,"order":["swapped","shifted"],"probe_pitches":[7,9,8,6,4,10,9,10],"shifted_pitches":[7,9,8,5,4,10,9,10],"swapped_pitches":[7,9,8,4,6,10,9,10],"shift_direction":-1,"question_num":161,"has_decoy":false},{"rt":973.3000000119209,"stimulus":"[A] option 1, [L] option 2, [G] neither","key_press":71,"name":"choice","trial_type":"html-keyboard-response","trial_index":197,"time_elapsed":292474,"internal_node_id":"0.0-197.0","subject":"S1C0826","sona":"38027","block":4,"time":"2021-09-17T17:10:46.102Z","response":"neither","certainty":"high","char":"G","transposition":-2,"order":["swapped","shifted"],"probe_pitches":[-3,1,4,6,9,-1,6,1],"shifted_pitches":[-3,1,4,6,8,-1,6,1],"swapped_pitches":[-3,1,4,9,6,-1,6,1],"shift_direction":-1,"question_num":171,"has_decoy":false},{"rt":2293.5999999940395,"stimulus":"[A] option 1, [L] option 2, [G] neither","key_press":71,"name":"choice","trial_type":"html-keyboard-response","trial_index":208,"time_elapsed":309169,"internal_node_id":"0.0-208.0","subject":"S1C0826","sona":"38027","block":4,"time":"2021-09-17T17:10:46.102Z","response":"neither","certainty":"high","char":"G","transposition":-3,"order":["swapped","shifted"],"probe_pitches":[2,0,-1,5,8,2,4,3],"shifted_pitches":[2,0,-1,5,9,2,4,3],"swapped_pitches":[2,0,-1,8,5,2,4,3],"shift_direction":1,"question_num":181,"has_decoy":false},{"rt":439.2000000178814,"stimulus":"[A] option 1, [L] option 2, [G] neither","key_press":76,"name":"choice","trial_type":"html-keyboard-response","trial_index":219,"time_elapsed":326275,"internal_node_id":"0.0-219.0","subject":"S1C0826","sona":"38027","block":4,"time":"2021-09-17T17:10:46.102Z","response":"2nd","certainty":"high","char":"L","transposition":-3,"order":["shifted","swapped"],"probe_pitches":[9,5,7,2,5,0,-3,5],"shifted_pitches":[9,5,7,3,5,0,-3,5],"swapped_pitches":[9,5,7,5,2,0,-3,5],"shift_direction":1,"question_num":191,"has_decoy":false}]