[{"rt":449.59999999403954,"stimulus":"[A] option 1, [L] option 2, [G] neither","key_press":76,"name":"choice","trial_type":"html-keyboard-response","trial_index":10,"time_elapsed":15973,"internal_node_id":"0.0-10.0","subject":"S1C0826","sona":"38027","block":6,"time":"2021-09-17T17:21:21.232Z","response":"2nd","certainty":"high","char":"L","transposition":-3,"order":["swapped","shifted"],"probe_pitches":[4,10,7,6,0,-1,7,4],"shifted_pitches":[4,10,7,5,0,-1,7,4],"swapped_pitches":[4,10,7,0,6,-1,7,4],"shift_direction":-1,"question_num":1,"has_decoy":false},{"rt":864.1999999880791,"stimulus":"[A] option 1, [L] option 2, [G] neither","key_press":76,"name":"choice","trial_type":"html-keyboard-response","trial_index":21,"time_elapsed":31160,"internal_node_id":"0.0-21.0","subject":"S1C0826","sona":"38027","block":6,"time":"2021-09-17T17:21:21.232Z","response":"2nd","certainty":"high","char":"L","transposition":1,"order":["shifted","swapped"],"probe_pitches":[6,3,-1,1,6,8,3,-1],"shifted_pitches":[6,3,-1,2,6,8,3,-1],"swapped_pitches":[6,3,-1,6,1,8,3,-1],"shift_direction":1,"question_num":11,"has_decoy":false},{"rt":1092.0999999940395,"stimulus":"[A] option 1, [L] option 2, [G] neither","key_press":71,"name":"choice","trial_type":"html-keyboard-response","trial_index":32,"time_elapsed":46593,"internal_node_id":"0.0-32.0","subject":"S1C0826","sona":"38027","block":6,"time":"2021-09-17T17:21:21.232Z","response":"neither","certainty":"high","char":"G","transposition":-2,"order":["shifted","swapped"],"probe_pitches":[3,6,8,4,6,9,6,9],"shifted_pitches":[3,6,8,4,7,9,6,9],"swapped_pitches":[3,6,8,6,4,9,6,9],"shift_direction":1,"question_num":21,"has_decoy":false},{"rt":1286.7999999821186,"stimulus":"[A] option 1, [L] option 2, [G] neither","key_press":76,"name":"choice","trial_type":"html-keyboard-response","trial_index":43,"time_elapsed":62319,"internal_node_id":"0.0-43.0","subject":"S1C0826","sona":"38027","block":6,"time":"2021-09-17T17:21:21.232Z","response":"2nd","certainty":"high","char":"L","transposition":-1,"order":["swapped","shifted"],"probe_pitches":[1,-1,1,4,8,6,8,11],"shifted_pitches":[1,-1,1,4,9,6,8,11],"swapped_pitches":[1,-1,1,8,4,6,8,11],"shift_direction":1,"question_num":31,"has_decoy":false},{"rt":1810.4000000059605,"stimulus":"[A] option 1, [L] option 2, [G] neither","key_press":71,"name":"choice","trial_type":"html-keyboard-response","trial_index":54,"time_elapsed":78527,"internal_node_id":"0.0-54.0","subject":"S1C0826","sona":"38027","block":6,"time":"2021-09-17T17:21:21.232Z","response":"neither","certainty":"high","char":"G","transposition":-3,"order":["swapped","shifted"],"probe_pitches":[4,1,4,9,6,11,6,1],"shifted_pitches":[4,1,4,9,5,11,6,1],"swapped_pitches":[4,1,4,6,9,11,6,1],"shift_direction":-1,"question_num":41,"has_decoy":false},{"rt":1493.199999988079,"stimulus":"[A] option 1, [L] option 2, [G] neither","key_press":65,"name":"choice","trial_type":"html-keyboard-response","trial_index":65,"time_elapsed":94258,"internal_node_id":"0.0-65.0","subject":"S1C0826","sona":"38027","block":6,"time":"2021-09-17T17:21:21.232Z","response":"1st","certainty":"high","char":"A","transposition":-1,"order":["swapped","shifted"],"probe_pitches":[-1,1,4,1,8,4,6,-1],"shifted_pitches":[-1,1,4,0,8,4,6,-1],"swapped_pitches":[-1,1,4,8,1,4,6,-1],"shift_direction":-1,"question_num":51,"has_decoy":false},{"rt":1445.3999999761581,"stimulus":"[A] option 1, [L] option 2, [G] neither","key_press":76,"name":"choice","trial_type":"html-keyboard-response","trial_index":76,"time_elapsed":110802,"internal_node_id":"0.0-76.0","subject":"S1C0826","sona":"38027","block":6,"time":"2021-09-17T17:21:21.232Z","response":"2nd","certainty":"high","char":"L","transposition":-3,"order":["swapped","shifted"],"probe_pitches":[4,2,6,0,4,7,0,4],"shifted_pitches":[4,2,6,1,4,7,0,4],"swapped_pitches":[4,2,6,4,0,7,0,4],"shift_direction":1,"question_num":61,"has_decoy":false},{"rt":1186.7999999821186,"stimulus":"[A] option 1, [L] option 2, [G] neither","key_press":71,"name":"choice","trial_type":"html-keyboard-response","trial_index":87,"time_elapsed":126842,"internal_node_id":"0.0-87.0","subject":"S1C0826","sona":"38027","block":6,"time":"2021-09-17T17:21:21.232Z","response":"neither","certainty":"high","char":"G","transposition":2,"order":["shifted","swapped"],"probe_pitches":[9,10,7,9,5,0,4,9],"shifted_pitches":[9,10,7,8,5,0,4,9],"swapped_pitches":[9,10,7,5,9,0,4,9],"shift_direction":-1,"question_num":71,"has_decoy":false},{"rt":987.2000000178814,"stimulus":"[A] option 1, [L] option 2, [G] neither","key_press":71,"name":"choice","trial_type":"html-keyboard-response","trial_index":98,"time_elapsed":144136,"internal_node_id":"0.0-98.0","subject":"S1C0826","sona":"38027","block":6,"time":"2021-09-17T17:21:21.232Z","response":"neither","certainty":"high","char":"G","transposition":-3,"order":["shifted","swapped"],"probe_pitches":[-1,2,9,2,6,4,-1,4],"shifted_pitches":[-1,2,9,1,6,4,-1,4],"swapped_pitches":[-1,2,9,6,2,4,-1,4],"shift_direction":-1,"question_num":81,"has_decoy":false},{"rt":361.59999999403954,"stimulus":"[A] option 1, [L] option 2, [G] neither","key_press":76,"name":"choice","trial_type":"html-keyboard-response","trial_index":109,"time_elapsed":159137,"internal_node_id":"0.0-109.0","subject":"S1C0826","sona":"38027","block":6,"time":"2021-09-17T17:21:21.232Z","response":"2nd","certainty":"high","char":"L","transposition":-2,"order":["shifted","swapped"],"probe_pitches":[3,8,3,6,-1,8,1,-1],"shifted_pitches":[3,8,3,6,0,8,1,-1],"swapped_pitches":[3,8,3,-1,6,8,1,-1],"shift_direction":1,"question_num":91,"has_decoy":false},{"rt":2509.4000000059605,"stimulus":"[A] option 1, [L] option 2, [G] neither","key_press":71,"name":"choice","trial_type":"html-keyboard-response","trial_index":120,"time_elapsed":176001,"internal_node_id":"0.0-120.0","subject":"S1C0826","sona":"38027","block":6,"time":"2021-09-17T17:21:21.232Z","response":"neither","certainty":"high","char":"G","transposition":3,"order":["shifted","swapped"],"probe_pitches":[11,7,4,2,11,9,4,7],"shifted_pitches":[11,7,4,2,12,9,4,7],"swapped_pitches":[11,7,4,11,2,9,4,7],"shift_direction":1,"question_num":101,"has_decoy":false},{"rt":1610.5999999940395,"stimulus":"[A] option 1, [L] option 2, [G] neither","key_press":65,"name":"choice","trial_type":"html-keyboard-response","trial_index":131,"time_elapsed":193895,"internal_node_id":"0.0-131.0","subject":"S1C0826","sona":"38027","block":6,"time":"2021-09-17T17:21:21.232Z","response":"1st","certainty":"high","char":"A","transposition":1,"order":["swapped","shifted"],"probe_pitches":[11,10,4,3,10,6,-1,1],"shifted_pitches":[11,10,4,2,10,6,-1,1],"swapped_pitches":[11,10,4,10,3,6,-1,1],"shift_direction":-1,"question_num":111,"has_decoy":false},{"rt":1184.7000000178814,"stimulus":"[A] option 1, [L] option 2, [G] neither","key_press":76,"name":"choice","trial_type":"html-keyboard-response","trial_index":142,"time_elapsed":209303,"internal_node_id":"0.0-142.0","subject":"S1C0826","sona":"38027","block":6,"time":"2021-09-17T17:21:21.232Z","response":"2nd","certainty":"high","char":"L","transposition":2,"order":["shifted","swapped"],"probe_pitches":[6,2,4,6,11,9,-1,9],"shifted_pitches":[6,2,4,5,11,9,-1,9],"swapped_pitches":[6,2,4,11,6,9,-1,9],"shift_direction":-1,"question_num":121,"has_decoy":false},{"rt":261.7000000178814,"stimulus":"[A] option 1, [L] option 2, [G] neither","key_press":76,"name":"choice","trial_type":"html-keyboard-response","trial_index":153,"time_elapsed":226515,"internal_node_id":"0.0-153.0","subject":"S1C0826","sona":"38027","block":6,"time":"2021-09-17T17:21:21.232Z","response":"2nd","certainty":"high","char":"L","transposition":-2,"order":["swapped","shifted"],"probe_pitches":[7,4,-1,7,11,9,2,9],"shifted_pitches":[7,4,-1,7,10,9,2,9],"swapped_pitches":[7,4,-1,11,7,9,2,9],"shift_direction":-1,"question_num":131,"has_decoy":false},{"rt":568.9000000059605,"stimulus":"[A] option 1, [L] option 2, [G] neither","key_press":65,"name":"choice","trial_type":"html-keyboard-response","trial_index":164,"time_elapsed":241393,"internal_node_id":"0.0-164.0","subject":"S1C0826","sona":"38027","block":6,"time":"2021-09-17T17:21:21.232Z","response":"1st","certainty":"high","char":"A","transposition":-2,"order":["shifted","swapped"],"probe_pitches":[6,0,3,10,8,5,11,2],"shifted_pitches":[6,0,3,10,9,5,11,2],"swapped_pitches":[6,0,3,8,10,5,11,2],"shift_direction":1,"question_num":141,"has_decoy":false},{"rt":159.30000001192093,"stimulus":"[A] option 1, [L] option 2, [G] neither","key_press":76,"name":"choice","trial_type":"html-keyboard-response","trial_index":175,"time_elapsed":255992,"internal_node_id":"0.0-175.0","subject":"S1C0826","sona":"38027","block":6,"time":"2021-09-17T17:21:21.232Z","response":"2nd","certainty":"high","char":"L","transposition":0,"order":["shifted","swapped"],"probe_pitches":[3,5,-1,1,3,0,6,5],"shifted_pitches":[3,5,-1,1,4,0,6,5],"swapped_pitches":[3,5,-1,3,1,0,6,5],"shift_direction":1,"question_num":151,"has_decoy":false},{"rt":639.0999999940395,"stimulus":"[A] option 1, [L] option 2, [G] neither","key_press":76,"name":"choice","trial_type":"html-keyboard-response","trial_index":186,"time_elapsed":271005,"internal_node_id":"0.0-186.0","subject":"S1C0826","sona":"38027","block":6,"time":"2021-09-17T17:21:21.232Z","response":"2nd","certainty":"high","char":"L","transposition":-1,"order":["swapped","shifted"],"probe_pitches":[4,3,8,6,-1,2,9,4],"shifted_pitches":[4,3,8,6,-2,2,9,4],"swapped_pitches":[4,3,8,-1,6,2,9,4],"shift_direction":-1,"question_num":161,"has_decoy":false},{"rt":1566.5,"stimulus":"[A] option 1, [L] option 2, [G] neither","key_press":71,"name":"choice","trial_type":"html-keyboard-response","trial_index":197,"time_elapsed":286940,"internal_node_id":"0.0-197.0","subject":"S1C0826","sona":"38027","block":6,"time":"2021-09-17T17:21:21.232Z","response":"neither","certainty":"high","char":"G","transposition":3,"order":["shifted","swapped"],"probe_pitches":[10,11,10,4,7,8,1,9],"shifted_pitches":[10,11,10,4,6,8,1,9],"swapped_pitches":[10,11,10,7,4,8,1,9],"shift_direction":-1,"question_num":171,"has_decoy":false},{"rt":1801.6000000238419,"stimulus":"[A] option 1, [L] option 2, [G] neither","key_press":71,"name":"choice","trial_type":"html-keyboard-response","trial_index":208,"time_elapsed":303112,"internal_node_id":"0.0-208.0","subject":"S1C0826","sona":"38027","block":6,"time":"2021-09-17T17:21:21.232Z","response":"neither","certainty":"high","char":"G","transposition":-1,"order":["swapped","shifted"],"probe_pitches":[5,-1,1,2,8,9,7,4],"shifted_pitches":[5,-1,1,3,8,9,7,4],"swapped_pitches":[5,-1,1,8,2,9,7,4],"shift_direction":1,"question_num":181,"has_decoy":false},{"rt":818.7000000178814,"stimulus":"[A] option 1, [L] option 2, [G] neither","key_press":76,"name":"choice","trial_type":"html-keyboard-response","trial_index":219,"time_elapsed":318522,"internal_node_id":"0.0-219.0","subject":"S1C0826","sona":"38027","block":6,"time":"2021-09-17T17:21:21.232Z","response":"2nd","certainty":"high","char":"L","transposition":0,"order":["swapped","shifted"],"probe_pitches":[-1,1,4,9,6,1,11,1],"shifted_pitches":[-1,1,4,10,6,1,11,1],"swapped_pitches":[-1,1,4,6,9,1,11,1],"shift_direction":1,"question_num":191,"has_decoy":false}]