[{"rt":699.8000000119209,"stimulus":"[A] option 1, [L] option 2, [G] neither","key_press":76,"name":"choice","trial_type":"html-keyboard-response","trial_index":10,"time_elapsed":19654,"internal_node_id":"0.0-10.0","subject":"S1C0826","sona":"38027","block":2,"time":"2021-09-17T16:59:22.992Z","response":"2nd","certainty":"high","char":"L","transposition":-2,"order":["swapped","shifted"],"probe_pitches":[4,5,8,7,4,2,11,8],"shifted_pitches":[4,5,8,6,4,2,11,8],"swapped_pitches":[4,5,8,4,7,2,11,8],"shift_direction":-1,"question_num":1,"has_decoy":false},{"rt":2025.300000011921,"stimulus":"[A] option 1, [L] option 2, [G] neither","key_press":76,"name":"choice","trial_type":"html-keyboard-response","trial_index":21,"time_elapsed":36883,"internal_node_id":"0.0-21.0","subject":"S1C0826","sona":"38027","block":2,"time":"2021-09-17T16:59:22.992Z","response":"2nd","certainty":"high","char":"L","transposition":-3,"order":["swapped","shifted"],"probe_pitches":[1,-1,4,6,11,8,1,-1],"shifted_pitches":[1,-1,4,7,11,8,1,-1],"swapped_pitches":[1,-1,4,11,6,8,1,-1],"shift_direction":1,"question_num":11,"has_decoy":false},{"rt":574.2999999821186,"stimulus":"[A] option 1, [L] option 2, [G] neither","key_press":71,"name":"choice","trial_type":"html-keyboard-response","trial_index":32,"time_elapsed":52867,"internal_node_id":"0.0-32.0","subject":"S1C0826","sona":"38027","block":2,"time":"2021-09-17T16:59:22.992Z","response":"neither","certainty":"high","char":"G","transposition":-3,"order":["shifted","swapped"],"probe_pitches":[11,10,9,1,0,10,7,-1],"shifted_pitches":[11,10,9,2,0,10,7,-1],"swapped_pitches":[11,10,9,0,1,10,7,-1],"shift_direction":1,"question_num":21,"has_decoy":false},{"rt":53.79999998211861,"stimulus":"[A] option 1, [L] option 2, [G] neither","key_press":65,"name":"choice","trial_type":"html-keyboard-response","trial_index":43,"time_elapsed":67354,"internal_node_id":"0.0-43.0","subject":"S1C0826","sona":"38027","block":2,"time":"2021-09-17T16:59:22.992Z","response":"1st","certainty":"high","char":"A","transposition":3,"order":["shifted","swapped"],"probe_pitches":[10,5,1,5,11,3,1,9],"shifted_pitches":[10,5,1,4,11,3,1,9],"swapped_pitches":[10,5,1,11,5,3,1,9],"shift_direction":-1,"question_num":31,"has_decoy":false},{"rt":374.90000000596046,"stimulus":"[A] option 1, [L] option 2, [G] neither","key_press":76,"name":"choice","trial_type":"html-keyboard-response","trial_index":54,"time_elapsed":82342,"internal_node_id":"0.0-54.0","subject":"S1C0826","sona":"38027","block":2,"time":"2021-09-17T16:59:22.992Z","response":"2nd","certainty":"high","char":"L","transposition":-1,"order":["swapped","shifted"],"probe_pitches":[3,6,11,3,-1,1,6,8],"shifted_pitches":[3,6,11,3,0,1,6,8],"swapped_pitches":[3,6,11,-1,3,1,6,8],"shift_direction":1,"question_num":41,"has_decoy":false},{"rt":696.6999999880791,"stimulus":"[A] option 1, [L] option 2, [G] neither","key_press":76,"name":"choice","trial_type":"html-keyboard-response","trial_index":65,"time_elapsed":97417,"internal_node_id":"0.0-65.0","subject":"S1C0826","sona":"38027","block":2,"time":"2021-09-17T16:59:22.992Z","response":"2nd","certainty":"high","char":"L","transposition":1,"order":["shifted","swapped"],"probe_pitches":[9,7,2,4,9,-1,9,11],"shifted_pitches":[9,7,2,5,9,-1,9,11],"swapped_pitches":[9,7,2,9,4,-1,9,11],"shift_direction":1,"question_num":51,"has_decoy":false},{"rt":1269.0999999940395,"stimulus":"[A] option 1, [L] option 2, [G] neither","key_press":76,"name":"choice","trial_type":"html-keyboard-response","trial_index":76,"time_elapsed":113241,"internal_node_id":"0.0-76.0","subject":"S1C0826","sona":"38027","block":2,"time":"2021-09-17T16:59:22.992Z","response":"2nd","certainty":"high","char":"L","transposition":-1,"order":["swapped","shifted"],"probe_pitches":[5,11,6,4,2,10,6,2],"shifted_pitches":[5,11,6,4,3,10,6,2],"swapped_pitches":[5,11,6,2,4,10,6,2],"shift_direction":1,"question_num":61,"has_decoy":false},{"rt":557.3000000119209,"stimulus":"[A] option 1, [L] option 2, [G] neither","key_press":76,"name":"choice","trial_type":"html-keyboard-response","trial_index":87,"time_elapsed":128887,"internal_node_id":"0.0-87.0","subject":"S1C0826","sona":"38027","block":2,"time":"2021-09-17T16:59:22.992Z","response":"2nd","certainty":"high","char":"L","transposition":-2,"order":["shifted","swapped"],"probe_pitches":[4,-1,6,11,4,9,6,2],"shifted_pitches":[4,-1,6,10,4,9,6,2],"swapped_pitches":[4,-1,6,4,11,9,6,2],"shift_direction":-1,"question_num":71,"has_decoy":false},{"rt":847.4000000059605,"stimulus":"[A] option 1, [L] option 2, [G] neither","key_press":71,"name":"choice","trial_type":"html-keyboard-response","trial_index":98,"time_elapsed":144873,"internal_node_id":"0.0-98.0","subject":"S1C0826","sona":"38027","block":2,"time":"2021-09-17T16:59:22.992Z","response":"neither","certainty":"high","char":"G","transposition":-2,"order":["shifted","swapped"],"probe_pitches":[5,10,6,4,8,10,2,3],"shifted_pitches":[5,10,6,4,9,10,2,3],"swapped_pitches":[5,10,6,8,4,10,2,3],"shift_direction":1,"question_num":81,"has_decoy":false},{"rt":568.2999999821186,"stimulus":"[A] option 1, [L] option 2, [G] neither","key_press":76,"name":"choice","trial_type":"html-keyboard-response","trial_index":109,"time_elapsed":160225,"internal_node_id":"0.0-109.0","subject":"S1C0826","sona":"38027","block":2,"time":"2021-09-17T16:59:22.992Z","response":"2nd","certainty":"high","char":"L","transposition":-2,"order":["shifted","swapped"],"probe_pitches":[1,4,6,4,-1,8,6,1],"shifted_pitches":[1,4,6,4,-2,8,6,1],"swapped_pitches":[1,4,6,-1,4,8,6,1],"shift_direction":-1,"question_num":91,"has_decoy":false},{"rt":435,"stimulus":"[A] option 1, [L] option 2, [G] neither","key_press":65,"name":"choice","trial_type":"html-keyboard-response","trial_index":120,"time_elapsed":175100,"internal_node_id":"0.0-120.0","subject":"S1C0826","sona":"38027","block":2,"time":"2021-09-17T16:59:22.992Z","response":"1st","certainty":"high","char":"A","transposition":2,"order":["swapped","shifted"],"probe_pitches":[-1,2,6,2,9,6,4,6],"shifted_pitches":[-1,2,6,2,10,6,4,6],"swapped_pitches":[-1,2,6,9,2,6,4,6],"shift_direction":1,"question_num":101,"has_decoy":false},{"rt":446.5,"stimulus":"[A] option 1, [L] option 2, [G] neither","key_press":76,"name":"choice","trial_type":"html-keyboard-response","trial_index":131,"time_elapsed":190130,"internal_node_id":"0.0-131.0","subject":"S1C0826","sona":"38027","block":2,"time":"2021-09-17T16:59:22.992Z","response":"2nd","certainty":"high","char":"L","transposition":-3,"order":["swapped","shifted"],"probe_pitches":[11,6,4,6,8,5,8,2],"shifted_pitches":[11,6,4,6,7,5,8,2],"swapped_pitches":[11,6,4,8,6,5,8,2],"shift_direction":-1,"question_num":111,"has_decoy":false},{"rt":1461.5999999940395,"stimulus":"[A] option 1, [L] option 2, [G] neither","key_press":71,"name":"choice","trial_type":"html-keyboard-response","trial_index":142,"time_elapsed":206393,"internal_node_id":"0.0-142.0","subject":"S1C0826","sona":"38027","block":2,"time":"2021-09-17T16:59:22.992Z","response":"neither","certainty":"high","char":"G","transposition":-1,"order":["shifted","swapped"],"probe_pitches":[-1,1,8,6,-1,3,-1,6],"shifted_pitches":[-1,1,8,5,-1,3,-1,6],"swapped_pitches":[-1,1,8,-1,6,3,-1,6],"shift_direction":-1,"question_num":121,"has_decoy":false},{"rt":402.40000000596046,"stimulus":"[A] option 1, [L] option 2, [G] neither","key_press":76,"name":"choice","trial_type":"html-keyboard-response","trial_index":153,"time_elapsed":221894,"internal_node_id":"0.0-153.0","subject":"S1C0826","sona":"38027","block":2,"time":"2021-09-17T16:59:22.992Z","response":"2nd","certainty":"high","char":"L","transposition":2,"order":["shifted","swapped"],"probe_pitches":[7,9,7,8,4,-1,3,2],"shifted_pitches":[7,9,7,8,5,-1,3,2],"swapped_pitches":[7,9,7,4,8,-1,3,2],"shift_direction":1,"question_num":131,"has_decoy":false},{"rt":1336.4000000059605,"stimulus":"[A] option 1, [L] option 2, [G] neither","key_press":71,"name":"choice","trial_type":"html-keyboard-response","trial_index":164,"time_elapsed":237580,"internal_node_id":"0.0-164.0","subject":"S1C0826","sona":"38027","block":2,"time":"2021-09-17T16:59:22.992Z","response":"neither","certainty":"high","char":"G","transposition":0,"order":["swapped","shifted"],"probe_pitches":[1,4,11,9,6,1,4,1],"shifted_pitches":[1,4,11,9,5,1,4,1],"swapped_pitches":[1,4,11,6,9,1,4,1],"shift_direction":-1,"question_num":141,"has_decoy":false},{"rt":357.30000001192093,"stimulus":"[A] option 1, [L] option 2, [G] neither","key_press":76,"name":"choice","trial_type":"html-keyboard-response","trial_index":175,"time_elapsed":253198,"internal_node_id":"0.0-175.0","subject":"S1C0826","sona":"38027","block":2,"time":"2021-09-17T16:59:22.992Z","response":"2nd","certainty":"high","char":"L","transposition":3,"order":["swapped","shifted"],"probe_pitches":[11,7,9,4,2,7,4,7],"shifted_pitches":[11,7,9,4,1,7,4,7],"swapped_pitches":[11,7,9,2,4,7,4,7],"shift_direction":-1,"question_num":151,"has_decoy":false},{"rt":1509.5999999940395,"stimulus":"[A] option 1, [L] option 2, [G] neither","key_press":76,"name":"choice","trial_type":"html-keyboard-response","trial_index":186,"time_elapsed":269865,"internal_node_id":"0.0-186.0","subject":"S1C0826","sona":"38027","block":2,"time":"2021-09-17T16:59:22.992Z","response":"2nd","certainty":"high","char":"L","transposition":0,"order":["swapped","shifted"],"probe_pitches":[3,2,7,9,6,11,3,7],"shifted_pitches":[3,2,7,8,6,11,3,7],"swapped_pitches":[3,2,7,6,9,11,3,7],"shift_direction":-1,"question_num":161,"has_decoy":false},{"rt":1563.2999999821186,"stimulus":"[A] option 1, [L] option 2, [G] neither","key_press":71,"name":"choice","trial_type":"html-keyboard-response","trial_index":197,"time_elapsed":287267,"internal_node_id":"0.0-197.0","subject":"S1C0826","sona":"38027","block":2,"time":"2021-09-17T16:59:22.992Z","response":"neither","certainty":"high","char":"G","transposition":-3,"order":["shifted","swapped"],"probe_pitches":[-1,1,4,11,6,1,9,11],"shifted_pitches":[-1,1,4,12,6,1,9,11],"swapped_pitches":[-1,1,4,6,11,1,9,11],"shift_direction":1,"question_num":171,"has_decoy":false},{"rt":1957.0999999940395,"stimulus":"[A] option 1, [L] option 2, [G] neither","key_press":71,"name":"choice","trial_type":"html-keyboard-response","trial_index":208,"time_elapsed":303773,"internal_node_id":"0.0-208.0","subject":"S1C0826","sona":"38027","block":2,"time":"2021-09-17T16:59:22.992Z","response":"neither","certainty":"high","char":"G","transposition":1,"order":["shifted","swapped"],"probe_pitches":[9,5,6,9,8,4,3,0],"shifted_pitches":[9,5,6,10,8,4,3,0],"swapped_pitches":[9,5,6,8,9,4,3,0],"shift_direction":1,"question_num":181,"has_decoy":false},{"rt":4766.300000011921,"stimulus":"[A] option 1, [L] option 2, [G] neither","key_press":76,"name":"choice","trial_type":"html-keyboard-response","trial_index":219,"time_elapsed":323584,"internal_node_id":"0.0-219.0","subject":"S1C0826","sona":"38027","block":2,"time":"2021-09-17T16:59:22.992Z","response":"2nd","certainty":"high","char":"L","transposition":-1,"order":["swapped","shifted"],"probe_pitches":[6,7,6,5,2,4,6,0],"shifted_pitches":[6,7,6,5,1,4,6,0],"swapped_pitches":[6,7,6,2,5,4,6,0],"shift_direction":-1,"question_num":191,"has_decoy":false}]