[{"rt":892,"stimulus":"[A] option 1, [L] option 2, [G] neither","key_press":76,"name":"choice","trial_type":"html-keyboard-response","trial_index":10,"time_elapsed":38952,"internal_node_id":"0.0-10.0","subject":"S1C0826","sona":"38027","block":3,"time":"2021-09-17T17:05:17.398Z","response":"2nd","certainty":"high","char":"L","transposition":-2,"order":["swapped","shifted"],"probe_pitches":[7,3,6,12,9,5,13,3],"shifted_pitches":[7,3,6,11,9,5,13,3],"swapped_pitches":[7,3,6,9,12,5,13,3],"shift_direction":-1,"question_num":1,"has_decoy":false},{"rt":545.4000000059605,"stimulus":"[A] option 1, [L] option 2, [G] neither","key_press":76,"name":"choice","trial_type":"html-keyboard-response","trial_index":21,"time_elapsed":53918,"internal_node_id":"0.0-21.0","subject":"S1C0826","sona":"38027","block":3,"time":"2021-09-17T17:05:17.398Z","response":"2nd","certainty":"high","char":"L","transposition":2,"order":["swapped","shifted"],"probe_pitches":[5,10,5,1,3,5,8,3],"shifted_pitches":[5,10,5,1,4,5,8,3],"swapped_pitches":[5,10,5,3,1,5,8,3],"shift_direction":1,"question_num":11,"has_decoy":false},{"rt":1649.7999999821186,"stimulus":"[A] option 1, [L] option 2, [G] neither","key_press":76,"name":"choice","trial_type":"html-keyboard-response","trial_index":32,"time_elapsed":70168,"internal_node_id":"0.0-32.0","subject":"S1C0826","sona":"38027","block":3,"time":"2021-09-17T17:05:17.398Z","response":"2nd","certainty":"high","char":"L","transposition":3,"order":["swapped","shifted"],"probe_pitches":[3,5,8,0,3,8,-2,5],"shifted_pitches":[3,5,8,0,4,8,-2,5],"swapped_pitches":[3,5,8,3,0,8,-2,5],"shift_direction":1,"question_num":21,"has_decoy":false},{"rt":233.2000000178814,"stimulus":"[A] option 1, [L] option 2, [G] neither","key_press":65,"name":"choice","trial_type":"html-keyboard-response","trial_index":43,"time_elapsed":88553,"internal_node_id":"0.0-43.0","subject":"S1C0826","sona":"38027","block":3,"time":"2021-09-17T17:05:17.398Z","response":"1st","certainty":"high","char":"A","transposition":-1,"order":["shifted","swapped"],"probe_pitches":[8,5,3,10,8,1,5,3],"shifted_pitches":[8,5,3,9,8,1,5,3],"swapped_pitches":[8,5,3,8,10,1,5,3],"shift_direction":-1,"question_num":31,"has_decoy":false},{"rt":1190.4000000059605,"stimulus":"[A] option 1, [L] option 2, [G] neither","key_press":76,"name":"choice","trial_type":"html-keyboard-response","trial_index":54,"time_elapsed":103960,"internal_node_id":"0.0-54.0","subject":"S1C0826","sona":"38027","block":3,"time":"2021-09-17T17:05:17.398Z","response":"2nd","certainty":"high","char":"L","transposition":-1,"order":["shifted","swapped"],"probe_pitches":[7,3,2,6,11,12,2,6],"shifted_pitches":[7,3,2,6,10,12,2,6],"swapped_pitches":[7,3,2,11,6,12,2,6],"shift_direction":-1,"question_num":41,"has_decoy":false},{"rt":590.5,"stimulus":"[A] option 1, [L] option 2, [G] neither","key_press":65,"name":"choice","trial_type":"html-keyboard-response","trial_index":65,"time_elapsed":120565,"internal_node_id":"0.0-65.0","subject":"S1C0826","sona":"38027","block":3,"time":"2021-09-17T17:05:17.398Z","response":"1st","certainty":"high","char":"A","transposition":-3,"order":["swapped","shifted"],"probe_pitches":[-2,0,5,0,8,3,-2,10],"shifted_pitches":[-2,0,5,0,9,3,-2,10],"swapped_pitches":[-2,0,5,8,0,3,-2,10],"shift_direction":1,"question_num":51,"has_decoy":false},{"rt":1082.9000000059605,"stimulus":"[A] option 1, [L] option 2, [G] neither","key_press":76,"name":"choice","trial_type":"html-keyboard-response","trial_index":76,"time_elapsed":135889,"internal_node_id":"0.0-76.0","subject":"S1C0826","sona":"38027","block":3,"time":"2021-09-17T17:05:17.398Z","response":"2nd","certainty":"high","char":"L","transposition":-2,"order":["shifted","swapped"],"probe_pitches":[12,6,8,10,11,8,3,5],"shifted_pitches":[12,6,8,9,11,8,3,5],"swapped_pitches":[12,6,8,11,10,8,3,5],"shift_direction":-1,"question_num":61,"has_decoy":false},{"rt":1557.7999999821186,"stimulus":"[A] option 1, [L] option 2, [G] neither","key_press":71,"name":"choice","trial_type":"html-keyboard-response","trial_index":87,"time_elapsed":151809,"internal_node_id":"0.0-87.0","subject":"S1C0826","sona":"38027","block":3,"time":"2021-09-17T17:05:17.398Z","response":"neither","certainty":"high","char":"G","transposition":-3,"order":["shifted","swapped"],"probe_pitches":[10,8,10,3,6,10,1,6],"shifted_pitches":[10,8,10,3,7,10,1,6],"swapped_pitches":[10,8,10,6,3,10,1,6],"shift_direction":1,"question_num":71,"has_decoy":false},{"rt":5514.5,"stimulus":"[A] option 1, [L] option 2, [G] neither","key_press":71,"name":"choice","trial_type":"html-keyboard-response","trial_index":98,"time_elapsed":171771,"internal_node_id":"0.0-98.0","subject":"S1C0826","sona":"38027","block":3,"time":"2021-09-17T17:05:17.398Z","response":"neither","certainty":"high","char":"G","transposition":1,"order":["shifted","swapped"],"probe_pitches":[0,5,10,2,5,0,7,5],"shifted_pitches":[0,5,10,2,4,0,7,5],"swapped_pitches":[0,5,10,5,2,0,7,5],"shift_direction":-1,"question_num":81,"has_decoy":false},{"rt":1065.9000000059605,"stimulus":"[A] option 1, [L] option 2, [G] neither","key_press":76,"name":"choice","trial_type":"html-keyboard-response","trial_index":109,"time_elapsed":187866,"internal_node_id":"0.0-109.0","subject":"S1C0826","sona":"38027","block":3,"time":"2021-09-17T17:05:17.398Z","response":"2nd","certainty":"high","char":"L","transposition":0,"order":["swapped","shifted"],"probe_pitches":[2,5,10,11,8,5,13,5],"shifted_pitches":[2,5,10,12,8,5,13,5],"swapped_pitches":[2,5,10,8,11,5,13,5],"shift_direction":1,"question_num":91,"has_decoy":false},{"rt":1097.7000000178814,"stimulus":"[A] option 1, [L] option 2, [G] neither","key_press":71,"name":"choice","trial_type":"html-keyboard-response","trial_index":120,"time_elapsed":205970,"internal_node_id":"0.0-120.0","subject":"S1C0826","sona":"38027","block":3,"time":"2021-09-17T17:05:17.398Z","response":"neither","certainty":"high","char":"G","transposition":2,"order":["swapped","shifted"],"probe_pitches":[11,9,2,5,3,13,7,2],"shifted_pitches":[11,9,2,5,4,13,7,2],"swapped_pitches":[11,9,2,3,5,13,7,2],"shift_direction":1,"question_num":101,"has_decoy":false},{"rt":1420.6000000238419,"stimulus":"[A] option 1, [L] option 2, [G] neither","key_press":65,"name":"choice","trial_type":"html-keyboard-response","trial_index":131,"time_elapsed":221723,"internal_node_id":"0.0-131.0","subject":"S1C0826","sona":"38027","block":3,"time":"2021-09-17T17:05:17.398Z","response":"1st","certainty":"high","char":"A","transposition":-2,"order":["swapped","shifted"],"probe_pitches":[3,5,0,-2,7,0,5,0],"shifted_pitches":[3,5,0,-3,7,0,5,0],"swapped_pitches":[3,5,0,7,-2,0,5,0],"shift_direction":-1,"question_num":111,"has_decoy":false},{"rt":1355.0999999940395,"stimulus":"[A] option 1, [L] option 2, [G] neither","key_press":65,"name":"choice","trial_type":"html-keyboard-response","trial_index":142,"time_elapsed":238721,"internal_node_id":"0.0-142.0","subject":"S1C0826","sona":"38027","block":3,"time":"2021-09-17T17:05:17.398Z","response":"1st","certainty":"high","char":"A","transposition":3,"order":["swapped","shifted"],"probe_pitches":[4,6,13,6,12,4,1,6],"shifted_pitches":[4,6,13,5,12,4,1,6],"swapped_pitches":[4,6,13,12,6,4,1,6],"shift_direction":-1,"question_num":121,"has_decoy":false},{"rt":311.59999999403954,"stimulus":"[A] option 1, [L] option 2, [G] neither","key_press":76,"name":"choice","trial_type":"html-keyboard-response","trial_index":153,"time_elapsed":253438,"internal_node_id":"0.0-153.0","subject":"S1C0826","sona":"38027","block":3,"time":"2021-09-17T17:05:17.398Z","response":"2nd","certainty":"high","char":"L","transposition":1,"order":["swapped","shifted"],"probe_pitches":[7,5,4,5,1,10,12,10],"shifted_pitches":[7,5,4,6,1,10,12,10],"swapped_pitches":[7,5,4,1,5,10,12,10],"shift_direction":1,"question_num":131,"has_decoy":false},{"rt":440,"stimulus":"[A] option 1, [L] option 2, [G] neither","key_press":71,"name":"choice","trial_type":"html-keyboard-response","trial_index":164,"time_elapsed":268212,"internal_node_id":"0.0-164.0","subject":"S1C0826","sona":"38027","block":3,"time":"2021-09-17T17:05:17.398Z","response":"neither","certainty":"high","char":"G","transposition":0,"order":["swapped","shifted"],"probe_pitches":[1,6,1,3,6,8,10,6],"shifted_pitches":[1,6,1,4,6,8,10,6],"swapped_pitches":[1,6,1,6,3,8,10,6],"shift_direction":1,"question_num":141,"has_decoy":false},{"rt":2147.399999976158,"stimulus":"[A] option 1, [L] option 2, [G] neither","key_press":76,"name":"choice","trial_type":"html-keyboard-response","trial_index":175,"time_elapsed":285423,"internal_node_id":"0.0-175.0","subject":"S1C0826","sona":"38027","block":3,"time":"2021-09-17T17:05:17.398Z","response":"2nd","certainty":"high","char":"L","transposition":-3,"order":["shifted","swapped"],"probe_pitches":[10,12,11,3,6,5,12,6],"shifted_pitches":[10,12,11,3,7,5,12,6],"swapped_pitches":[10,12,11,6,3,5,12,6],"shift_direction":1,"question_num":151,"has_decoy":false},{"rt":2739,"stimulus":"[A] option 1, [L] option 2, [G] neither","key_press":71,"name":"choice","trial_type":"html-keyboard-response","trial_index":186,"time_elapsed":302884,"internal_node_id":"0.0-186.0","subject":"S1C0826","sona":"38027","block":3,"time":"2021-09-17T17:05:17.398Z","response":"neither","certainty":"high","char":"G","transposition":-2,"order":["shifted","swapped"],"probe_pitches":[5,0,7,0,3,10,3,10],"shifted_pitches":[5,0,7,-1,3,10,3,10],"swapped_pitches":[5,0,7,3,0,10,3,10],"shift_direction":-1,"question_num":161,"has_decoy":false},{"rt":298.5,"stimulus":"[A] option 1, [L] option 2, [G] neither","key_press":76,"name":"choice","trial_type":"html-keyboard-response","trial_index":197,"time_elapsed":317883,"internal_node_id":"0.0-197.0","subject":"S1C0826","sona":"38027","block":3,"time":"2021-09-17T17:05:17.398Z","response":"2nd","certainty":"high","char":"L","transposition":-3,"order":["shifted","swapped"],"probe_pitches":[4,1,2,6,7,11,6,10],"shifted_pitches":[4,1,2,6,8,11,6,10],"swapped_pitches":[4,1,2,7,6,11,6,10],"shift_direction":1,"question_num":171,"has_decoy":false},{"rt":1221,"stimulus":"[A] option 1, [L] option 2, [G] neither","key_press":71,"name":"choice","trial_type":"html-keyboard-response","trial_index":208,"time_elapsed":333681,"internal_node_id":"0.0-208.0","subject":"S1C0826","sona":"38027","block":3,"time":"2021-09-17T17:05:17.398Z","response":"neither","certainty":"high","char":"G","transposition":-1,"order":["shifted","swapped"],"probe_pitches":[10,7,10,2,-2,5,2,0],"shifted_pitches":[10,7,10,1,-2,5,2,0],"swapped_pitches":[10,7,10,-2,2,5,2,0],"shift_direction":-1,"question_num":181,"has_decoy":false},{"rt":159.30000001192093,"stimulus":"[A] option 1, [L] option 2, [G] neither","key_press":76,"name":"choice","trial_type":"html-keyboard-response","trial_index":219,"time_elapsed":348757,"internal_node_id":"0.0-219.0","subject":"S1C0826","sona":"38027","block":3,"time":"2021-09-17T17:05:17.398Z","response":"2nd","certainty":"high","char":"L","transposition":-1,"order":["shifted","swapped"],"probe_pitches":[1,6,9,6,4,1,10,13],"shifted_pitches":[1,6,9,6,3,1,10,13],"swapped_pitches":[1,6,9,4,6,1,10,13],"shift_direction":-1,"question_num":191,"has_decoy":false}]