[{"rt":9986.5,"stimulus":"[A] option 1, [L] option 2, [G] neither","key_press":65,"name":"choice","trial_type":"html-keyboard-response","trial_index":15,"time_elapsed":88795,"internal_node_id":"0.0-15.0","response":"1st","certainty":"high","char":"A","transposition":1,"order":["swapped","shifted"],"probe_pitches":[-1,4,6,4,9,-1,1,-1],"shifted_pitches":[-1,4,6,4,8,-1,1,-1],"swapped_pitches":[-1,4,6,9,4,-1,1,-1],"shift_direction":-1,"question_num":1,"has_decoy":false,"subject":"S1C0826","sona":"38027","block":1,"time":"2021-09-17T16:53:56.621Z"},{"rt":175.59999999403954,"stimulus":"[A] option 1, [L] option 2, [G] neither","key_press":76,"name":"choice","trial_type":"html-keyboard-response","trial_index":26,"time_elapsed":104499,"internal_node_id":"0.0-26.0","response":"2nd","certainty":"high","char":"L","transposition":-1,"order":["swapped","shifted"],"probe_pitches":[11,9,7,9,4,11,7,2],"shifted_pitches":[11,9,7,10,4,11,7,2],"swapped_pitches":[11,9,7,4,9,11,7,2],"shift_direction":1,"question_num":11,"has_decoy":false,"subject":"S1C0826","sona":"38027","block":1,"time":"2021-09-17T16:53:56.621Z"},{"rt":1402,"stimulus":"[A] option 1, [L] option 2, [G] neither","key_press":71,"name":"choice","trial_type":"html-keyboard-response","trial_index":37,"time_elapsed":123655,"internal_node_id":"0.0-37.0","response":"neither","certainty":"high","char":"G","transposition":0,"order":["swapped","shifted"],"probe_pitches":[1,2,5,10,7,5,3,10],"shifted_pitches":[1,2,5,10,8,5,3,10],"swapped_pitches":[1,2,5,7,10,5,3,10],"shift_direction":1,"question_num":21,"has_decoy":false,"subject":"S1C0826","sona":"38027","block":1,"time":"2021-09-17T16:53:56.621Z"},{"rt":1420.9000000059605,"stimulus":"[A] option 1, [L] option 2, [G] neither","key_press":65,"name":"choice","trial_type":"html-keyboard-response","trial_index":48,"time_elapsed":141290,"internal_node_id":"0.0-48.0","response":"1st","certainty":"high","char":"A","transposition":2,"order":["shifted","swapped"],"probe_pitches":[6,5,8,10,3,4,8,11],"shifted_pitches":[6,5,8,9,3,4,8,11],"swapped_pitches":[6,5,8,3,10,4,8,11],"shift_direction":-1,"question_num":31,"has_decoy":false,"subject":"S1C0826","sona":"38027","block":1,"time":"2021-09-17T16:53:56.621Z"},{"rt":3092.0999999940395,"stimulus":"[A] option 1, [L] option 2, [G] neither","key_press":71,"name":"choice","trial_type":"html-keyboard-response","trial_index":59,"time_elapsed":159265,"internal_node_id":"0.0-59.0","response":"neither","certainty":"high","char":"G","transposition":-2,"order":["shifted","swapped"],"probe_pitches":[1,-1,6,1,9,-1,4,9],"shifted_pitches":[1,-1,6,1,8,-1,4,9],"swapped_pitches":[1,-1,6,9,1,-1,4,9],"shift_direction":-1,"question_num":41,"has_decoy":false,"subject":"S1C0826","sona":"38027","block":1,"time":"2021-09-17T16:53:56.621Z"},{"rt":351.19999998807907,"stimulus":"[A] option 1, [L] option 2, [G] neither","key_press":76,"name":"choice","trial_type":"html-keyboard-response","trial_index":70,"time_elapsed":174367,"internal_node_id":"0.0-70.0","response":"2nd","certainty":"high","char":"L","transposition":-3,"order":["swapped","shifted"],"probe_pitches":[9,11,7,4,2,9,2,-1],"shifted_pitches":[9,11,7,3,2,9,2,-1],"swapped_pitches":[9,11,7,2,4,9,2,-1],"shift_direction":-1,"question_num":51,"has_decoy":false,"subject":"S1C0826","sona":"38027","block":1,"time":"2021-09-17T16:53:56.621Z"},{"rt":1030.9000000059605,"stimulus":"[A] option 1, [L] option 2, [G] neither","key_press":76,"name":"choice","trial_type":"html-keyboard-response","trial_index":81,"time_elapsed":189769,"internal_node_id":"0.0-81.0","response":"2nd","certainty":"high","char":"L","transposition":-2,"order":["swapped","shifted"],"probe_pitches":[0,1,-1,4,7,9,0,2],"shifted_pitches":[0,1,-1,3,7,9,0,2],"swapped_pitches":[0,1,-1,7,4,9,0,2],"shift_direction":-1,"question_num":61,"has_decoy":false,"subject":"S1C0826","sona":"38027","block":1,"time":"2021-09-17T16:53:56.621Z"},{"rt":744.0999999940395,"stimulus":"[A] option 1, [L] option 2, [G] neither","key_press":71,"name":"choice","trial_type":"html-keyboard-response","trial_index":92,"time_elapsed":205365,"internal_node_id":"0.0-92.0","response":"neither","certainty":"high","char":"G","transposition":-1,"order":["swapped","shifted"],"probe_pitches":[9,11,10,4,5,8,0,11],"shifted_pitches":[9,11,10,4,6,8,0,11],"swapped_pitches":[9,11,10,5,4,8,0,11],"shift_direction":1,"question_num":71,"has_decoy":false,"subject":"S1C0826","sona":"38027","block":1,"time":"2021-09-17T16:53:56.621Z"},{"rt":1315.7999999821186,"stimulus":"[A] option 1, [L] option 2, [G] neither","key_press":76,"name":"choice","trial_type":"html-keyboard-response","trial_index":103,"time_elapsed":221040,"internal_node_id":"0.0-103.0","response":"2nd","certainty":"high","char":"L","transposition":1,"order":["shifted","swapped"],"probe_pitches":[11,8,9,4,-1,7,9,10],"shifted_pitches":[11,8,9,5,-1,7,9,10],"swapped_pitches":[11,8,9,-1,4,7,9,10],"shift_direction":1,"question_num":81,"has_decoy":false,"subject":"S1C0826","sona":"38027","block":1,"time":"2021-09-17T16:53:56.621Z"},{"rt":608.7999999821186,"stimulus":"[A] option 1, [L] option 2, [G] neither","key_press":71,"name":"choice","trial_type":"html-keyboard-response","trial_index":114,"time_elapsed":236771,"internal_node_id":"0.0-114.0","response":"neither","certainty":"high","char":"G","transposition":-2,"order":["shifted","swapped"],"probe_pitches":[-1,1,8,1,4,-1,6,1],"shifted_pitches":[-1,1,8,2,4,-1,6,1],"swapped_pitches":[-1,1,8,4,1,-1,6,1],"shift_direction":1,"question_num":91,"has_decoy":false,"subject":"S1C0826","sona":"38027","block":1,"time":"2021-09-17T16:53:56.621Z"},{"rt":517.0999999940395,"stimulus":"[A] option 1, [L] option 2, [G] neither","key_press":65,"name":"choice","trial_type":"html-keyboard-response","trial_index":125,"time_elapsed":251457,"internal_node_id":"0.0-125.0","response":"1st","certainty":"high","char":"A","transposition":-3,"order":["swapped","shifted"],"probe_pitches":[-1,2,-1,0,3,1,7,8],"shifted_pitches":[-1,2,-1,0,4,1,7,8],"swapped_pitches":[-1,2,-1,3,0,1,7,8],"shift_direction":1,"question_num":101,"has_decoy":false,"subject":"S1C0826","sona":"38027","block":1,"time":"2021-09-17T16:53:56.621Z"},{"rt":516.5,"stimulus":"[A] option 1, [L] option 2, [G] neither","key_press":76,"name":"choice","trial_type":"html-keyboard-response","trial_index":136,"time_elapsed":266486,"internal_node_id":"0.0-136.0","response":"2nd","certainty":"high","char":"L","transposition":3,"order":["swapped","shifted"],"probe_pitches":[0,1,8,3,-1,7,10,5],"shifted_pitches":[0,1,8,2,-1,7,10,5],"swapped_pitches":[0,1,8,-1,3,7,10,5],"shift_direction":-1,"question_num":111,"has_decoy":false,"subject":"S1C0826","sona":"38027","block":1,"time":"2021-09-17T16:53:56.621Z"},{"rt":433.90000000596046,"stimulus":"[A] option 1, [L] option 2, [G] neither","key_press":76,"name":"choice","trial_type":"html-keyboard-response","trial_index":147,"time_elapsed":281369,"internal_node_id":"0.0-147.0","response":"2nd","certainty":"high","char":"L","transposition":-1,"order":["shifted","swapped"],"probe_pitches":[2,-1,4,9,6,11,4,11],"shifted_pitches":[2,-1,4,9,5,11,4,11],"swapped_pitches":[2,-1,4,6,9,11,4,11],"shift_direction":-1,"question_num":121,"has_decoy":false,"subject":"S1C0826","sona":"38027","block":1,"time":"2021-09-17T16:53:56.621Z"},{"rt":458.7999999821186,"stimulus":"[A] option 1, [L] option 2, [G] neither","key_press":65,"name":"choice","trial_type":"html-keyboard-response","trial_index":158,"time_elapsed":296401,"internal_node_id":"0.0-158.0","response":"1st","certainty":"high","char":"A","transposition":-2,"order":["shifted","swapped"],"probe_pitches":[5,8,7,3,11,4,0,2],"shifted_pitches":[5,8,7,3,10,4,0,2],"swapped_pitches":[5,8,7,11,3,4,0,2],"shift_direction":-1,"question_num":131,"has_decoy":false,"subject":"S1C0826","sona":"38027","block":1,"time":"2021-09-17T16:53:56.621Z"},{"rt":456.09999999403954,"stimulus":"[A] option 1, [L] option 2, [G] neither","key_press":76,"name":"choice","trial_type":"html-keyboard-response","trial_index":169,"time_elapsed":311688,"internal_node_id":"0.0-169.0","response":"2nd","certainty":"high","char":"L","transposition":2,"order":["swapped","shifted"],"probe_pitches":[8,11,6,4,1,8,11,1],"shifted_pitches":[8,11,6,4,0,8,11,1],"swapped_pitches":[8,11,6,1,4,8,11,1],"shift_direction":-1,"question_num":141,"has_decoy":false,"subject":"S1C0826","sona":"38027","block":1,"time":"2021-09-17T16:53:56.621Z"},{"rt":634.4000000059605,"stimulus":"[A] option 1, [L] option 2, [G] neither","key_press":76,"name":"choice","trial_type":"html-keyboard-response","trial_index":180,"time_elapsed":326795,"internal_node_id":"0.0-180.0","response":"2nd","certainty":"high","char":"L","transposition":0,"order":["swapped","shifted"],"probe_pitches":[3,8,1,6,11,8,6,-1],"shifted_pitches":[3,8,1,7,11,8,6,-1],"swapped_pitches":[3,8,1,11,6,8,6,-1],"shift_direction":1,"question_num":151,"has_decoy":false,"subject":"S1C0826","sona":"38027","block":1,"time":"2021-09-17T16:53:56.621Z"},{"rt":373.09999999403954,"stimulus":"[A] option 1, [L] option 2, [G] neither","key_press":76,"name":"choice","trial_type":"html-keyboard-response","trial_index":191,"time_elapsed":341563,"internal_node_id":"0.0-191.0","response":"2nd","certainty":"high","char":"L","transposition":-3,"order":["shifted","swapped"],"probe_pitches":[10,5,8,5,2,4,-1,7],"shifted_pitches":[10,5,8,5,1,4,-1,7],"swapped_pitches":[10,5,8,2,5,4,-1,7],"shift_direction":-1,"question_num":161,"has_decoy":false,"subject":"S1C0826","sona":"38027","block":1,"time":"2021-09-17T16:53:56.621Z"},{"rt":316.80000001192093,"stimulus":"[A] option 1, [L] option 2, [G] neither","key_press":76,"name":"choice","trial_type":"html-keyboard-response","trial_index":202,"time_elapsed":356344,"internal_node_id":"0.0-202.0","response":"2nd","certainty":"high","char":"L","transposition":-1,"order":["shifted","swapped"],"probe_pitches":[9,11,10,6,9,5,2,0],"shifted_pitches":[9,11,10,7,9,5,2,0],"swapped_pitches":[9,11,10,9,6,5,2,0],"shift_direction":1,"question_num":171,"has_decoy":false,"subject":"S1C0826","sona":"38027","block":1,"time":"2021-09-17T16:53:56.621Z"},{"rt":144.40000000596046,"stimulus":"[A] option 1, [L] option 2, [G] neither","key_press":76,"name":"choice","trial_type":"html-keyboard-response","trial_index":213,"time_elapsed":370935,"internal_node_id":"0.0-213.0","response":"2nd","certainty":"high","char":"L","transposition":3,"order":["shifted","swapped"],"probe_pitches":[6,1,3,8,-1,6,1,6],"shifted_pitches":[6,1,3,8,0,6,1,6],"swapped_pitches":[6,1,3,-1,8,6,1,6],"shift_direction":1,"question_num":181,"has_decoy":false,"subject":"S1C0826","sona":"38027","block":1,"time":"2021-09-17T16:53:56.621Z"},{"rt":1069.7000000178814,"stimulus":"[A] option 1, [L] option 2, [G] neither","key_press":71,"name":"choice","trial_type":"html-keyboard-response","trial_index":224,"time_elapsed":387493,"internal_node_id":"0.0-224.0","response":"neither","certainty":"high","char":"G","transposition":-3,"order":["shifted","swapped"],"probe_pitches":[-1,2,6,11,9,2,4,9],"shifted_pitches":[-1,2,6,12,9,2,4,9],"swapped_pitches":[-1,2,6,9,11,2,4,9],"shift_direction":1,"question_num":191,"has_decoy":false,"subject":"S1C0826","sona":"38027","block":1,"time":"2021-09-17T16:53:56.621Z"}]