[{"rt":6043,"stimulus":"[A] option 1, [L] option 2, [G] neither","key_press":76,"name":"choice","trial_type":"html-keyboard-response","trial_index":15,"time_elapsed":85768,"internal_node_id":"0.0-15.0","response":"2nd","certainty":"high","char":"L","transposition":-2,"order":["swapped","shifted"],"probe_pitches":[11,7,2,9,4,-1,7,11,9,-1,11,4,11,7,9,-1],"shifted_pitches":[11,7,2,9,4,-1,7,11,10,-1,11,4,11,7,9,-1],"swapped_pitches":[11,7,2,9,4,-1,7,9,11,-1,11,4,11,7,9,-1],"shift_direction":1,"question_num":1,"has_decoy":false,"subject":"S1C1624","sona":"41787","block":1,"time":"2021-09-17T14:59:20.138Z"},{"rt":2372.2000000001863,"stimulus":"[A] option 1, [L] option 2, [G] neither","key_press":65,"name":"choice","trial_type":"html-keyboard-response","trial_index":26,"time_elapsed":114401,"internal_node_id":"0.0-26.0","response":"1st","certainty":"high","char":"A","transposition":0,"order":["swapped","shifted"],"probe_pitches":[9,8,1,6,7,9,-2,7,3,-1,-2,9,0,10,5,2],"shifted_pitches":[9,8,1,6,7,9,-2,7,4,-1,-2,9,0,10,5,2],"swapped_pitches":[9,8,1,6,7,9,-2,3,7,-1,-2,9,0,10,5,2],"shift_direction":1,"question_num":11,"has_decoy":false,"subject":"S1C1624","sona":"41787","block":1,"time":"2021-09-17T14:59:20.138Z"},{"rt":1999.7999999998137,"stimulus":"[A] option 1, [L] option 2, [G] neither","key_press":76,"name":"choice","trial_type":"html-keyboard-response","trial_index":37,"time_elapsed":142924,"internal_node_id":"0.0-37.0","response":"2nd","certainty":"high","char":"L","transposition":-2,"order":["shifted","swapped"],"probe_pitches":[4,0,6,0,9,3,6,8,9,2,5,-2,6,1,0,5],"shifted_pitches":[4,0,6,0,9,3,6,7,9,2,5,-2,6,1,0,5],"swapped_pitches":[4,0,6,0,9,3,6,9,8,2,5,-2,6,1,0,5],"shift_direction":-1,"question_num":21,"has_decoy":false,"subject":"S1C1624","sona":"41787","block":1,"time":"2021-09-17T14:59:20.138Z"},{"rt":2574.600000000093,"stimulus":"[A] option 1, [L] option 2, [G] neither","key_press":65,"name":"choice","trial_type":"html-keyboard-response","trial_index":48,"time_elapsed":169792,"internal_node_id":"0.0-48.0","response":"1st","certainty":"high","char":"A","transposition":-2,"order":["swapped","shifted"],"probe_pitches":[3,7,0,7,-1,5,6,7,3,2,4,-1,2,1,7,9],"shifted_pitches":[3,7,0,7,-1,5,6,8,3,2,4,-1,2,1,7,9],"swapped_pitches":[3,7,0,7,-1,5,6,3,7,2,4,-1,2,1,7,9],"shift_direction":1,"question_num":31,"has_decoy":false,"subject":"S1C1624","sona":"41787","block":1,"time":"2021-09-17T14:59:20.138Z"},{"rt":1768.7999999998137,"stimulus":"[A] option 1, [L] option 2, [G] neither","key_press":76,"name":"choice","trial_type":"html-keyboard-response","trial_index":59,"time_elapsed":196373,"internal_node_id":"0.0-59.0","response":"2nd","certainty":"high","char":"L","transposition":2,"order":["shifted","swapped"],"probe_pitches":[6,0,5,6,-2,1,8,1,-2,10,0,-1,8,5,9,5],"shifted_pitches":[6,0,5,6,-2,1,8,2,-2,10,0,-1,8,5,9,5],"swapped_pitches":[6,0,5,6,-2,1,8,-2,1,10,0,-1,8,5,9,5],"shift_direction":1,"question_num":41,"has_decoy":false,"subject":"S1C1624","sona":"41787","block":1,"time":"2021-09-17T14:59:20.138Z"},{"rt":1804.1000000000931,"stimulus":"[A] option 1, [L] option 2, [G] neither","key_press":76,"name":"choice","trial_type":"html-keyboard-response","trial_index":70,"time_elapsed":222304,"internal_node_id":"0.0-70.0","response":"2nd","certainty":"high","char":"L","transposition":3,"order":["swapped","shifted"],"probe_pitches":[4,3,7,6,1,2,-2,0,10,5,-1,5,8,5,-1,10],"shifted_pitches":[4,3,7,6,1,2,-2,0,9,5,-1,5,8,5,-1,10],"swapped_pitches":[4,3,7,6,1,2,-2,10,0,5,-1,5,8,5,-1,10],"shift_direction":-1,"question_num":51,"has_decoy":false,"subject":"S1C1624","sona":"41787","block":1,"time":"2021-09-17T14:59:20.138Z"},{"rt":1195,"stimulus":"[A] option 1, [L] option 2, [G] neither","key_press":65,"name":"choice","trial_type":"html-keyboard-response","trial_index":81,"time_elapsed":249553,"internal_node_id":"0.0-81.0","response":"1st","certainty":"high","char":"A","transposition":2,"order":["swapped","shifted"],"probe_pitches":[1,4,9,4,-1,4,6,-1,9,6,9,-1,9,-1,6,1],"shifted_pitches":[1,4,9,4,-1,4,6,0,9,6,9,-1,9,-1,6,1],"swapped_pitches":[1,4,9,4,-1,4,6,9,-1,6,9,-1,9,-1,6,1],"shift_direction":1,"question_num":61,"has_decoy":false,"subject":"S1C1624","sona":"41787","block":1,"time":"2021-09-17T14:59:20.138Z"},{"rt":5519.800000000279,"stimulus":"[A] option 1, [L] option 2, [G] neither","key_press":76,"name":"choice","trial_type":"html-keyboard-response","trial_index":92,"time_elapsed":283105,"internal_node_id":"0.0-92.0","response":"2nd","certainty":"high","char":"L","transposition":-1,"order":["shifted","swapped"],"probe_pitches":[2,3,9,3,1,7,1,-2,7,-1,7,1,3,5,0,8],"shifted_pitches":[2,3,9,3,1,7,1,-2,6,-1,7,1,3,5,0,8],"swapped_pitches":[2,3,9,3,1,7,1,7,-2,-1,7,1,3,5,0,8],"shift_direction":-1,"question_num":71,"has_decoy":false,"subject":"S1C1624","sona":"41787","block":1,"time":"2021-09-17T14:59:20.138Z"},{"rt":1433.3999999999069,"stimulus":"[A] option 1, [L] option 2, [G] neither","key_press":76,"name":"choice","trial_type":"html-keyboard-response","trial_index":103,"time_elapsed":308325,"internal_node_id":"0.0-103.0","response":"2nd","certainty":"high","char":"L","transposition":-1,"order":["swapped","shifted"],"probe_pitches":[-1,-2,5,1,7,4,0,4,6,0,7,5,1,-1,-2,5],"shifted_pitches":[-1,-2,5,1,7,4,0,3,6,0,7,5,1,-1,-2,5],"swapped_pitches":[-1,-2,5,1,7,4,0,6,4,0,7,5,1,-1,-2,5],"shift_direction":-1,"question_num":81,"has_decoy":false,"subject":"S1C1624","sona":"41787","block":1,"time":"2021-09-17T14:59:20.138Z"},{"rt":1642.8000000002794,"stimulus":"[A] option 1, [L] option 2, [G] neither","key_press":71,"name":"choice","trial_type":"html-keyboard-response","trial_index":114,"time_elapsed":333243,"internal_node_id":"0.0-114.0","response":"neither","certainty":"high","char":"G","transposition":-1,"order":["swapped","shifted"],"probe_pitches":[6,9,6,9,2,9,11,2,4,11,4,9,2,-1,4,6],"shifted_pitches":[6,9,6,9,2,9,11,2,3,11,4,9,2,-1,4,6],"swapped_pitches":[6,9,6,9,2,9,11,4,2,11,4,9,2,-1,4,6],"shift_direction":-1,"question_num":91,"has_decoy":false,"subject":"S1C1624","sona":"41787","block":1,"time":"2021-09-17T14:59:20.138Z"},{"rt":1621.5,"stimulus":"[A] option 1, [L] option 2, [G] neither","key_press":65,"name":"choice","trial_type":"html-keyboard-response","trial_index":125,"time_elapsed":361491,"internal_node_id":"0.0-125.0","response":"1st","certainty":"high","char":"A","transposition":-2,"order":["shifted","swapped"],"probe_pitches":[9,4,6,9,6,11,6,2,4,9,11,-1,11,9,11,-1],"shifted_pitches":[9,4,6,9,6,11,6,2,3,9,11,-1,11,9,11,-1],"swapped_pitches":[9,4,6,9,6,11,6,4,2,9,11,-1,11,9,11,-1],"shift_direction":-1,"question_num":101,"has_decoy":false,"subject":"S1C1624","sona":"41787","block":1,"time":"2021-09-17T14:59:20.138Z"},{"rt":1018.6999999997206,"stimulus":"[A] option 1, [L] option 2, [G] neither","key_press":65,"name":"choice","trial_type":"html-keyboard-response","trial_index":136,"time_elapsed":388697,"internal_node_id":"0.0-136.0","response":"1st","certainty":"high","char":"A","transposition":0,"order":["shifted","swapped"],"probe_pitches":[6,9,6,-1,4,1,6,9,4,1,-1,11,1,9,1,6],"shifted_pitches":[6,9,6,-1,4,1,6,8,4,1,-1,11,1,9,1,6],"swapped_pitches":[6,9,6,-1,4,1,6,4,9,1,-1,11,1,9,1,6],"shift_direction":-1,"question_num":111,"has_decoy":false,"subject":"S1C1624","sona":"41787","block":1,"time":"2021-09-17T14:59:20.138Z"},{"rt":1654.6999999997206,"stimulus":"[A] option 1, [L] option 2, [G] neither","key_press":76,"name":"choice","trial_type":"html-keyboard-response","trial_index":147,"time_elapsed":414811,"internal_node_id":"0.0-147.0","response":"2nd","certainty":"high","char":"L","transposition":-1,"order":["swapped","shifted"],"probe_pitches":[11,8,6,8,6,11,6,4,-1,11,8,11,-1,8,-1,1],"shifted_pitches":[11,8,6,8,6,11,6,4,0,11,8,11,-1,8,-1,1],"swapped_pitches":[11,8,6,8,6,11,6,-1,4,11,8,11,-1,8,-1,1],"shift_direction":1,"question_num":121,"has_decoy":false,"subject":"S1C1624","sona":"41787","block":1,"time":"2021-09-17T14:59:20.138Z"},{"rt":1408.3999999999069,"stimulus":"[A] option 1, [L] option 2, [G] neither","key_press":65,"name":"choice","trial_type":"html-keyboard-response","trial_index":158,"time_elapsed":439382,"internal_node_id":"0.0-158.0","response":"1st","certainty":"high","char":"A","transposition":-3,"order":["shifted","swapped"],"probe_pitches":[8,6,1,-1,4,1,4,-1,6,11,6,4,8,6,1,11],"shifted_pitches":[8,6,1,-1,4,1,4,0,6,11,6,4,8,6,1,11],"swapped_pitches":[8,6,1,-1,4,1,4,6,-1,11,6,4,8,6,1,11],"shift_direction":1,"question_num":131,"has_decoy":false,"subject":"S1C1624","sona":"41787","block":1,"time":"2021-09-17T14:59:20.138Z"},{"rt":1146,"stimulus":"[A] option 1, [L] option 2, [G] neither","key_press":76,"name":"choice","trial_type":"html-keyboard-response","trial_index":169,"time_elapsed":463247,"internal_node_id":"0.0-169.0","response":"2nd","certainty":"high","char":"L","transposition":3,"order":["swapped","shifted"],"probe_pitches":[11,8,11,3,1,-1,1,8,11,-1,8,11,1,8,-1,6],"shifted_pitches":[11,8,11,3,1,-1,1,8,10,-1,8,11,1,8,-1,6],"swapped_pitches":[11,8,11,3,1,-1,1,11,8,-1,8,11,1,8,-1,6],"shift_direction":-1,"question_num":141,"has_decoy":false,"subject":"S1C1624","sona":"41787","block":1,"time":"2021-09-17T14:59:20.138Z"},{"rt":1123.1000000000931,"stimulus":"[A] option 1, [L] option 2, [G] neither","key_press":65,"name":"choice","trial_type":"html-keyboard-response","trial_index":180,"time_elapsed":490019,"internal_node_id":"0.0-180.0","response":"1st","certainty":"high","char":"A","transposition":-3,"order":["shifted","swapped"],"probe_pitches":[1,-1,6,-1,8,-1,1,-1,8,3,-1,3,8,1,3,6],"shifted_pitches":[1,-1,6,-1,8,-1,1,0,8,3,-1,3,8,1,3,6],"swapped_pitches":[1,-1,6,-1,8,-1,1,8,-1,3,-1,3,8,1,3,6],"shift_direction":1,"question_num":151,"has_decoy":false,"subject":"S1C1624","sona":"41787","block":1,"time":"2021-09-17T14:59:20.138Z"},{"rt":2072.2999999998137,"stimulus":"[A] option 1, [L] option 2, [G] neither","key_press":76,"name":"choice","trial_type":"html-keyboard-response","trial_index":191,"time_elapsed":514936,"internal_node_id":"0.0-191.0","response":"2nd","certainty":"high","char":"L","transposition":-3,"order":["swapped","shifted"],"probe_pitches":[9,8,2,7,-1,9,-2,9,0,8,3,9,-1,6,3,-2],"shifted_pitches":[9,8,2,7,-1,9,-2,9,1,8,3,9,-1,6,3,-2],"swapped_pitches":[9,8,2,7,-1,9,-2,0,9,8,3,9,-1,6,3,-2],"shift_direction":1,"question_num":161,"has_decoy":false,"subject":"S1C1624","sona":"41787","block":1,"time":"2021-09-17T14:59:20.138Z"},{"rt":3277.899999999907,"stimulus":"[A] option 1, [L] option 2, [G] neither","key_press":71,"name":"choice","trial_type":"html-keyboard-response","trial_index":202,"time_elapsed":541149,"internal_node_id":"0.0-202.0","response":"neither","certainty":"high","char":"G","transposition":1,"order":["shifted","swapped"],"probe_pitches":[2,7,11,4,11,4,-1,4,9,2,-1,11,9,-1,4,9],"shifted_pitches":[2,7,11,4,11,4,-1,3,9,2,-1,11,9,-1,4,9],"swapped_pitches":[2,7,11,4,11,4,-1,9,4,2,-1,11,9,-1,4,9],"shift_direction":-1,"question_num":171,"has_decoy":false,"subject":"S1C1624","sona":"41787","block":1,"time":"2021-09-17T14:59:20.138Z"},{"rt":1426.7999999998137,"stimulus":"[A] option 1, [L] option 2, [G] neither","key_press":76,"name":"choice","trial_type":"html-keyboard-response","trial_index":213,"time_elapsed":566146,"internal_node_id":"0.0-213.0","response":"2nd","certainty":"high","char":"L","transposition":-3,"order":["shifted","swapped"],"probe_pitches":[8,2,-1,7,6,5,6,10,-1,2,-1,6,2,9,3,10],"shifted_pitches":[8,2,-1,7,6,5,6,10,0,2,-1,6,2,9,3,10],"swapped_pitches":[8,2,-1,7,6,5,6,-1,10,2,-1,6,2,9,3,10],"shift_direction":1,"question_num":181,"has_decoy":false,"subject":"S1C1624","sona":"41787","block":1,"time":"2021-09-17T14:59:20.138Z"},{"rt":2286.899999999907,"stimulus":"[A] option 1, [L] option 2, [G] neither","key_press":65,"name":"choice","trial_type":"html-keyboard-response","trial_index":224,"time_elapsed":591763,"internal_node_id":"0.0-224.0","response":"1st","certainty":"high","char":"A","transposition":1,"order":["shifted","swapped"],"probe_pitches":[0,4,2,4,7,8,-1,6,-2,4,3,-2,2,6,4,8],"shifted_pitches":[0,4,2,4,7,8,-1,5,-2,4,3,-2,2,6,4,8],"swapped_pitches":[0,4,2,4,7,8,-1,-2,6,4,3,-2,2,6,4,8],"shift_direction":-1,"question_num":191,"has_decoy":false,"subject":"S1C1624","sona":"41787","block":1,"time":"2021-09-17T14:59:20.138Z"}]