[{"rt":13770.200000000186,"stimulus":"[A] option 1, [L] option 2, [G] neither","key_press":76,"name":"choice","trial_type":"html-keyboard-response","trial_index":10,"time_elapsed":166344,"internal_node_id":"0.0-10.0","subject":"S1C1624","sona":"41787","block":5,"time":"2021-09-17T15:41:35.187Z","response":"2nd","certainty":"high","char":"L","transposition":1,"order":["shifted","swapped"],"probe_pitches":[8,10,9,7,6,1,4,9,10,4,8,2,1,6,9,7],"shifted_pitches":[8,10,9,7,6,1,4,9,11,4,8,2,1,6,9,7],"swapped_pitches":[8,10,9,7,6,1,4,10,9,4,8,2,1,6,9,7],"shift_direction":1,"question_num":1,"has_decoy":false},{"rt":607.2000000001863,"stimulus":"[A] option 1, [L] option 2, [G] neither","key_press":76,"name":"choice","trial_type":"html-keyboard-response","trial_index":21,"time_elapsed":190092,"internal_node_id":"0.0-21.0","subject":"S1C1624","sona":"41787","block":5,"time":"2021-09-17T15:41:35.187Z","response":"2nd","certainty":"high","char":"L","transposition":3,"order":["swapped","shifted"],"probe_pitches":[6,8,3,1,6,3,6,3,8,1,-2,6,8,10,-2,6],"shifted_pitches":[6,8,3,1,6,3,6,3,7,1,-2,6,8,10,-2,6],"swapped_pitches":[6,8,3,1,6,3,6,8,3,1,-2,6,8,10,-2,6],"shift_direction":-1,"question_num":11,"has_decoy":false},{"rt":1301.7999999998137,"stimulus":"[A] option 1, [L] option 2, [G] neither","key_press":65,"name":"choice","trial_type":"html-keyboard-response","trial_index":32,"time_elapsed":213714,"internal_node_id":"0.0-32.0","subject":"S1C1624","sona":"41787","block":5,"time":"2021-09-17T15:41:35.187Z","response":"1st","certainty":"high","char":"A","transposition":-2,"order":["swapped","shifted"],"probe_pitches":[0,5,3,5,3,0,7,5,10,-2,10,5,10,3,5,3],"shifted_pitches":[0,5,3,5,3,0,7,5,9,-2,10,5,10,3,5,3],"swapped_pitches":[0,5,3,5,3,0,7,10,5,-2,10,5,10,3,5,3],"shift_direction":-1,"question_num":21,"has_decoy":false},{"rt":517.2000000001863,"stimulus":"[A] option 1, [L] option 2, [G] neither","key_press":65,"name":"choice","trial_type":"html-keyboard-response","trial_index":43,"time_elapsed":236629,"internal_node_id":"0.0-43.0","subject":"S1C1624","sona":"41787","block":5,"time":"2021-09-17T15:41:35.187Z","response":"1st","certainty":"high","char":"A","transposition":-1,"order":["shifted","swapped"],"probe_pitches":[0,-2,2,0,7,5,2,10,7,0,10,7,10,0,7,10],"shifted_pitches":[0,-2,2,0,7,5,2,10,6,0,10,7,10,0,7,10],"swapped_pitches":[0,-2,2,0,7,5,2,7,10,0,10,7,10,0,7,10],"shift_direction":-1,"question_num":31,"has_decoy":false},{"rt":1745.5,"stimulus":"[A] option 1, [L] option 2, [G] neither","key_press":65,"name":"choice","trial_type":"html-keyboard-response","trial_index":54,"time_elapsed":260683,"internal_node_id":"0.0-54.0","subject":"S1C1624","sona":"41787","block":5,"time":"2021-09-17T15:41:35.187Z","response":"1st","certainty":"high","char":"A","transposition":-2,"order":["shifted","swapped"],"probe_pitches":[10,5,-2,3,5,10,8,5,10,8,0,3,0,-2,3,10],"shifted_pitches":[10,5,-2,3,5,10,8,5,11,8,0,3,0,-2,3,10],"swapped_pitches":[10,5,-2,3,5,10,8,10,5,8,0,3,0,-2,3,10],"shift_direction":1,"question_num":41,"has_decoy":false},{"rt":2206,"stimulus":"[A] option 1, [L] option 2, [G] neither","key_press":76,"name":"choice","trial_type":"html-keyboard-response","trial_index":65,"time_elapsed":285548,"internal_node_id":"0.0-65.0","subject":"S1C1624","sona":"41787","block":5,"time":"2021-09-17T15:41:35.187Z","response":"2nd","certainty":"high","char":"L","transposition":1,"order":["shifted","swapped"],"probe_pitches":[-2,0,5,10,5,7,-2,7,10,5,3,-2,0,-2,3,0],"shifted_pitches":[-2,0,5,10,5,7,-2,6,10,5,3,-2,0,-2,3,0],"swapped_pitches":[-2,0,5,10,5,7,-2,10,7,5,3,-2,0,-2,3,0],"shift_direction":-1,"question_num":51,"has_decoy":false},{"rt":4175.799999999814,"stimulus":"[A] option 1, [L] option 2, [G] neither","key_press":71,"name":"choice","trial_type":"html-keyboard-response","trial_index":76,"time_elapsed":312557,"internal_node_id":"0.0-76.0","subject":"S1C1624","sona":"41787","block":5,"time":"2021-09-17T15:41:35.187Z","response":"neither","certainty":"high","char":"G","transposition":3,"order":["shifted","swapped"],"probe_pitches":[2,1,4,12,9,0,2,4,1,7,8,9,0,4,0,10],"shifted_pitches":[2,1,4,12,9,0,2,5,1,7,8,9,0,4,0,10],"swapped_pitches":[2,1,4,12,9,0,2,1,4,7,8,9,0,4,0,10],"shift_direction":1,"question_num":61,"has_decoy":false},{"rt":770.2999999998137,"stimulus":"[A] option 1, [L] option 2, [G] neither","key_press":76,"name":"choice","trial_type":"html-keyboard-response","trial_index":87,"time_elapsed":336932,"internal_node_id":"0.0-87.0","subject":"S1C1624","sona":"41787","block":5,"time":"2021-09-17T15:41:35.187Z","response":"2nd","certainty":"high","char":"L","transposition":-1,"order":["swapped","shifted"],"probe_pitches":[10,4,6,4,8,0,4,9,3,4,7,11,6,5,8,5],"shifted_pitches":[10,4,6,4,8,0,4,9,2,4,7,11,6,5,8,5],"swapped_pitches":[10,4,6,4,8,0,4,3,9,4,7,11,6,5,8,5],"shift_direction":-1,"question_num":71,"has_decoy":false},{"rt":714.3000000007451,"stimulus":"[A] option 1, [L] option 2, [G] neither","key_press":65,"name":"choice","trial_type":"html-keyboard-response","trial_index":98,"time_elapsed":360266,"internal_node_id":"0.0-98.0","subject":"S1C1624","sona":"41787","block":5,"time":"2021-09-17T15:41:35.187Z","response":"1st","certainty":"high","char":"A","transposition":-3,"order":["shifted","swapped"],"probe_pitches":[1,5,-2,3,5,8,3,8,1,-2,10,-2,3,8,-2,1],"shifted_pitches":[1,5,-2,3,5,8,3,8,2,-2,10,-2,3,8,-2,1],"swapped_pitches":[1,5,-2,3,5,8,3,1,8,-2,10,-2,3,8,-2,1],"shift_direction":1,"question_num":81,"has_decoy":false},{"rt":1635.300000000745,"stimulus":"[A] option 1, [L] option 2, [G] neither","key_press":71,"name":"choice","trial_type":"html-keyboard-response","trial_index":109,"time_elapsed":384435,"internal_node_id":"0.0-109.0","subject":"S1C1624","sona":"41787","block":5,"time":"2021-09-17T15:41:35.187Z","response":"neither","certainty":"high","char":"G","transposition":0,"order":["shifted","swapped"],"probe_pitches":[9,12,5,9,11,9,1,7,11,3,11,5,4,7,6,2],"shifted_pitches":[9,12,5,9,11,9,1,8,11,3,11,5,4,7,6,2],"swapped_pitches":[9,12,5,9,11,9,1,11,7,3,11,5,4,7,6,2],"shift_direction":1,"question_num":91,"has_decoy":false},{"rt":2702.5999999996275,"stimulus":"[A] option 1, [L] option 2, [G] neither","key_press":76,"name":"choice","trial_type":"html-keyboard-response","trial_index":120,"time_elapsed":409431,"internal_node_id":"0.0-120.0","subject":"S1C1624","sona":"41787","block":5,"time":"2021-09-17T15:41:35.187Z","response":"2nd","certainty":"high","char":"L","transposition":0,"order":["swapped","shifted"],"probe_pitches":[3,8,3,1,5,3,10,-2,8,10,3,1,3,1,5,-2],"shifted_pitches":[3,8,3,1,5,3,10,-1,8,10,3,1,3,1,5,-2],"swapped_pitches":[3,8,3,1,5,3,10,8,-2,10,3,1,3,1,5,-2],"shift_direction":1,"question_num":101,"has_decoy":false},{"rt":364.70000000018626,"stimulus":"[A] option 1, [L] option 2, [G] neither","key_press":65,"name":"choice","trial_type":"html-keyboard-response","trial_index":131,"time_elapsed":433909,"internal_node_id":"0.0-131.0","subject":"S1C1624","sona":"41787","block":5,"time":"2021-09-17T15:41:35.187Z","response":"1st","certainty":"high","char":"A","transposition":-2,"order":["swapped","shifted"],"probe_pitches":[1,5,12,8,7,4,11,6,2,7,1,2,7,5,2,5],"shifted_pitches":[1,5,12,8,7,4,11,6,3,7,1,2,7,5,2,5],"swapped_pitches":[1,5,12,8,7,4,11,2,6,7,1,2,7,5,2,5],"shift_direction":1,"question_num":111,"has_decoy":false},{"rt":384.1000000005588,"stimulus":"[A] option 1, [L] option 2, [G] neither","key_press":65,"name":"choice","trial_type":"html-keyboard-response","trial_index":142,"time_elapsed":456791,"internal_node_id":"0.0-142.0","subject":"S1C1624","sona":"41787","block":5,"time":"2021-09-17T15:41:35.187Z","response":"1st","certainty":"high","char":"A","transposition":-1,"order":["swapped","shifted"],"probe_pitches":[7,11,6,11,7,0,11,12,10,6,12,3,10,4,1,4],"shifted_pitches":[7,11,6,11,7,0,11,12,9,6,12,3,10,4,1,4],"swapped_pitches":[7,11,6,11,7,0,11,10,12,6,12,3,10,4,1,4],"shift_direction":-1,"question_num":121,"has_decoy":false},{"rt":426,"stimulus":"[A] option 1, [L] option 2, [G] neither","key_press":76,"name":"choice","trial_type":"html-keyboard-response","trial_index":153,"time_elapsed":482378,"internal_node_id":"0.0-153.0","subject":"S1C1624","sona":"41787","block":5,"time":"2021-09-17T15:41:35.187Z","response":"2nd","certainty":"high","char":"L","transposition":-1,"order":["swapped","shifted"],"probe_pitches":[3,6,3,10,6,-2,6,8,3,-2,10,6,1,-2,10,6],"shifted_pitches":[3,6,3,10,6,-2,6,7,3,-2,10,6,1,-2,10,6],"swapped_pitches":[3,6,3,10,6,-2,6,3,8,-2,10,6,1,-2,10,6],"shift_direction":-1,"question_num":131,"has_decoy":false},{"rt":352.5,"stimulus":"[A] option 1, [L] option 2, [G] neither","key_press":76,"name":"choice","trial_type":"html-keyboard-response","trial_index":164,"time_elapsed":505451,"internal_node_id":"0.0-164.0","subject":"S1C1624","sona":"41787","block":5,"time":"2021-09-17T15:41:35.187Z","response":"2nd","certainty":"high","char":"L","transposition":2,"order":["swapped","shifted"],"probe_pitches":[0,5,0,-2,2,10,2,10,-2,0,7,0,5,10,0,5],"shifted_pitches":[0,5,0,-2,2,10,2,11,-2,0,7,0,5,10,0,5],"swapped_pitches":[0,5,0,-2,2,10,2,-2,10,0,7,0,5,10,0,5],"shift_direction":1,"question_num":141,"has_decoy":false},{"rt":412,"stimulus":"[A] option 1, [L] option 2, [G] neither","key_press":76,"name":"choice","trial_type":"html-keyboard-response","trial_index":175,"time_elapsed":528517,"internal_node_id":"0.0-175.0","subject":"S1C1624","sona":"41787","block":5,"time":"2021-09-17T15:41:35.187Z","response":"2nd","certainty":"high","char":"L","transposition":-3,"order":["swapped","shifted"],"probe_pitches":[4,6,5,11,10,6,11,12,8,5,6,4,6,3,5,0],"shifted_pitches":[4,6,5,11,10,6,11,12,7,5,6,4,6,3,5,0],"swapped_pitches":[4,6,5,11,10,6,11,8,12,5,6,4,6,3,5,0],"shift_direction":-1,"question_num":151,"has_decoy":false},{"rt":538.1000000005588,"stimulus":"[A] option 1, [L] option 2, [G] neither","key_press":65,"name":"choice","trial_type":"html-keyboard-response","trial_index":186,"time_elapsed":551688,"internal_node_id":"0.0-186.0","subject":"S1C1624","sona":"41787","block":5,"time":"2021-09-17T15:41:35.187Z","response":"1st","certainty":"high","char":"A","transposition":-3,"order":["shifted","swapped"],"probe_pitches":[0,3,8,5,8,-2,0,-2,8,0,-2,3,0,3,10,8],"shifted_pitches":[0,3,8,5,8,-2,0,-1,8,0,-2,3,0,3,10,8],"swapped_pitches":[0,3,8,5,8,-2,0,8,-2,0,-2,3,0,3,10,8],"shift_direction":1,"question_num":161,"has_decoy":false},{"rt":1727.7000000001863,"stimulus":"[A] option 1, [L] option 2, [G] neither","key_press":71,"name":"choice","trial_type":"html-keyboard-response","trial_index":197,"time_elapsed":575664,"internal_node_id":"0.0-197.0","subject":"S1C1624","sona":"41787","block":5,"time":"2021-09-17T15:41:35.187Z","response":"neither","certainty":"high","char":"G","transposition":2,"order":["shifted","swapped"],"probe_pitches":[7,9,11,6,8,9,10,5,11,12,8,1,6,5,12,1],"shifted_pitches":[7,9,11,6,8,9,10,4,11,12,8,1,6,5,12,1],"swapped_pitches":[7,9,11,6,8,9,10,11,5,12,8,1,6,5,12,1],"shift_direction":-1,"question_num":171,"has_decoy":false},{"rt":433.6000000005588,"stimulus":"[A] option 1, [L] option 2, [G] neither","key_press":76,"name":"choice","trial_type":"html-keyboard-response","trial_index":208,"time_elapsed":598477,"internal_node_id":"0.0-208.0","subject":"S1C1624","sona":"41787","block":5,"time":"2021-09-17T15:41:35.187Z","response":"2nd","certainty":"high","char":"L","transposition":-2,"order":["shifted","swapped"],"probe_pitches":[5,0,2,3,0,9,3,11,8,9,8,7,1,9,1,2],"shifted_pitches":[5,0,2,3,0,9,3,10,8,9,8,7,1,9,1,2],"swapped_pitches":[5,0,2,3,0,9,3,8,11,9,8,7,1,9,1,2],"shift_direction":-1,"question_num":181,"has_decoy":false},{"rt":499.69999999925494,"stimulus":"[A] option 1, [L] option 2, [G] neither","key_press":65,"name":"choice","trial_type":"html-keyboard-response","trial_index":219,"time_elapsed":621396,"internal_node_id":"0.0-219.0","subject":"S1C1624","sona":"41787","block":5,"time":"2021-09-17T15:41:35.187Z","response":"1st","certainty":"high","char":"A","transposition":-3,"order":["swapped","shifted"],"probe_pitches":[12,9,12,5,10,12,8,5,3,2,12,8,11,8,11,7],"shifted_pitches":[12,9,12,5,10,12,8,6,3,2,12,8,11,8,11,7],"swapped_pitches":[12,9,12,5,10,12,8,3,5,2,12,8,11,8,11,7],"shift_direction":1,"question_num":191,"has_decoy":false}]