[{"rt":1830.6000000000931,"stimulus":"[A] option 1, [L] option 2, [G] neither","key_press":71,"name":"choice","trial_type":"html-keyboard-response","trial_index":10,"time_elapsed":28671,"internal_node_id":"0.0-10.0","subject":"S1C1624","sona":"41787","block":2,"time":"2021-09-17T15:10:00.029Z","response":"neither","certainty":"high","char":"G","transposition":-3,"order":["swapped","shifted"],"probe_pitches":[-1,-2,5,-2,7,6,8,3,5,-2,6,3,6,1,8,5],"shifted_pitches":[-1,-2,5,-2,7,6,8,4,5,-2,6,3,6,1,8,5],"swapped_pitches":[-1,-2,5,-2,7,6,8,5,3,-2,6,3,6,1,8,5],"shift_direction":1,"question_num":1,"has_decoy":false},{"rt":1660.6000000000931,"stimulus":"[A] option 1, [L] option 2, [G] neither","key_press":65,"name":"choice","trial_type":"html-keyboard-response","trial_index":21,"time_elapsed":106758,"internal_node_id":"0.0-21.0","subject":"S1C1624","sona":"41787","block":2,"time":"2021-09-17T15:10:00.029Z","response":"1st","certainty":"high","char":"A","transposition":-3,"order":["shifted","swapped"],"probe_pitches":[12,8,10,12,10,8,12,15,3,5,8,15,12,15,3,8],"shifted_pitches":[12,8,10,12,10,8,12,14,3,5,8,15,12,15,3,8],"swapped_pitches":[12,8,10,12,10,8,12,3,15,5,8,15,12,15,3,8],"shift_direction":-1,"question_num":11,"has_decoy":false},{"rt":3608.2000000001863,"stimulus":"[A] option 1, [L] option 2, [G] neither","key_press":76,"name":"choice","trial_type":"html-keyboard-response","trial_index":32,"time_elapsed":142626,"internal_node_id":"0.0-32.0","subject":"S1C1624","sona":"41787","block":2,"time":"2021-09-17T15:10:00.029Z","response":"2nd","certainty":"high","char":"L","transposition":-2,"order":["swapped","shifted"],"probe_pitches":[7,5,10,15,10,5,3,5,15,12,15,10,12,7,12,3],"shifted_pitches":[7,5,10,15,10,5,3,6,15,12,15,10,12,7,12,3],"swapped_pitches":[7,5,10,15,10,5,3,15,5,12,15,10,12,7,12,3],"shift_direction":1,"question_num":21,"has_decoy":false},{"rt":2166.100000000093,"stimulus":"[A] option 1, [L] option 2, [G] neither","key_press":76,"name":"choice","trial_type":"html-keyboard-response","trial_index":43,"time_elapsed":167866,"internal_node_id":"0.0-43.0","subject":"S1C1624","sona":"41787","block":2,"time":"2021-09-17T15:10:00.029Z","response":"2nd","certainty":"high","char":"L","transposition":-1,"order":["swapped","shifted"],"probe_pitches":[10,8,5,13,8,5,8,3,10,15,10,15,8,10,8,10],"shifted_pitches":[10,8,5,13,8,5,8,3,11,15,10,15,8,10,8,10],"swapped_pitches":[10,8,5,13,8,5,8,10,3,15,10,15,8,10,8,10],"shift_direction":1,"question_num":31,"has_decoy":false},{"rt":2466.8000000002794,"stimulus":"[A] option 1, [L] option 2, [G] neither","key_press":65,"name":"choice","trial_type":"html-keyboard-response","trial_index":54,"time_elapsed":192828,"internal_node_id":"0.0-54.0","subject":"S1C1624","sona":"41787","block":2,"time":"2021-09-17T15:10:00.029Z","response":"1st","certainty":"high","char":"A","transposition":-1,"order":["shifted","swapped"],"probe_pitches":[-2,0,1,2,9,4,1,2,4,8,1,6,-3,0,1,4],"shifted_pitches":[-2,0,1,2,9,4,1,2,3,8,1,6,-3,0,1,4],"swapped_pitches":[-2,0,1,2,9,4,1,4,2,8,1,6,-3,0,1,4],"shift_direction":-1,"question_num":41,"has_decoy":false},{"rt":2522.100000000093,"stimulus":"[A] option 1, [L] option 2, [G] neither","key_press":76,"name":"choice","trial_type":"html-keyboard-response","trial_index":65,"time_elapsed":219771,"internal_node_id":"0.0-65.0","subject":"S1C1624","sona":"41787","block":2,"time":"2021-09-17T15:10:00.029Z","response":"2nd","certainty":"high","char":"L","transposition":-1,"order":["swapped","shifted"],"probe_pitches":[9,7,8,9,6,4,9,8,1,4,8,1,4,1,-1,9],"shifted_pitches":[9,7,8,9,6,4,9,8,2,4,8,1,4,1,-1,9],"swapped_pitches":[9,7,8,9,6,4,9,1,8,4,8,1,4,1,-1,9],"shift_direction":1,"question_num":51,"has_decoy":false},{"rt":2024.1000000000931,"stimulus":"[A] option 1, [L] option 2, [G] neither","key_press":65,"name":"choice","trial_type":"html-keyboard-response","trial_index":76,"time_elapsed":244919,"internal_node_id":"0.0-76.0","subject":"S1C1624","sona":"41787","block":2,"time":"2021-09-17T15:10:00.029Z","response":"1st","certainty":"high","char":"A","transposition":0,"order":["shifted","swapped"],"probe_pitches":[9,3,8,2,3,-2,7,8,-1,6,-1,5,-1,5,9,6],"shifted_pitches":[9,3,8,2,3,-2,7,8,0,6,-1,5,-1,5,9,6],"swapped_pitches":[9,3,8,2,3,-2,7,-1,8,6,-1,5,-1,5,9,6],"shift_direction":1,"question_num":61,"has_decoy":false},{"rt":1929.3999999999069,"stimulus":"[A] option 1, [L] option 2, [G] neither","key_press":65,"name":"choice","trial_type":"html-keyboard-response","trial_index":87,"time_elapsed":328128,"internal_node_id":"0.0-87.0","subject":"S1C1624","sona":"41787","block":2,"time":"2021-09-17T15:10:00.029Z","response":"1st","certainty":"high","char":"A","transposition":-2,"order":["shifted","swapped"],"probe_pitches":[-2,-3,2,1,-2,6,-2,6,0,-3,4,3,7,-2,2,0],"shifted_pitches":[-2,-3,2,1,-2,6,-2,5,0,-3,4,3,7,-2,2,0],"swapped_pitches":[-2,-3,2,1,-2,6,-2,0,6,-3,4,3,7,-2,2,0],"shift_direction":-1,"question_num":71,"has_decoy":false},{"rt":1164.5,"stimulus":"[A] option 1, [L] option 2, [G] neither","key_press":76,"name":"choice","trial_type":"html-keyboard-response","trial_index":98,"time_elapsed":352478,"internal_node_id":"0.0-98.0","subject":"S1C1624","sona":"41787","block":2,"time":"2021-09-17T15:10:00.029Z","response":"2nd","certainty":"high","char":"L","transposition":-2,"order":["swapped","shifted"],"probe_pitches":[-2,-3,1,4,7,4,3,0,-3,6,-3,0,5,2,1,9],"shifted_pitches":[-2,-3,1,4,7,4,3,0,-4,6,-3,0,5,2,1,9],"swapped_pitches":[-2,-3,1,4,7,4,3,-3,0,6,-3,0,5,2,1,9],"shift_direction":-1,"question_num":81,"has_decoy":false},{"rt":1874.1000000000931,"stimulus":"[A] option 1, [L] option 2, [G] neither","key_press":76,"name":"choice","trial_type":"html-keyboard-response","trial_index":109,"time_elapsed":378147,"internal_node_id":"0.0-109.0","subject":"S1C1624","sona":"41787","block":2,"time":"2021-09-17T15:10:00.029Z","response":"2nd","certainty":"high","char":"L","transposition":2,"order":["shifted","swapped"],"probe_pitches":[3,6,1,-1,-2,2,4,1,6,5,6,1,4,0,9,1],"shifted_pitches":[3,6,1,-1,-2,2,4,1,7,5,6,1,4,0,9,1],"swapped_pitches":[3,6,1,-1,-2,2,4,6,1,5,6,1,4,0,9,1],"shift_direction":1,"question_num":91,"has_decoy":false},{"rt":624.7000000001863,"stimulus":"[A] option 1, [L] option 2, [G] neither","key_press":71,"name":"choice","trial_type":"html-keyboard-response","trial_index":120,"time_elapsed":401546,"internal_node_id":"0.0-120.0","subject":"S1C1624","sona":"41787","block":2,"time":"2021-09-17T15:10:00.029Z","response":"neither","certainty":"high","char":"G","transposition":2,"order":["swapped","shifted"],"probe_pitches":[12,7,12,7,5,7,3,10,5,12,10,3,12,10,7,3],"shifted_pitches":[12,7,12,7,5,7,3,10,6,12,10,3,12,10,7,3],"swapped_pitches":[12,7,12,7,5,7,3,5,10,12,10,3,12,10,7,3],"shift_direction":1,"question_num":101,"has_decoy":false},{"rt":1711.6999999997206,"stimulus":"[A] option 1, [L] option 2, [G] neither","key_press":71,"name":"choice","trial_type":"html-keyboard-response","trial_index":131,"time_elapsed":426669,"internal_node_id":"0.0-131.0","subject":"S1C1624","sona":"41787","block":2,"time":"2021-09-17T15:10:00.029Z","response":"neither","certainty":"high","char":"G","transposition":-1,"order":["shifted","swapped"],"probe_pitches":[15,13,8,13,10,8,3,8,6,10,3,10,15,3,8,10],"shifted_pitches":[15,13,8,13,10,8,3,8,5,10,3,10,15,3,8,10],"swapped_pitches":[15,13,8,13,10,8,3,6,8,10,3,10,15,3,8,10],"shift_direction":-1,"question_num":111,"has_decoy":false},{"rt":2219.3000000002794,"stimulus":"[A] option 1, [L] option 2, [G] neither","key_press":65,"name":"choice","trial_type":"html-keyboard-response","trial_index":142,"time_elapsed":451474,"internal_node_id":"0.0-142.0","subject":"S1C1624","sona":"41787","block":2,"time":"2021-09-17T15:10:00.029Z","response":"1st","certainty":"high","char":"A","transposition":3,"order":["swapped","shifted"],"probe_pitches":[3,9,7,-1,2,0,8,2,0,-2,0,4,5,6,5,4],"shifted_pitches":[3,9,7,-1,2,0,8,1,0,-2,0,4,5,6,5,4],"swapped_pitches":[3,9,7,-1,2,0,8,0,2,-2,0,4,5,6,5,4],"shift_direction":-1,"question_num":121,"has_decoy":false},{"rt":4642.300000000279,"stimulus":"[A] option 1, [L] option 2, [G] neither","key_press":76,"name":"choice","trial_type":"html-keyboard-response","trial_index":153,"time_elapsed":479949,"internal_node_id":"0.0-153.0","subject":"S1C1624","sona":"41787","block":2,"time":"2021-09-17T15:10:00.029Z","response":"2nd","certainty":"high","char":"L","transposition":1,"order":["shifted","swapped"],"probe_pitches":[15,10,5,13,15,13,5,13,3,8,3,8,10,13,5,13],"shifted_pitches":[15,10,5,13,15,13,5,12,3,8,3,8,10,13,5,13],"swapped_pitches":[15,10,5,13,15,13,5,3,13,8,3,8,10,13,5,13],"shift_direction":-1,"question_num":131,"has_decoy":false},{"rt":2598.100000000093,"stimulus":"[A] option 1, [L] option 2, [G] neither","key_press":76,"name":"choice","trial_type":"html-keyboard-response","trial_index":164,"time_elapsed":506314,"internal_node_id":"0.0-164.0","subject":"S1C1624","sona":"41787","block":2,"time":"2021-09-17T15:10:00.029Z","response":"2nd","certainty":"high","char":"L","transposition":0,"order":["swapped","shifted"],"probe_pitches":[13,15,11,6,15,13,3,13,6,15,8,13,15,13,6,8],"shifted_pitches":[13,15,11,6,15,13,3,13,5,15,8,13,15,13,6,8],"swapped_pitches":[13,15,11,6,15,13,3,6,13,15,8,13,15,13,6,8],"shift_direction":-1,"question_num":141,"has_decoy":false},{"rt":1506.0999999996275,"stimulus":"[A] option 1, [L] option 2, [G] neither","key_press":65,"name":"choice","trial_type":"html-keyboard-response","trial_index":175,"time_elapsed":530587,"internal_node_id":"0.0-175.0","subject":"S1C1624","sona":"41787","block":2,"time":"2021-09-17T15:10:00.029Z","response":"1st","certainty":"high","char":"A","transposition":-3,"order":["swapped","shifted"],"probe_pitches":[3,4,0,8,9,7,0,5,-3,7,-1,0,-1,2,8,1],"shifted_pitches":[3,4,0,8,9,7,0,6,-3,7,-1,0,-1,2,8,1],"swapped_pitches":[3,4,0,8,9,7,0,-3,5,7,-1,0,-1,2,8,1],"shift_direction":1,"question_num":151,"has_decoy":false},{"rt":2426.5999999996275,"stimulus":"[A] option 1, [L] option 2, [G] neither","key_press":71,"name":"choice","trial_type":"html-keyboard-response","trial_index":186,"time_elapsed":557655,"internal_node_id":"0.0-186.0","subject":"S1C1624","sona":"41787","block":2,"time":"2021-09-17T15:10:00.029Z","response":"neither","certainty":"high","char":"G","transposition":3,"order":["shifted","swapped"],"probe_pitches":[13,8,3,6,15,13,6,13,3,6,11,6,15,11,15,11],"shifted_pitches":[13,8,3,6,15,13,6,12,3,6,11,6,15,11,15,11],"swapped_pitches":[13,8,3,6,15,13,6,3,13,6,11,6,15,11,15,11],"shift_direction":-1,"question_num":161,"has_decoy":false},{"rt":4089,"stimulus":"[A] option 1, [L] option 2, [G] neither","key_press":76,"name":"choice","trial_type":"html-keyboard-response","trial_index":197,"time_elapsed":587231,"internal_node_id":"0.0-197.0","subject":"S1C1624","sona":"41787","block":2,"time":"2021-09-17T15:10:00.029Z","response":"2nd","certainty":"high","char":"L","transposition":1,"order":["shifted","swapped"],"probe_pitches":[4,9,6,7,1,0,1,0,-2,8,-2,5,3,-3,-2,6],"shifted_pitches":[4,9,6,7,1,0,1,-1,-2,8,-2,5,3,-3,-2,6],"swapped_pitches":[4,9,6,7,1,0,1,-2,0,8,-2,5,3,-3,-2,6],"shift_direction":-1,"question_num":171,"has_decoy":false},{"rt":517.7000000001863,"stimulus":"[A] option 1, [L] option 2, [G] neither","key_press":76,"name":"choice","trial_type":"html-keyboard-response","trial_index":208,"time_elapsed":611243,"internal_node_id":"0.0-208.0","subject":"S1C1624","sona":"41787","block":2,"time":"2021-09-17T15:10:00.029Z","response":"2nd","certainty":"high","char":"L","transposition":-2,"order":["swapped","shifted"],"probe_pitches":[15,10,8,6,15,6,10,15,13,10,15,3,13,6,8,3],"shifted_pitches":[15,10,8,6,15,6,10,16,13,10,15,3,13,6,8,3],"swapped_pitches":[15,10,8,6,15,6,10,13,15,10,15,3,13,6,8,3],"shift_direction":1,"question_num":181,"has_decoy":false},{"rt":553.3999999999069,"stimulus":"[A] option 1, [L] option 2, [G] neither","key_press":65,"name":"choice","trial_type":"html-keyboard-response","trial_index":219,"time_elapsed":634120,"internal_node_id":"0.0-219.0","subject":"S1C1624","sona":"41787","block":2,"time":"2021-09-17T15:10:00.029Z","response":"1st","certainty":"high","char":"A","transposition":-3,"order":["shifted","swapped"],"probe_pitches":[15,12,10,5,12,5,10,12,5,8,3,5,15,10,5,3],"shifted_pitches":[15,12,10,5,12,5,10,12,6,8,3,5,15,10,5,3],"swapped_pitches":[15,12,10,5,12,5,10,5,12,8,3,5,15,10,5,3],"shift_direction":1,"question_num":191,"has_decoy":false}]