[{"rt":835,"stimulus":"[A] option 1, [L] option 2, [G] neither","key_press":65,"name":"choice","trial_type":"html-keyboard-response","trial_index":10,"time_elapsed":146749,"internal_node_id":"0.0-10.0","subject":"S1C1624","sona":"41787","block":6,"time":"2021-09-17T15:52:10.491Z","response":"1st","certainty":"high","char":"A","transposition":3,"order":["shifted","swapped"],"probe_pitches":[-3,-1,6,2,6,4,-1,2,-3,9,-3,6,9,6,-1,9],"shifted_pitches":[-3,-1,6,2,6,4,-1,2,-2,9,-3,6,9,6,-1,9],"swapped_pitches":[-3,-1,6,2,6,4,-1,-3,2,9,-3,6,9,6,-1,9],"shift_direction":1,"question_num":1,"has_decoy":false},{"rt":420.20000000018626,"stimulus":"[A] option 1, [L] option 2, [G] neither","key_press":76,"name":"choice","trial_type":"html-keyboard-response","trial_index":21,"time_elapsed":197328,"internal_node_id":"0.0-21.0","subject":"S1C1624","sona":"41787","block":6,"time":"2021-09-17T15:52:10.491Z","response":"2nd","certainty":"high","char":"L","transposition":-3,"order":["swapped","shifted"],"probe_pitches":[4,-1,2,-3,4,-1,7,9,2,4,9,4,-1,9,2,7],"shifted_pitches":[4,-1,2,-3,4,-1,7,9,1,4,9,4,-1,9,2,7],"swapped_pitches":[4,-1,2,-3,4,-1,7,2,9,4,9,4,-1,9,2,7],"shift_direction":-1,"question_num":11,"has_decoy":false},{"rt":1567.7999999998137,"stimulus":"[A] option 1, [L] option 2, [G] neither","key_press":65,"name":"choice","trial_type":"html-keyboard-response","trial_index":32,"time_elapsed":222208,"internal_node_id":"0.0-32.0","subject":"S1C1624","sona":"41787","block":6,"time":"2021-09-17T15:52:10.491Z","response":"1st","certainty":"high","char":"A","transposition":-1,"order":["swapped","shifted"],"probe_pitches":[10,5,3,4,9,4,5,1,4,9,8,2,10,11,7,13],"shifted_pitches":[10,5,3,4,9,4,5,0,4,9,8,2,10,11,7,13],"swapped_pitches":[10,5,3,4,9,4,5,4,1,9,8,2,10,11,7,13],"shift_direction":-1,"question_num":21,"has_decoy":false},{"rt":1075.3999999994412,"stimulus":"[A] option 1, [L] option 2, [G] neither","key_press":65,"name":"choice","trial_type":"html-keyboard-response","trial_index":43,"time_elapsed":246243,"internal_node_id":"0.0-43.0","subject":"S1C1624","sona":"41787","block":6,"time":"2021-09-17T15:52:10.491Z","response":"1st","certainty":"high","char":"A","transposition":1,"order":["shifted","swapped"],"probe_pitches":[6,4,6,2,4,2,-3,4,9,-3,4,9,6,-1,9,-1],"shifted_pitches":[6,4,6,2,4,2,-3,3,9,-3,4,9,6,-1,9,-1],"swapped_pitches":[6,4,6,2,4,2,-3,9,4,-3,4,9,6,-1,9,-1],"shift_direction":-1,"question_num":31,"has_decoy":false},{"rt":417.69999999925494,"stimulus":"[A] option 1, [L] option 2, [G] neither","key_press":76,"name":"choice","trial_type":"html-keyboard-response","trial_index":54,"time_elapsed":268901,"internal_node_id":"0.0-54.0","subject":"S1C1624","sona":"41787","block":6,"time":"2021-09-17T15:52:10.491Z","response":"2nd","certainty":"high","char":"L","transposition":-3,"order":["swapped","shifted"],"probe_pitches":[6,9,13,7,8,7,9,11,2,7,12,10,4,12,1,12],"shifted_pitches":[6,9,13,7,8,7,9,11,3,7,12,10,4,12,1,12],"swapped_pitches":[6,9,13,7,8,7,9,2,11,7,12,10,4,12,1,12],"shift_direction":1,"question_num":41,"has_decoy":false},{"rt":458.3999999994412,"stimulus":"[A] option 1, [L] option 2, [G] neither","key_press":65,"name":"choice","trial_type":"html-keyboard-response","trial_index":65,"time_elapsed":291943,"internal_node_id":"0.0-65.0","subject":"S1C1624","sona":"41787","block":6,"time":"2021-09-17T15:52:10.491Z","response":"1st","certainty":"high","char":"A","transposition":3,"order":["swapped","shifted"],"probe_pitches":[12,6,10,11,12,11,3,7,13,1,7,11,9,7,11,13],"shifted_pitches":[12,6,10,11,12,11,3,8,13,1,7,11,9,7,11,13],"swapped_pitches":[12,6,10,11,12,11,3,13,7,1,7,11,9,7,11,13],"shift_direction":1,"question_num":51,"has_decoy":false},{"rt":702.7999999998137,"stimulus":"[A] option 1, [L] option 2, [G] neither","key_press":65,"name":"choice","trial_type":"html-keyboard-response","trial_index":76,"time_elapsed":314928,"internal_node_id":"0.0-76.0","subject":"S1C1624","sona":"41787","block":6,"time":"2021-09-17T15:52:10.491Z","response":"1st","certainty":"high","char":"A","transposition":-1,"order":["shifted","swapped"],"probe_pitches":[4,9,4,9,4,-3,7,2,4,9,7,-1,-3,7,2,7],"shifted_pitches":[4,9,4,9,4,-3,7,2,5,9,7,-1,-3,7,2,7],"swapped_pitches":[4,9,4,9,4,-3,7,4,2,9,7,-1,-3,7,2,7],"shift_direction":1,"question_num":61,"has_decoy":false},{"rt":735.1000000005588,"stimulus":"[A] option 1, [L] option 2, [G] neither","key_press":71,"name":"choice","trial_type":"html-keyboard-response","trial_index":87,"time_elapsed":338762,"internal_node_id":"0.0-87.0","subject":"S1C1624","sona":"41787","block":6,"time":"2021-09-17T15:52:10.491Z","response":"neither","certainty":"high","char":"G","transposition":0,"order":["shifted","swapped"],"probe_pitches":[12,9,13,9,3,9,8,11,3,2,8,3,7,11,8,5],"shifted_pitches":[12,9,13,9,3,9,8,10,3,2,8,3,7,11,8,5],"swapped_pitches":[12,9,13,9,3,9,8,3,11,2,8,3,7,11,8,5],"shift_direction":-1,"question_num":71,"has_decoy":false},{"rt":798.7999999998137,"stimulus":"[A] option 1, [L] option 2, [G] neither","key_press":71,"name":"choice","trial_type":"html-keyboard-response","trial_index":98,"time_elapsed":363037,"internal_node_id":"0.0-98.0","subject":"S1C1624","sona":"41787","block":6,"time":"2021-09-17T15:52:10.491Z","response":"neither","certainty":"high","char":"G","transposition":-1,"order":["shifted","swapped"],"probe_pitches":[12,6,10,12,8,4,11,13,10,7,4,1,7,2,8,12],"shifted_pitches":[12,6,10,12,8,4,11,13,9,7,4,1,7,2,8,12],"swapped_pitches":[12,6,10,12,8,4,11,10,13,7,4,1,7,2,8,12],"shift_direction":-1,"question_num":81,"has_decoy":false},{"rt":1739.699999999255,"stimulus":"[A] option 1, [L] option 2, [G] neither","key_press":65,"name":"choice","trial_type":"html-keyboard-response","trial_index":109,"time_elapsed":389769,"internal_node_id":"0.0-109.0","subject":"S1C1624","sona":"41787","block":6,"time":"2021-09-17T15:52:10.491Z","response":"1st","certainty":"high","char":"A","transposition":-1,"order":["shifted","swapped"],"probe_pitches":[2,-3,2,0,4,2,9,4,7,9,2,9,0,7,9,4],"shifted_pitches":[2,-3,2,0,4,2,9,4,8,9,2,9,0,7,9,4],"swapped_pitches":[2,-3,2,0,4,2,9,7,4,9,2,9,0,7,9,4],"shift_direction":1,"question_num":91,"has_decoy":false},{"rt":437.19999999925494,"stimulus":"[A] option 1, [L] option 2, [G] neither","key_press":76,"name":"choice","trial_type":"html-keyboard-response","trial_index":120,"time_elapsed":416753,"internal_node_id":"0.0-120.0","subject":"S1C1624","sona":"41787","block":6,"time":"2021-09-17T15:52:10.491Z","response":"2nd","certainty":"high","char":"L","transposition":2,"order":["swapped","shifted"],"probe_pitches":[2,5,0,7,0,2,7,9,2,5,7,2,-3,2,-3,0],"shifted_pitches":[2,5,0,7,0,2,7,9,1,5,7,2,-3,2,-3,0],"swapped_pitches":[2,5,0,7,0,2,7,2,9,5,7,2,-3,2,-3,0],"shift_direction":-1,"question_num":101,"has_decoy":false},{"rt":605.3999999994412,"stimulus":"[A] option 1, [L] option 2, [G] neither","key_press":76,"name":"choice","trial_type":"html-keyboard-response","trial_index":131,"time_elapsed":439742,"internal_node_id":"0.0-131.0","subject":"S1C1624","sona":"41787","block":6,"time":"2021-09-17T15:52:10.491Z","response":"2nd","certainty":"high","char":"L","transposition":-2,"order":["swapped","shifted"],"probe_pitches":[0,5,0,2,9,5,7,-3,9,7,-3,9,0,5,0,2],"shifted_pitches":[0,5,0,2,9,5,7,-4,9,7,-3,9,0,5,0,2],"swapped_pitches":[0,5,0,2,9,5,7,9,-3,7,-3,9,0,5,0,2],"shift_direction":-1,"question_num":111,"has_decoy":false},{"rt":1483.5,"stimulus":"[A] option 1, [L] option 2, [G] neither","key_press":76,"name":"choice","trial_type":"html-keyboard-response","trial_index":142,"time_elapsed":463546,"internal_node_id":"0.0-142.0","subject":"S1C1624","sona":"41787","block":6,"time":"2021-09-17T15:52:10.491Z","response":"2nd","certainty":"high","char":"L","transposition":-2,"order":["shifted","swapped"],"probe_pitches":[2,7,1,4,1,7,8,10,5,9,10,12,6,7,4,8],"shifted_pitches":[2,7,1,4,1,7,8,11,5,9,10,12,6,7,4,8],"swapped_pitches":[2,7,1,4,1,7,8,5,10,9,10,12,6,7,4,8],"shift_direction":1,"question_num":121,"has_decoy":false},{"rt":2464.5,"stimulus":"[A] option 1, [L] option 2, [G] neither","key_press":71,"name":"choice","trial_type":"html-keyboard-response","trial_index":153,"time_elapsed":488878,"internal_node_id":"0.0-153.0","subject":"S1C1624","sona":"41787","block":6,"time":"2021-09-17T15:52:10.491Z","response":"neither","certainty":"high","char":"G","transposition":-3,"order":["swapped","shifted"],"probe_pitches":[2,8,6,13,7,11,6,2,4,12,10,9,11,1,6,8],"shifted_pitches":[2,8,6,13,7,11,6,2,5,12,10,9,11,1,6,8],"swapped_pitches":[2,8,6,13,7,11,6,4,2,12,10,9,11,1,6,8],"shift_direction":1,"question_num":131,"has_decoy":false},{"rt":2140.5999999996275,"stimulus":"[A] option 1, [L] option 2, [G] neither","key_press":71,"name":"choice","trial_type":"html-keyboard-response","trial_index":164,"time_elapsed":513694,"internal_node_id":"0.0-164.0","subject":"S1C1624","sona":"41787","block":6,"time":"2021-09-17T15:52:10.491Z","response":"neither","certainty":"high","char":"G","transposition":-2,"order":["shifted","swapped"],"probe_pitches":[11,13,10,3,5,9,5,3,1,5,10,2,12,10,9,12],"shifted_pitches":[11,13,10,3,5,9,5,4,1,5,10,2,12,10,9,12],"swapped_pitches":[11,13,10,3,5,9,5,1,3,5,10,2,12,10,9,12],"shift_direction":1,"question_num":141,"has_decoy":false},{"rt":1918.5,"stimulus":"[A] option 1, [L] option 2, [G] neither","key_press":71,"name":"choice","trial_type":"html-keyboard-response","trial_index":175,"time_elapsed":538298,"internal_node_id":"0.0-175.0","subject":"S1C1624","sona":"41787","block":6,"time":"2021-09-17T15:52:10.491Z","response":"neither","certainty":"high","char":"G","transposition":2,"order":["shifted","swapped"],"probe_pitches":[2,7,3,11,4,13,11,12,7,9,10,2,8,4,1,10],"shifted_pitches":[2,7,3,11,4,13,11,12,6,9,10,2,8,4,1,10],"swapped_pitches":[2,7,3,11,4,13,11,7,12,9,10,2,8,4,1,10],"shift_direction":-1,"question_num":151,"has_decoy":false},{"rt":527.0999999996275,"stimulus":"[A] option 1, [L] option 2, [G] neither","key_press":65,"name":"choice","trial_type":"html-keyboard-response","trial_index":186,"time_elapsed":561156,"internal_node_id":"0.0-186.0","subject":"S1C1624","sona":"41787","block":6,"time":"2021-09-17T15:52:10.491Z","response":"1st","certainty":"high","char":"A","transposition":-3,"order":["shifted","swapped"],"probe_pitches":[-3,1,-1,4,1,4,9,-3,1,6,9,4,6,1,6,1],"shifted_pitches":[-3,1,-1,4,1,4,9,-2,1,6,9,4,6,1,6,1],"swapped_pitches":[-3,1,-1,4,1,4,9,1,-3,6,9,4,6,1,6,1],"shift_direction":1,"question_num":161,"has_decoy":false},{"rt":376.8999999994412,"stimulus":"[A] option 1, [L] option 2, [G] neither","key_press":76,"name":"choice","trial_type":"html-keyboard-response","trial_index":197,"time_elapsed":583853,"internal_node_id":"0.0-197.0","subject":"S1C1624","sona":"41787","block":6,"time":"2021-09-17T15:52:10.491Z","response":"2nd","certainty":"high","char":"L","transposition":0,"order":["swapped","shifted"],"probe_pitches":[9,4,1,9,4,9,1,9,-3,4,-3,4,6,-3,4,-1],"shifted_pitches":[9,4,1,9,4,9,1,10,-3,4,-3,4,6,-3,4,-1],"swapped_pitches":[9,4,1,9,4,9,1,-3,9,4,-3,4,6,-3,4,-1],"shift_direction":1,"question_num":171,"has_decoy":false},{"rt":1157.8999999994412,"stimulus":"[A] option 1, [L] option 2, [G] neither","key_press":71,"name":"choice","trial_type":"html-keyboard-response","trial_index":208,"time_elapsed":608851,"internal_node_id":"0.0-208.0","subject":"S1C1624","sona":"41787","block":6,"time":"2021-09-17T15:52:10.491Z","response":"neither","certainty":"high","char":"G","transposition":1,"order":["swapped","shifted"],"probe_pitches":[11,13,10,9,5,1,11,6,8,5,12,6,5,4,6,12],"shifted_pitches":[11,13,10,9,5,1,11,6,7,5,12,6,5,4,6,12],"swapped_pitches":[11,13,10,9,5,1,11,8,6,5,12,6,5,4,6,12],"shift_direction":-1,"question_num":181,"has_decoy":false},{"rt":544.9000000003725,"stimulus":"[A] option 1, [L] option 2, [G] neither","key_press":76,"name":"choice","trial_type":"html-keyboard-response","trial_index":219,"time_elapsed":631768,"internal_node_id":"0.0-219.0","subject":"S1C1624","sona":"41787","block":6,"time":"2021-09-17T15:52:10.491Z","response":"2nd","certainty":"high","char":"L","transposition":-2,"order":["swapped","shifted"],"probe_pitches":[-3,2,0,4,-3,4,-3,0,4,9,2,9,-3,9,7,9],"shifted_pitches":[-3,2,0,4,-3,4,-3,-1,4,9,2,9,-3,9,7,9],"swapped_pitches":[-3,2,0,4,-3,4,-3,4,0,9,2,9,-3,9,7,9],"shift_direction":-1,"question_num":191,"has_decoy":false}]