[{"rt":670,"stimulus":"[A] option 1, [L] option 2, [G] neither","key_press":76,"name":"choice","trial_type":"html-keyboard-response","trial_index":10,"time_elapsed":120312,"internal_node_id":"0.0-10.0","subject":"S1C1624","sona":"41787","block":3,"time":"2021-09-17T15:20:12.786Z","response":"2nd","certainty":"high","char":"L","transposition":-1,"order":["swapped","shifted"],"probe_pitches":[11,7,9,2,7,2,4,2,14,11,2,4,9,11,9,11],"shifted_pitches":[11,7,9,2,7,2,4,3,14,11,2,4,9,11,9,11],"swapped_pitches":[11,7,9,2,7,2,4,14,2,11,2,4,9,11,9,11],"shift_direction":1,"question_num":1,"has_decoy":false},{"rt":3368.100000000093,"stimulus":"[A] option 1, [L] option 2, [G] neither","key_press":65,"name":"choice","trial_type":"html-keyboard-response","trial_index":21,"time_elapsed":146214,"internal_node_id":"0.0-21.0","subject":"S1C1624","sona":"41787","block":3,"time":"2021-09-17T15:20:12.786Z","response":"1st","certainty":"high","char":"A","transposition":0,"order":["swapped","shifted"],"probe_pitches":[8,9,2,7,4,7,8,10,13,9,4,13,9,5,2,14],"shifted_pitches":[8,9,2,7,4,7,8,11,13,9,4,13,9,5,2,14],"swapped_pitches":[8,9,2,7,4,7,8,13,10,9,4,13,9,5,2,14],"shift_direction":1,"question_num":11,"has_decoy":false},{"rt":1086.4000000003725,"stimulus":"[A] option 1, [L] option 2, [G] neither","key_press":76,"name":"choice","trial_type":"html-keyboard-response","trial_index":32,"time_elapsed":175995,"internal_node_id":"0.0-32.0","subject":"S1C1624","sona":"41787","block":3,"time":"2021-09-17T15:20:12.786Z","response":"2nd","certainty":"high","char":"L","transposition":2,"order":["swapped","shifted"],"probe_pitches":[5,8,6,5,6,5,3,11,6,8,3,14,5,12,6,14],"shifted_pitches":[5,8,6,5,6,5,3,10,6,8,3,14,5,12,6,14],"swapped_pitches":[5,8,6,5,6,5,3,6,11,8,3,14,5,12,6,14],"shift_direction":-1,"question_num":21,"has_decoy":false},{"rt":543.0999999996275,"stimulus":"[A] option 1, [L] option 2, [G] neither","key_press":65,"name":"choice","trial_type":"html-keyboard-response","trial_index":43,"time_elapsed":202459,"internal_node_id":"0.0-43.0","subject":"S1C1624","sona":"41787","block":3,"time":"2021-09-17T15:20:12.786Z","response":"1st","certainty":"high","char":"A","transposition":2,"order":["shifted","swapped"],"probe_pitches":[9,11,7,9,11,9,2,11,9,4,2,14,7,9,11,7],"shifted_pitches":[9,11,7,9,11,9,2,10,9,4,2,14,7,9,11,7],"swapped_pitches":[9,11,7,9,11,9,2,9,11,4,2,14,7,9,11,7],"shift_direction":-1,"question_num":31,"has_decoy":false},{"rt":650.2000000001863,"stimulus":"[A] option 1, [L] option 2, [G] neither","key_press":76,"name":"choice","trial_type":"html-keyboard-response","trial_index":54,"time_elapsed":232672,"internal_node_id":"0.0-54.0","subject":"S1C1624","sona":"41787","block":3,"time":"2021-09-17T15:20:12.786Z","response":"2nd","certainty":"high","char":"L","transposition":-3,"order":["shifted","swapped"],"probe_pitches":[7,11,8,6,3,10,2,13,7,10,11,10,4,13,2,3],"shifted_pitches":[7,11,8,6,3,10,2,12,7,10,11,10,4,13,2,3],"swapped_pitches":[7,11,8,6,3,10,2,7,13,10,11,10,4,13,2,3],"shift_direction":-1,"question_num":41,"has_decoy":false},{"rt":3015.7999999998137,"stimulus":"[A] option 1, [L] option 2, [G] neither","key_press":76,"name":"choice","trial_type":"html-keyboard-response","trial_index":65,"time_elapsed":260289,"internal_node_id":"0.0-65.0","subject":"S1C1624","sona":"41787","block":3,"time":"2021-09-17T15:20:12.786Z","response":"2nd","certainty":"high","char":"L","transposition":-2,"order":["shifted","swapped"],"probe_pitches":[6,4,2,7,13,7,10,11,7,3,9,3,2,12,14,11],"shifted_pitches":[6,4,2,7,13,7,10,11,8,3,9,3,2,12,14,11],"swapped_pitches":[6,4,2,7,13,7,10,7,11,3,9,3,2,12,14,11],"shift_direction":1,"question_num":51,"has_decoy":false},{"rt":796.3999999999069,"stimulus":"[A] option 1, [L] option 2, [G] neither","key_press":76,"name":"choice","trial_type":"html-keyboard-response","trial_index":76,"time_elapsed":284634,"internal_node_id":"0.0-76.0","subject":"S1C1624","sona":"41787","block":3,"time":"2021-09-17T15:20:12.786Z","response":"2nd","certainty":"high","char":"L","transposition":-2,"order":["shifted","swapped"],"probe_pitches":[4,8,4,12,13,11,10,14,5,4,11,5,11,4,7,2],"shifted_pitches":[4,8,4,12,13,11,10,14,6,4,11,5,11,4,7,2],"swapped_pitches":[4,8,4,12,13,11,10,5,14,4,11,5,11,4,7,2],"shift_direction":1,"question_num":61,"has_decoy":false},{"rt":870.8999999999069,"stimulus":"[A] option 1, [L] option 2, [G] neither","key_press":65,"name":"choice","trial_type":"html-keyboard-response","trial_index":87,"time_elapsed":308900,"internal_node_id":"0.0-87.0","subject":"S1C1624","sona":"41787","block":3,"time":"2021-09-17T15:20:12.786Z","response":"1st","certainty":"high","char":"A","transposition":-2,"order":["swapped","shifted"],"probe_pitches":[2,7,12,4,9,14,12,2,7,14,9,12,2,9,7,9],"shifted_pitches":[2,7,12,4,9,14,12,2,6,14,9,12,2,9,7,9],"swapped_pitches":[2,7,12,4,9,14,12,7,2,14,9,12,2,9,7,9],"shift_direction":-1,"question_num":71,"has_decoy":false},{"rt":1171.1000000000931,"stimulus":"[A] option 1, [L] option 2, [G] neither","key_press":76,"name":"choice","trial_type":"html-keyboard-response","trial_index":98,"time_elapsed":334761,"internal_node_id":"0.0-98.0","subject":"S1C1624","sona":"41787","block":3,"time":"2021-09-17T15:20:12.786Z","response":"2nd","certainty":"high","char":"L","transposition":-3,"order":["swapped","shifted"],"probe_pitches":[8,6,3,6,13,8,13,6,4,9,10,2,4,2,10,14],"shifted_pitches":[8,6,3,6,13,8,13,6,5,9,10,2,4,2,10,14],"swapped_pitches":[8,6,3,6,13,8,13,4,6,9,10,2,4,2,10,14],"shift_direction":1,"question_num":81,"has_decoy":false},{"rt":5231.799999999814,"stimulus":"[A] option 1, [L] option 2, [G] neither","key_press":65,"name":"choice","trial_type":"html-keyboard-response","trial_index":109,"time_elapsed":363802,"internal_node_id":"0.0-109.0","subject":"S1C1624","sona":"41787","block":3,"time":"2021-09-17T15:20:12.786Z","response":"1st","certainty":"high","char":"A","transposition":-2,"order":["shifted","swapped"],"probe_pitches":[14,12,7,14,7,2,7,2,10,14,10,12,5,7,12,14],"shifted_pitches":[14,12,7,14,7,2,7,1,10,14,10,12,5,7,12,14],"swapped_pitches":[14,12,7,14,7,2,7,10,2,14,10,12,5,7,12,14],"shift_direction":-1,"question_num":91,"has_decoy":false},{"rt":536.3999999999069,"stimulus":"[A] option 1, [L] option 2, [G] neither","key_press":65,"name":"choice","trial_type":"html-keyboard-response","trial_index":120,"time_elapsed":389543,"internal_node_id":"0.0-120.0","subject":"S1C1624","sona":"41787","block":3,"time":"2021-09-17T15:20:12.786Z","response":"1st","certainty":"high","char":"A","transposition":-1,"order":["shifted","swapped"],"probe_pitches":[11,5,6,4,3,6,7,10,6,7,3,12,14,12,10,7],"shifted_pitches":[11,5,6,4,3,6,7,9,6,7,3,12,14,12,10,7],"swapped_pitches":[11,5,6,4,3,6,7,6,10,7,3,12,14,12,10,7],"shift_direction":-1,"question_num":101,"has_decoy":false},{"rt":1862.4000000003725,"stimulus":"[A] option 1, [L] option 2, [G] neither","key_press":65,"name":"choice","trial_type":"html-keyboard-response","trial_index":131,"time_elapsed":414505,"internal_node_id":"0.0-131.0","subject":"S1C1624","sona":"41787","block":3,"time":"2021-09-17T15:20:12.786Z","response":"1st","certainty":"high","char":"A","transposition":0,"order":["shifted","swapped"],"probe_pitches":[4,9,14,11,14,9,2,6,14,4,6,11,2,11,14,9],"shifted_pitches":[4,9,14,11,14,9,2,6,15,4,6,11,2,11,14,9],"swapped_pitches":[4,9,14,11,14,9,2,14,6,4,6,11,2,11,14,9],"shift_direction":1,"question_num":111,"has_decoy":false},{"rt":1467,"stimulus":"[A] option 1, [L] option 2, [G] neither","key_press":76,"name":"choice","trial_type":"html-keyboard-response","trial_index":142,"time_elapsed":439522,"internal_node_id":"0.0-142.0","subject":"S1C1624","sona":"41787","block":3,"time":"2021-09-17T15:20:12.786Z","response":"2nd","certainty":"high","char":"L","transposition":-1,"order":["swapped","shifted"],"probe_pitches":[11,12,11,12,11,7,11,6,2,11,10,11,10,3,8,9],"shifted_pitches":[11,12,11,12,11,7,11,6,1,11,10,11,10,3,8,9],"swapped_pitches":[11,12,11,12,11,7,11,2,6,11,10,11,10,3,8,9],"shift_direction":-1,"question_num":121,"has_decoy":false},{"rt":554.1000000000931,"stimulus":"[A] option 1, [L] option 2, [G] neither","key_press":76,"name":"choice","trial_type":"html-keyboard-response","trial_index":153,"time_elapsed":463222,"internal_node_id":"0.0-153.0","subject":"S1C1624","sona":"41787","block":3,"time":"2021-09-17T15:20:12.786Z","response":"2nd","certainty":"high","char":"L","transposition":3,"order":["swapped","shifted"],"probe_pitches":[7,9,12,9,2,12,9,4,12,7,12,14,7,14,2,9],"shifted_pitches":[7,9,12,9,2,12,9,4,13,7,12,14,7,14,2,9],"swapped_pitches":[7,9,12,9,2,12,9,12,4,7,12,14,7,14,2,9],"shift_direction":1,"question_num":131,"has_decoy":false},{"rt":373.79999999981374,"stimulus":"[A] option 1, [L] option 2, [G] neither","key_press":76,"name":"choice","trial_type":"html-keyboard-response","trial_index":164,"time_elapsed":487429,"internal_node_id":"0.0-164.0","subject":"S1C1624","sona":"41787","block":3,"time":"2021-09-17T15:20:12.786Z","response":"2nd","certainty":"high","char":"L","transposition":-1,"order":["swapped","shifted"],"probe_pitches":[11,9,14,11,9,4,2,9,6,4,2,4,11,9,11,4],"shifted_pitches":[11,9,14,11,9,4,2,8,6,4,2,4,11,9,11,4],"swapped_pitches":[11,9,14,11,9,4,2,6,9,4,2,4,11,9,11,4],"shift_direction":-1,"question_num":141,"has_decoy":false},{"rt":1674.6000000000931,"stimulus":"[A] option 1, [L] option 2, [G] neither","key_press":65,"name":"choice","trial_type":"html-keyboard-response","trial_index":175,"time_elapsed":511972,"internal_node_id":"0.0-175.0","subject":"S1C1624","sona":"41787","block":3,"time":"2021-09-17T15:20:12.786Z","response":"1st","certainty":"high","char":"A","transposition":1,"order":["shifted","swapped"],"probe_pitches":[8,11,8,3,12,5,7,3,8,2,11,10,14,9,2,12],"shifted_pitches":[8,11,8,3,12,5,7,4,8,2,11,10,14,9,2,12],"swapped_pitches":[8,11,8,3,12,5,7,8,3,2,11,10,14,9,2,12],"shift_direction":1,"question_num":151,"has_decoy":false},{"rt":1462.1000000000931,"stimulus":"[A] option 1, [L] option 2, [G] neither","key_press":71,"name":"choice","trial_type":"html-keyboard-response","trial_index":186,"time_elapsed":536361,"internal_node_id":"0.0-186.0","subject":"S1C1624","sona":"41787","block":3,"time":"2021-09-17T15:20:12.786Z","response":"neither","certainty":"high","char":"G","transposition":3,"order":["swapped","shifted"],"probe_pitches":[14,11,8,2,5,6,4,14,8,3,13,10,12,4,3,10],"shifted_pitches":[14,11,8,2,5,6,4,14,7,3,13,10,12,4,3,10],"swapped_pitches":[14,11,8,2,5,6,4,8,14,3,13,10,12,4,3,10],"shift_direction":-1,"question_num":161,"has_decoy":false},{"rt":2153.2999999998137,"stimulus":"[A] option 1, [L] option 2, [G] neither","key_press":76,"name":"choice","trial_type":"html-keyboard-response","trial_index":197,"time_elapsed":562433,"internal_node_id":"0.0-197.0","subject":"S1C1624","sona":"41787","block":3,"time":"2021-09-17T15:20:12.786Z","response":"2nd","certainty":"high","char":"L","transposition":-3,"order":["shifted","swapped"],"probe_pitches":[2,7,2,9,2,12,5,9,2,12,5,2,5,9,2,5],"shifted_pitches":[2,7,2,9,2,12,5,9,3,12,5,2,5,9,2,5],"swapped_pitches":[2,7,2,9,2,12,5,2,9,12,5,2,5,9,2,5],"shift_direction":1,"question_num":171,"has_decoy":false},{"rt":429.5,"stimulus":"[A] option 1, [L] option 2, [G] neither","key_press":65,"name":"choice","trial_type":"html-keyboard-response","trial_index":208,"time_elapsed":585188,"internal_node_id":"0.0-208.0","subject":"S1C1624","sona":"41787","block":3,"time":"2021-09-17T15:20:12.786Z","response":"1st","certainty":"high","char":"A","transposition":1,"order":["shifted","swapped"],"probe_pitches":[10,5,10,12,7,14,12,2,5,14,10,14,7,5,7,12],"shifted_pitches":[10,5,10,12,7,14,12,1,5,14,10,14,7,5,7,12],"swapped_pitches":[10,5,10,12,7,14,12,5,2,14,10,14,7,5,7,12],"shift_direction":-1,"question_num":181,"has_decoy":false},{"rt":1132.9000000003725,"stimulus":"[A] option 1, [L] option 2, [G] neither","key_press":71,"name":"choice","trial_type":"html-keyboard-response","trial_index":219,"time_elapsed":608535,"internal_node_id":"0.0-219.0","subject":"S1C1624","sona":"41787","block":3,"time":"2021-09-17T15:20:12.786Z","response":"neither","certainty":"high","char":"G","transposition":-3,"order":["swapped","shifted"],"probe_pitches":[2,7,9,14,5,14,12,14,5,2,14,9,7,2,14,12],"shifted_pitches":[2,7,9,14,5,14,12,14,6,2,14,9,7,2,14,12],"swapped_pitches":[2,7,9,14,5,14,12,5,14,2,14,9,7,2,14,12],"shift_direction":1,"question_num":191,"has_decoy":false}]