[{"rt":2310.7999999523163,"stimulus":"[A] option 1, [L] option 2, [G] neither","key_press":65,"name":"choice","trial_type":"html-keyboard-response","trial_index":10,"time_elapsed":24860,"internal_node_id":"0.0-10.0","subject":"S1C1676","sona":"40397","block":6,"time":"2021-09-28T15:06:59.810Z","response":"1st","certainty":"high","char":"A","transposition":-3,"order":["swapped","shifted"],"probe_pitches":[-2,0,2,-2,1,-2,5,8,2,5,6,2,-2,9,6,0],"shifted_pitches":[-2,0,2,-2,1,-2,5,8,3,5,6,2,-2,9,6,0],"swapped_pitches":[-2,0,2,-2,1,-2,5,2,8,5,6,2,-2,9,6,0],"shift_direction":1,"question_num":1,"has_decoy":false},{"rt":600.7999999523163,"stimulus":"[A] option 1, [L] option 2, [G] neither","key_press":76,"name":"choice","trial_type":"html-keyboard-response","trial_index":21,"time_elapsed":47897,"internal_node_id":"0.0-21.0","subject":"S1C1676","sona":"40397","block":6,"time":"2021-09-28T15:06:59.810Z","response":"2nd","certainty":"high","char":"L","transposition":-1,"order":["swapped","shifted"],"probe_pitches":[2,4,2,8,5,9,2,8,-1,4,9,0,5,2,6,-2],"shifted_pitches":[2,4,2,8,5,9,2,7,-1,4,9,0,5,2,6,-2],"swapped_pitches":[2,4,2,8,5,9,2,-1,8,4,9,0,5,2,6,-2],"shift_direction":-1,"question_num":11,"has_decoy":false},{"rt":1292.6000000238419,"stimulus":"[A] option 1, [L] option 2, [G] neither","key_press":71,"name":"choice","trial_type":"html-keyboard-response","trial_index":32,"time_elapsed":74108,"internal_node_id":"0.0-32.0","subject":"S1C1676","sona":"40397","block":6,"time":"2021-09-28T15:06:59.810Z","response":"neither","certainty":"high","char":"G","transposition":-1,"order":["shifted","swapped"],"probe_pitches":[-3,2,4,6,-3,4,2,9,-3,-1,2,4,6,-1,6,-3],"shifted_pitches":[-3,2,4,6,-3,4,2,10,-3,-1,2,4,6,-1,6,-3],"swapped_pitches":[-3,2,4,6,-3,4,2,-3,9,-1,2,4,6,-1,6,-3],"shift_direction":1,"question_num":21,"has_decoy":false},{"rt":798,"stimulus":"[A] option 1, [L] option 2, [G] neither","key_press":71,"name":"choice","trial_type":"html-keyboard-response","trial_index":43,"time_elapsed":103970,"internal_node_id":"0.0-43.0","subject":"S1C1676","sona":"40397","block":6,"time":"2021-09-28T15:06:59.810Z","response":"neither","certainty":"high","char":"G","transposition":-2,"order":["shifted","swapped"],"probe_pitches":[1,-2,5,-2,2,3,10,3,8,2,6,7,5,-1,0,6],"shifted_pitches":[1,-2,5,-2,2,3,10,4,8,2,6,7,5,-1,0,6],"swapped_pitches":[1,-2,5,-2,2,3,10,8,3,2,6,7,5,-1,0,6],"shift_direction":1,"question_num":31,"has_decoy":false},{"rt":786,"stimulus":"[A] option 1, [L] option 2, [G] neither","key_press":76,"name":"choice","trial_type":"html-keyboard-response","trial_index":54,"time_elapsed":127936,"internal_node_id":"0.0-54.0","subject":"S1C1676","sona":"40397","block":6,"time":"2021-09-28T15:06:59.810Z","response":"2nd","certainty":"high","char":"L","transposition":-1,"order":["swapped","shifted"],"probe_pitches":[3,5,-2,3,1,7,0,7,5,1,7,10,-2,4,1,5],"shifted_pitches":[3,5,-2,3,1,7,0,6,5,1,7,10,-2,4,1,5],"swapped_pitches":[3,5,-2,3,1,7,0,5,7,1,7,10,-2,4,1,5],"shift_direction":-1,"question_num":41,"has_decoy":false},{"rt":1373.1000000238419,"stimulus":"[A] option 1, [L] option 2, [G] neither","key_press":71,"name":"choice","trial_type":"html-keyboard-response","trial_index":65,"time_elapsed":153660,"internal_node_id":"0.0-65.0","subject":"S1C1676","sona":"40397","block":6,"time":"2021-09-28T15:06:59.810Z","response":"neither","certainty":"high","char":"G","transposition":2,"order":["shifted","swapped"],"probe_pitches":[3,7,5,-2,6,3,5,-1,8,0,-1,-2,10,3,-1,4],"shifted_pitches":[3,7,5,-2,6,3,5,-1,9,0,-1,-2,10,3,-1,4],"swapped_pitches":[3,7,5,-2,6,3,5,8,-1,0,-1,-2,10,3,-1,4],"shift_direction":1,"question_num":51,"has_decoy":false},{"rt":2617.7000000476837,"stimulus":"[A] option 1, [L] option 2, [G] neither","key_press":76,"name":"choice","trial_type":"html-keyboard-response","trial_index":76,"time_elapsed":180963,"internal_node_id":"0.0-76.0","subject":"S1C1676","sona":"40397","block":6,"time":"2021-09-28T15:06:59.810Z","response":"2nd","certainty":"high","char":"L","transposition":3,"order":["shifted","swapped"],"probe_pitches":[-2,0,-1,4,5,-2,4,10,1,5,1,10,-2,5,-1,0],"shifted_pitches":[-2,0,-1,4,5,-2,4,10,2,5,1,10,-2,5,-1,0],"swapped_pitches":[-2,0,-1,4,5,-2,4,1,10,5,1,10,-2,5,-1,0],"shift_direction":1,"question_num":61,"has_decoy":false},{"rt":6610.200000047684,"stimulus":"[A] option 1, [L] option 2, [G] neither","key_press":65,"name":"choice","trial_type":"html-keyboard-response","trial_index":87,"time_elapsed":210464,"internal_node_id":"0.0-87.0","subject":"S1C1676","sona":"40397","block":6,"time":"2021-09-28T15:06:59.810Z","response":"1st","certainty":"high","char":"A","transposition":-3,"order":["shifted","swapped"],"probe_pitches":[-3,2,4,-3,2,-1,4,9,7,4,-3,9,2,-1,2,7],"shifted_pitches":[-3,2,4,-3,2,-1,4,9,6,4,-3,9,2,-1,2,7],"swapped_pitches":[-3,2,4,-3,2,-1,4,7,9,4,-3,9,2,-1,2,7],"shift_direction":-1,"question_num":71,"has_decoy":false},{"rt":1107.3999999761581,"stimulus":"[A] option 1, [L] option 2, [G] neither","key_press":71,"name":"choice","trial_type":"html-keyboard-response","trial_index":98,"time_elapsed":239633,"internal_node_id":"0.0-98.0","subject":"S1C1676","sona":"40397","block":6,"time":"2021-09-28T15:06:59.810Z","response":"neither","certainty":"high","char":"G","transposition":0,"order":["swapped","shifted"],"probe_pitches":[-3,2,-1,-3,6,-1,2,-3,6,-1,2,-1,9,4,9,-1],"shifted_pitches":[-3,2,-1,-3,6,-1,2,-3,5,-1,2,-1,9,4,9,-1],"swapped_pitches":[-3,2,-1,-3,6,-1,2,6,-3,-1,2,-1,9,4,9,-1],"shift_direction":-1,"question_num":81,"has_decoy":false},{"rt":2087.2000000476837,"stimulus":"[A] option 1, [L] option 2, [G] neither","key_press":76,"name":"choice","trial_type":"html-keyboard-response","trial_index":109,"time_elapsed":264159,"internal_node_id":"0.0-109.0","subject":"S1C1676","sona":"40397","block":6,"time":"2021-09-28T15:06:59.810Z","response":"2nd","certainty":"high","char":"L","transposition":0,"order":["swapped","shifted"],"probe_pitches":[-1,2,5,7,6,3,8,10,1,4,-2,6,3,4,5,2],"shifted_pitches":[-1,2,5,7,6,3,8,10,0,4,-2,6,3,4,5,2],"swapped_pitches":[-1,2,5,7,6,3,8,1,10,4,-2,6,3,4,5,2],"shift_direction":-1,"question_num":91,"has_decoy":false},{"rt":2652.399999976158,"stimulus":"[A] option 1, [L] option 2, [G] neither","key_press":71,"name":"choice","trial_type":"html-keyboard-response","trial_index":120,"time_elapsed":295172,"internal_node_id":"0.0-120.0","subject":"S1C1676","sona":"40397","block":6,"time":"2021-09-28T15:06:59.810Z","response":"neither","certainty":"high","char":"G","transposition":-3,"order":["shifted","swapped"],"probe_pitches":[-3,0,7,9,2,9,5,0,7,2,9,5,7,0,7,2],"shifted_pitches":[-3,0,7,9,2,9,5,0,8,2,9,5,7,0,7,2],"swapped_pitches":[-3,0,7,9,2,9,5,7,0,2,9,5,7,0,7,2],"shift_direction":1,"question_num":101,"has_decoy":false},{"rt":3124.6999999284744,"stimulus":"[A] option 1, [L] option 2, [G] neither","key_press":65,"name":"choice","trial_type":"html-keyboard-response","trial_index":131,"time_elapsed":321724,"internal_node_id":"0.0-131.0","subject":"S1C1676","sona":"40397","block":6,"time":"2021-09-28T15:06:59.810Z","response":"1st","certainty":"high","char":"A","transposition":-3,"order":["shifted","swapped"],"probe_pitches":[-2,0,4,10,8,0,6,2,3,8,6,-2,2,7,4,-2],"shifted_pitches":[-2,0,4,10,8,0,6,1,3,8,6,-2,2,7,4,-2],"swapped_pitches":[-2,0,4,10,8,0,6,3,2,8,6,-2,2,7,4,-2],"shift_direction":-1,"question_num":111,"has_decoy":false},{"rt":1306.6000000238419,"stimulus":"[A] option 1, [L] option 2, [G] neither","key_press":71,"name":"choice","trial_type":"html-keyboard-response","trial_index":142,"time_elapsed":345420,"internal_node_id":"0.0-142.0","subject":"S1C1676","sona":"40397","block":6,"time":"2021-09-28T15:06:59.810Z","response":"neither","certainty":"high","char":"G","transposition":3,"order":["swapped","shifted"],"probe_pitches":[6,1,-3,1,-3,6,9,-1,6,-3,-1,-3,4,1,6,1],"shifted_pitches":[6,1,-3,1,-3,6,9,0,6,-3,-1,-3,4,1,6,1],"swapped_pitches":[6,1,-3,1,-3,6,9,6,-1,-3,-1,-3,4,1,6,1],"shift_direction":1,"question_num":121,"has_decoy":false},{"rt":1617.5,"stimulus":"[A] option 1, [L] option 2, [G] neither","key_press":76,"name":"choice","trial_type":"html-keyboard-response","trial_index":153,"time_elapsed":374258,"internal_node_id":"0.0-153.0","subject":"S1C1676","sona":"40397","block":6,"time":"2021-09-28T15:06:59.810Z","response":"2nd","certainty":"high","char":"L","transposition":-2,"order":["swapped","shifted"],"probe_pitches":[9,7,2,4,-3,0,7,2,4,9,2,9,0,7,2,4],"shifted_pitches":[9,7,2,4,-3,0,7,2,5,9,2,9,0,7,2,4],"swapped_pitches":[9,7,2,4,-3,0,7,4,2,9,2,9,0,7,2,4],"shift_direction":1,"question_num":131,"has_decoy":false},{"rt":1749.2000000476837,"stimulus":"[A] option 1, [L] option 2, [G] neither","key_press":71,"name":"choice","trial_type":"html-keyboard-response","trial_index":164,"time_elapsed":403505,"internal_node_id":"0.0-164.0","subject":"S1C1676","sona":"40397","block":6,"time":"2021-09-28T15:06:59.810Z","response":"neither","certainty":"high","char":"G","transposition":-2,"order":["swapped","shifted"],"probe_pitches":[1,7,3,10,1,-2,7,-1,6,-2,1,6,10,4,-1,1],"shifted_pitches":[1,7,3,10,1,-2,7,-1,5,-2,1,6,10,4,-1,1],"swapped_pitches":[1,7,3,10,1,-2,7,6,-1,-2,1,6,10,4,-1,1],"shift_direction":-1,"question_num":141,"has_decoy":false},{"rt":2337,"stimulus":"[A] option 1, [L] option 2, [G] neither","key_press":65,"name":"choice","trial_type":"html-keyboard-response","trial_index":175,"time_elapsed":432129,"internal_node_id":"0.0-175.0","subject":"S1C1676","sona":"40397","block":6,"time":"2021-09-28T15:06:59.810Z","response":"1st","certainty":"high","char":"A","transposition":-1,"order":["swapped","shifted"],"probe_pitches":[7,9,2,5,9,5,-3,5,2,7,-3,0,-3,7,2,0],"shifted_pitches":[7,9,2,5,9,5,-3,4,2,7,-3,0,-3,7,2,0],"swapped_pitches":[7,9,2,5,9,5,-3,2,5,7,-3,0,-3,7,2,0],"shift_direction":-1,"question_num":151,"has_decoy":false},{"rt":15443.5,"stimulus":"[A] option 1, [L] option 2, [G] neither","key_press":71,"name":"choice","trial_type":"html-keyboard-response","trial_index":186,"time_elapsed":470702,"internal_node_id":"0.0-186.0","subject":"S1C1676","sona":"40397","block":6,"time":"2021-09-28T15:06:59.810Z","response":"neither","certainty":"high","char":"G","transposition":2,"order":["shifted","swapped"],"probe_pitches":[-3,0,7,9,2,9,0,9,-3,4,7,4,-3,2,4,-3],"shifted_pitches":[-3,0,7,9,2,9,0,9,-4,4,7,4,-3,2,4,-3],"swapped_pitches":[-3,0,7,9,2,9,0,-3,9,4,7,4,-3,2,4,-3],"shift_direction":-1,"question_num":161,"has_decoy":false},{"rt":12862.600000023842,"stimulus":"[A] option 1, [L] option 2, [G] neither","key_press":71,"name":"choice","trial_type":"html-keyboard-response","trial_index":197,"time_elapsed":516746,"internal_node_id":"0.0-197.0","subject":"S1C1676","sona":"40397","block":6,"time":"2021-09-28T15:06:59.810Z","response":"neither","certainty":"high","char":"G","transposition":-2,"order":["swapped","shifted"],"probe_pitches":[2,4,-1,2,-1,4,-1,7,-3,9,-3,-1,-3,-1,2,7],"shifted_pitches":[2,4,-1,2,-1,4,-1,8,-3,9,-3,-1,-3,-1,2,7],"swapped_pitches":[2,4,-1,2,-1,4,-1,-3,7,9,-3,-1,-3,-1,2,7],"shift_direction":1,"question_num":171,"has_decoy":false},{"rt":1661.8000000715256,"stimulus":"[A] option 1, [L] option 2, [G] neither","key_press":76,"name":"choice","trial_type":"html-keyboard-response","trial_index":208,"time_elapsed":541075,"internal_node_id":"0.0-208.0","subject":"S1C1676","sona":"40397","block":6,"time":"2021-09-28T15:06:59.810Z","response":"2nd","certainty":"high","char":"L","transposition":1,"order":["shifted","swapped"],"probe_pitches":[4,3,0,7,-1,9,1,7,4,1,5,-2,7,-2,2,0],"shifted_pitches":[4,3,0,7,-1,9,1,8,4,1,5,-2,7,-2,2,0],"swapped_pitches":[4,3,0,7,-1,9,1,4,7,1,5,-2,7,-2,2,0],"shift_direction":1,"question_num":181,"has_decoy":false},{"rt":1050,"stimulus":"[A] option 1, [L] option 2, [G] neither","key_press":71,"name":"choice","trial_type":"html-keyboard-response","trial_index":219,"time_elapsed":565567,"internal_node_id":"0.0-219.0","subject":"S1C1676","sona":"40397","block":6,"time":"2021-09-28T15:06:59.810Z","response":"neither","certainty":"high","char":"G","transposition":1,"order":["shifted","swapped"],"probe_pitches":[4,9,6,-1,1,4,6,4,-1,9,1,6,1,4,-3,4],"shifted_pitches":[4,9,6,-1,1,4,6,3,-1,9,1,6,1,4,-3,4],"swapped_pitches":[4,9,6,-1,1,4,6,-1,4,9,1,6,1,4,-3,4],"shift_direction":-1,"question_num":191,"has_decoy":false}]