[{"rt":7903.099999904633,"stimulus":"[A] option 1, [L] option 2, [G] neither","key_press":71,"name":"choice","trial_type":"html-keyboard-response","trial_index":10,"time_elapsed":56048,"internal_node_id":"0.0-10.0","subject":"S1C1676","sona":"40397","block":4,"time":"2021-09-28T14:46:22.429Z","response":"neither","certainty":"high","char":"G","transposition":3,"order":["shifted","swapped"],"probe_pitches":[5,0,7,3,4,7,9,0,5,1,7,1,7,11,5,4],"shifted_pitches":[5,0,7,3,4,7,9,0,6,1,7,1,7,11,5,4],"swapped_pitches":[5,0,7,3,4,7,9,5,0,1,7,1,7,11,5,4],"shift_direction":1,"question_num":1,"has_decoy":false},{"rt":7905.700000047684,"stimulus":"[A] option 1, [L] option 2, [G] neither","key_press":65,"name":"choice","trial_type":"html-keyboard-response","trial_index":21,"time_elapsed":86322,"internal_node_id":"0.0-21.0","subject":"S1C1676","sona":"40397","block":4,"time":"2021-09-28T14:46:22.429Z","response":"1st","certainty":"high","char":"A","transposition":0,"order":["shifted","swapped"],"probe_pitches":[0,4,9,2,9,2,7,4,12,2,4,9,4,0,4,12],"shifted_pitches":[0,4,9,2,9,2,7,4,13,2,4,9,4,0,4,12],"swapped_pitches":[0,4,9,2,9,2,7,12,4,2,4,9,4,0,4,12],"shift_direction":1,"question_num":11,"has_decoy":false},{"rt":16259.5,"stimulus":"[A] option 1, [L] option 2, [G] neither","key_press":76,"name":"choice","trial_type":"html-keyboard-response","trial_index":32,"time_elapsed":131080,"internal_node_id":"0.0-32.0","subject":"S1C1676","sona":"40397","block":4,"time":"2021-09-28T14:46:22.429Z","response":"2nd","certainty":"high","char":"L","transposition":-3,"order":["swapped","shifted"],"probe_pitches":[7,2,0,-1,7,0,-1,4,9,1,-1,5,0,4,10,8],"shifted_pitches":[7,2,0,-1,7,0,-1,3,9,1,-1,5,0,4,10,8],"swapped_pitches":[7,2,0,-1,7,0,-1,9,4,1,-1,5,0,4,10,8],"shift_direction":-1,"question_num":21,"has_decoy":false},{"rt":3213.1999999284744,"stimulus":"[A] option 1, [L] option 2, [G] neither","key_press":65,"name":"choice","trial_type":"html-keyboard-response","trial_index":43,"time_elapsed":156984,"internal_node_id":"0.0-43.0","subject":"S1C1676","sona":"40397","block":4,"time":"2021-09-28T14:46:22.429Z","response":"1st","certainty":"high","char":"A","transposition":-3,"order":["swapped","shifted"],"probe_pitches":[5,2,0,2,7,12,7,12,10,5,7,12,10,5,0,10],"shifted_pitches":[5,2,0,2,7,12,7,11,10,5,7,12,10,5,0,10],"swapped_pitches":[5,2,0,2,7,12,7,10,12,5,7,12,10,5,0,10],"shift_direction":-1,"question_num":31,"has_decoy":false},{"rt":3728.600000023842,"stimulus":"[A] option 1, [L] option 2, [G] neither","key_press":71,"name":"choice","trial_type":"html-keyboard-response","trial_index":54,"time_elapsed":184838,"internal_node_id":"0.0-54.0","subject":"S1C1676","sona":"40397","block":4,"time":"2021-09-28T14:46:22.429Z","response":"neither","certainty":"high","char":"G","transposition":1,"order":["shifted","swapped"],"probe_pitches":[12,9,5,2,7,5,9,5,0,7,9,5,2,0,5,0],"shifted_pitches":[12,9,5,2,7,5,9,6,0,7,9,5,2,0,5,0],"swapped_pitches":[12,9,5,2,7,5,9,0,5,7,9,5,2,0,5,0],"shift_direction":1,"question_num":41,"has_decoy":false},{"rt":11162.5,"stimulus":"[A] option 1, [L] option 2, [G] neither","key_press":65,"name":"choice","trial_type":"html-keyboard-response","trial_index":65,"time_elapsed":224388,"internal_node_id":"0.0-65.0","subject":"S1C1676","sona":"40397","block":4,"time":"2021-09-28T14:46:22.429Z","response":"1st","certainty":"high","char":"A","transposition":-1,"order":["swapped","shifted"],"probe_pitches":[3,8,3,8,3,8,0,10,8,12,8,0,3,12,8,5],"shifted_pitches":[3,8,3,8,3,8,0,10,7,12,8,0,3,12,8,5],"swapped_pitches":[3,8,3,8,3,8,0,8,10,12,8,0,3,12,8,5],"shift_direction":-1,"question_num":51,"has_decoy":false},{"rt":4094.8000000715256,"stimulus":"[A] option 1, [L] option 2, [G] neither","key_press":71,"name":"choice","trial_type":"html-keyboard-response","trial_index":76,"time_elapsed":250904,"internal_node_id":"0.0-76.0","subject":"S1C1676","sona":"40397","block":4,"time":"2021-09-28T14:46:22.429Z","response":"neither","certainty":"high","char":"G","transposition":3,"order":["shifted","swapped"],"probe_pitches":[5,10,3,10,3,10,3,5,10,7,5,0,5,3,7,10],"shifted_pitches":[5,10,3,10,3,10,3,5,9,7,5,0,5,3,7,10],"swapped_pitches":[5,10,3,10,3,10,3,10,5,7,5,0,5,3,7,10],"shift_direction":-1,"question_num":61,"has_decoy":false},{"rt":4007.2000000476837,"stimulus":"[A] option 1, [L] option 2, [G] neither","key_press":76,"name":"choice","trial_type":"html-keyboard-response","trial_index":87,"time_elapsed":277664,"internal_node_id":"0.0-87.0","subject":"S1C1676","sona":"40397","block":4,"time":"2021-09-28T14:46:22.429Z","response":"2nd","certainty":"high","char":"L","transposition":-2,"order":["shifted","swapped"],"probe_pitches":[7,9,2,6,9,10,0,2,9,0,10,6,0,10,2,8],"shifted_pitches":[7,9,2,6,9,10,0,1,9,0,10,6,0,10,2,8],"swapped_pitches":[7,9,2,6,9,10,0,9,2,0,10,6,0,10,2,8],"shift_direction":-1,"question_num":71,"has_decoy":false},{"rt":2393.8000000715256,"stimulus":"[A] option 1, [L] option 2, [G] neither","key_press":65,"name":"choice","trial_type":"html-keyboard-response","trial_index":98,"time_elapsed":302973,"internal_node_id":"0.0-98.0","subject":"S1C1676","sona":"40397","block":4,"time":"2021-09-28T14:46:22.429Z","response":"1st","certainty":"high","char":"A","transposition":2,"order":["shifted","swapped"],"probe_pitches":[3,7,0,5,7,0,10,3,7,5,0,12,3,7,10,7],"shifted_pitches":[3,7,0,5,7,0,10,4,7,5,0,12,3,7,10,7],"swapped_pitches":[3,7,0,5,7,0,10,7,3,5,0,12,3,7,10,7],"shift_direction":1,"question_num":81,"has_decoy":false},{"rt":3584.2999999523163,"stimulus":"[A] option 1, [L] option 2, [G] neither","key_press":65,"name":"choice","trial_type":"html-keyboard-response","trial_index":109,"time_elapsed":329342,"internal_node_id":"0.0-109.0","subject":"S1C1676","sona":"40397","block":4,"time":"2021-09-28T14:46:22.429Z","response":"1st","certainty":"high","char":"A","transposition":-1,"order":["swapped","shifted"],"probe_pitches":[8,11,9,3,2,0,6,-1,5,10,9,8,0,11,1,-1],"shifted_pitches":[8,11,9,3,2,0,6,-1,4,10,9,8,0,11,1,-1],"swapped_pitches":[8,11,9,3,2,0,6,5,-1,10,9,8,0,11,1,-1],"shift_direction":-1,"question_num":91,"has_decoy":false},{"rt":4871.699999928474,"stimulus":"[A] option 1, [L] option 2, [G] neither","key_press":76,"name":"choice","trial_type":"html-keyboard-response","trial_index":120,"time_elapsed":356634,"internal_node_id":"0.0-120.0","subject":"S1C1676","sona":"40397","block":4,"time":"2021-09-28T14:46:22.429Z","response":"2nd","certainty":"high","char":"L","transposition":-3,"order":["swapped","shifted"],"probe_pitches":[0,-1,4,6,1,3,4,7,-1,3,0,5,6,9,-1,0],"shifted_pitches":[0,-1,4,6,1,3,4,8,-1,3,0,5,6,9,-1,0],"swapped_pitches":[0,-1,4,6,1,3,4,-1,7,3,0,5,6,9,-1,0],"shift_direction":1,"question_num":101,"has_decoy":false},{"rt":2994.600000023842,"stimulus":"[A] option 1, [L] option 2, [G] neither","key_press":71,"name":"choice","trial_type":"html-keyboard-response","trial_index":131,"time_elapsed":394175,"internal_node_id":"0.0-131.0","subject":"S1C1676","sona":"40397","block":4,"time":"2021-09-28T14:46:22.429Z","response":"neither","certainty":"high","char":"G","transposition":-2,"order":["swapped","shifted"],"probe_pitches":[5,9,2,9,2,7,12,2,5,0,5,7,2,5,0,5],"shifted_pitches":[5,9,2,9,2,7,12,1,5,0,5,7,2,5,0,5],"swapped_pitches":[5,9,2,9,2,7,12,5,2,0,5,7,2,5,0,5],"shift_direction":-1,"question_num":111,"has_decoy":false},{"rt":23699.399999976158,"stimulus":"[A] option 1, [L] option 2, [G] neither","key_press":71,"name":"choice","trial_type":"html-keyboard-response","trial_index":142,"time_elapsed":440314,"internal_node_id":"0.0-142.0","subject":"S1C1676","sona":"40397","block":4,"time":"2021-09-28T14:46:22.429Z","response":"neither","certainty":"high","char":"G","transposition":1,"order":["swapped","shifted"],"probe_pitches":[10,8,4,6,0,7,3,4,10,6,10,-1,4,3,11,2],"shifted_pitches":[10,8,4,6,0,7,3,4,9,6,10,-1,4,3,11,2],"swapped_pitches":[10,8,4,6,0,7,3,10,4,6,10,-1,4,3,11,2],"shift_direction":-1,"question_num":121,"has_decoy":false},{"rt":5016.199999928474,"stimulus":"[A] option 1, [L] option 2, [G] neither","key_press":71,"name":"choice","trial_type":"html-keyboard-response","trial_index":153,"time_elapsed":467631,"internal_node_id":"0.0-153.0","subject":"S1C1676","sona":"40397","block":4,"time":"2021-09-28T14:46:22.429Z","response":"neither","certainty":"high","char":"G","transposition":-1,"order":["swapped","shifted"],"probe_pitches":[12,10,8,0,5,8,3,8,12,10,12,5,12,10,0,10],"shifted_pitches":[12,10,8,0,5,8,3,8,13,10,12,5,12,10,0,10],"swapped_pitches":[12,10,8,0,5,8,3,12,8,10,12,5,12,10,0,10],"shift_direction":1,"question_num":131,"has_decoy":false},{"rt":11399.100000023842,"stimulus":"[A] option 1, [L] option 2, [G] neither","key_press":76,"name":"choice","trial_type":"html-keyboard-response","trial_index":164,"time_elapsed":501677,"internal_node_id":"0.0-164.0","subject":"S1C1676","sona":"40397","block":4,"time":"2021-09-28T14:46:22.429Z","response":"2nd","certainty":"high","char":"L","transposition":2,"order":["shifted","swapped"],"probe_pitches":[8,10,5,6,-1,2,11,10,6,11,2,4,8,0,5,4],"shifted_pitches":[8,10,5,6,-1,2,11,10,7,11,2,4,8,0,5,4],"swapped_pitches":[8,10,5,6,-1,2,11,6,10,11,2,4,8,0,5,4],"shift_direction":1,"question_num":141,"has_decoy":false},{"rt":5370,"stimulus":"[A] option 1, [L] option 2, [G] neither","key_press":65,"name":"choice","trial_type":"html-keyboard-response","trial_index":175,"time_elapsed":541146,"internal_node_id":"0.0-175.0","subject":"S1C1676","sona":"40397","block":4,"time":"2021-09-28T14:46:22.429Z","response":"1st","certainty":"high","char":"A","transposition":-3,"order":["shifted","swapped"],"probe_pitches":[5,7,12,10,12,10,2,12,7,2,7,5,12,0,12,2],"shifted_pitches":[5,7,12,10,12,10,2,13,7,2,7,5,12,0,12,2],"swapped_pitches":[5,7,12,10,12,10,2,7,12,2,7,5,12,0,12,2],"shift_direction":1,"question_num":151,"has_decoy":false},{"rt":2727.5,"stimulus":"[A] option 1, [L] option 2, [G] neither","key_press":71,"name":"choice","trial_type":"html-keyboard-response","trial_index":186,"time_elapsed":566370,"internal_node_id":"0.0-186.0","subject":"S1C1676","sona":"40397","block":4,"time":"2021-09-28T14:46:22.429Z","response":"neither","certainty":"high","char":"G","transposition":-2,"order":["swapped","shifted"],"probe_pitches":[4,7,0,2,9,7,9,0,12,2,7,4,7,12,7,9],"shifted_pitches":[4,7,0,2,9,7,9,0,11,2,7,4,7,12,7,9],"swapped_pitches":[4,7,0,2,9,7,9,12,0,2,7,4,7,12,7,9],"shift_direction":-1,"question_num":161,"has_decoy":false},{"rt":2198.1999999284744,"stimulus":"[A] option 1, [L] option 2, [G] neither","key_press":76,"name":"choice","trial_type":"html-keyboard-response","trial_index":197,"time_elapsed":591739,"internal_node_id":"0.0-197.0","subject":"S1C1676","sona":"40397","block":4,"time":"2021-09-28T14:46:22.429Z","response":"2nd","certainty":"high","char":"L","transposition":-1,"order":["shifted","swapped"],"probe_pitches":[4,8,7,9,0,7,3,4,7,1,6,9,-1,1,10,3],"shifted_pitches":[4,8,7,9,0,7,3,5,7,1,6,9,-1,1,10,3],"swapped_pitches":[4,8,7,9,0,7,3,7,4,1,6,9,-1,1,10,3],"shift_direction":1,"question_num":171,"has_decoy":false},{"rt":2188.399999976158,"stimulus":"[A] option 1, [L] option 2, [G] neither","key_press":71,"name":"choice","trial_type":"html-keyboard-response","trial_index":208,"time_elapsed":616710,"internal_node_id":"0.0-208.0","subject":"S1C1676","sona":"40397","block":4,"time":"2021-09-28T14:46:22.429Z","response":"neither","certainty":"high","char":"G","transposition":0,"order":["swapped","shifted"],"probe_pitches":[0,1,8,3,1,7,-1,1,3,6,5,6,10,9,5,0],"shifted_pitches":[0,1,8,3,1,7,-1,1,2,6,5,6,10,9,5,0],"swapped_pitches":[0,1,8,3,1,7,-1,3,1,6,5,6,10,9,5,0],"shift_direction":-1,"question_num":181,"has_decoy":false},{"rt":1151.8999999761581,"stimulus":"[A] option 1, [L] option 2, [G] neither","key_press":71,"name":"choice","trial_type":"html-keyboard-response","trial_index":219,"time_elapsed":641183,"internal_node_id":"0.0-219.0","subject":"S1C1676","sona":"40397","block":4,"time":"2021-09-28T14:46:22.429Z","response":"neither","certainty":"high","char":"G","transposition":-2,"order":["shifted","swapped"],"probe_pitches":[5,9,11,3,-1,6,0,9,-1,4,3,7,-1,8,2,3],"shifted_pitches":[5,9,11,3,-1,6,0,10,-1,4,3,7,-1,8,2,3],"swapped_pitches":[5,9,11,3,-1,6,0,-1,9,4,3,7,-1,8,2,3],"shift_direction":1,"question_num":191,"has_decoy":false}]