[{"rt":7219.399999976158,"stimulus":"[A] option 1, [L] option 2, [G] neither","key_press":76,"name":"choice","trial_type":"html-keyboard-response","trial_index":15,"time_elapsed":78460,"internal_node_id":"0.0-15.0","response":"2nd","certainty":"high","char":"L","transposition":3,"order":["shifted","swapped"],"probe_pitches":[7,6,3,11,9,8,0,12,3,1,5,7,10,6,0,11],"shifted_pitches":[7,6,3,11,9,8,0,12,2,1,5,7,10,6,0,11],"swapped_pitches":[7,6,3,11,9,8,0,3,12,1,5,7,10,6,0,11],"shift_direction":-1,"question_num":1,"has_decoy":false,"subject":"S1C1676","sona":"40397","block":1,"time":"2021-09-28T14:05:08.397Z"},{"rt":3904.2000000476837,"stimulus":"[A] option 1, [L] option 2, [G] neither","key_press":71,"name":"choice","trial_type":"html-keyboard-response","trial_index":26,"time_elapsed":107240,"internal_node_id":"0.0-26.0","response":"neither","certainty":"high","char":"G","transposition":-1,"order":["shifted","swapped"],"probe_pitches":[11,7,2,8,2,1,2,4,9,8,12,11,9,8,11,12],"shifted_pitches":[11,7,2,8,2,1,2,5,9,8,12,11,9,8,11,12],"swapped_pitches":[11,7,2,8,2,1,2,9,4,8,12,11,9,8,11,12],"shift_direction":1,"question_num":11,"has_decoy":false,"subject":"S1C1676","sona":"40397","block":1,"time":"2021-09-28T14:05:08.397Z"},{"rt":1018.6999999284744,"stimulus":"[A] option 1, [L] option 2, [G] neither","key_press":71,"name":"choice","trial_type":"html-keyboard-response","trial_index":37,"time_elapsed":131762,"internal_node_id":"0.0-37.0","response":"neither","certainty":"high","char":"G","transposition":-1,"order":["swapped","shifted"],"probe_pitches":[11,10,11,12,9,10,11,10,4,11,8,5,11,12,7,5],"shifted_pitches":[11,10,11,12,9,10,11,10,3,11,8,5,11,12,7,5],"swapped_pitches":[11,10,11,12,9,10,11,4,10,11,8,5,11,12,7,5],"shift_direction":-1,"question_num":21,"has_decoy":false,"subject":"S1C1676","sona":"40397","block":1,"time":"2021-09-28T14:05:08.397Z"},{"rt":1536.6999999284744,"stimulus":"[A] option 1, [L] option 2, [G] neither","key_press":71,"name":"choice","trial_type":"html-keyboard-response","trial_index":48,"time_elapsed":158120,"internal_node_id":"0.0-48.0","response":"neither","certainty":"high","char":"G","transposition":1,"order":["shifted","swapped"],"probe_pitches":[1,3,10,13,8,13,8,13,10,6,3,1,3,8,10,3],"shifted_pitches":[1,3,10,13,8,13,8,12,10,6,3,1,3,8,10,3],"swapped_pitches":[1,3,10,13,8,13,8,10,13,6,3,1,3,8,10,3],"shift_direction":-1,"question_num":31,"has_decoy":false,"subject":"S1C1676","sona":"40397","block":1,"time":"2021-09-28T14:05:08.397Z"},{"rt":5836.100000023842,"stimulus":"[A] option 1, [L] option 2, [G] neither","key_press":76,"name":"choice","trial_type":"html-keyboard-response","trial_index":59,"time_elapsed":187646,"internal_node_id":"0.0-59.0","response":"2nd","certainty":"high","char":"L","transposition":-1,"order":["swapped","shifted"],"probe_pitches":[13,8,11,4,8,4,13,4,8,11,4,6,8,11,4,11],"shifted_pitches":[13,8,11,4,8,4,13,4,7,11,4,6,8,11,4,11],"swapped_pitches":[13,8,11,4,8,4,13,8,4,11,4,6,8,11,4,11],"shift_direction":-1,"question_num":41,"has_decoy":false,"subject":"S1C1676","sona":"40397","block":1,"time":"2021-09-28T14:05:08.397Z"},{"rt":3834.6999999284744,"stimulus":"[A] option 1, [L] option 2, [G] neither","key_press":65,"name":"choice","trial_type":"html-keyboard-response","trial_index":70,"time_elapsed":215048,"internal_node_id":"0.0-70.0","response":"1st","certainty":"high","char":"A","transposition":-2,"order":["swapped","shifted"],"probe_pitches":[1,5,10,5,1,3,13,5,10,3,13,5,8,5,3,1],"shifted_pitches":[1,5,10,5,1,3,13,5,9,3,13,5,8,5,3,1],"swapped_pitches":[1,5,10,5,1,3,13,10,5,3,13,5,8,5,3,1],"shift_direction":-1,"question_num":51,"has_decoy":false,"subject":"S1C1676","sona":"40397","block":1,"time":"2021-09-28T14:05:08.397Z"},{"rt":13296.399999976158,"stimulus":"[A] option 1, [L] option 2, [G] neither","key_press":65,"name":"choice","trial_type":"html-keyboard-response","trial_index":81,"time_elapsed":256897,"internal_node_id":"0.0-81.0","response":"1st","certainty":"high","char":"A","transposition":2,"order":["shifted","swapped"],"probe_pitches":[7,2,3,9,7,9,7,5,9,2,9,6,7,4,5,7],"shifted_pitches":[7,2,3,9,7,9,7,5,10,2,9,6,7,4,5,7],"swapped_pitches":[7,2,3,9,7,9,7,9,5,2,9,6,7,4,5,7],"shift_direction":1,"question_num":61,"has_decoy":false,"subject":"S1C1676","sona":"40397","block":1,"time":"2021-09-28T14:05:08.397Z"},{"rt":4878.199999928474,"stimulus":"[A] option 1, [L] option 2, [G] neither","key_press":71,"name":"choice","trial_type":"html-keyboard-response","trial_index":92,"time_elapsed":284980,"internal_node_id":"0.0-92.0","response":"neither","certainty":"high","char":"G","transposition":-2,"order":["shifted","swapped"],"probe_pitches":[11,12,7,10,5,8,0,5,8,7,3,9,10,4,0,8],"shifted_pitches":[11,12,7,10,5,8,0,6,8,7,3,9,10,4,0,8],"swapped_pitches":[11,12,7,10,5,8,0,8,5,7,3,9,10,4,0,8],"shift_direction":1,"question_num":71,"has_decoy":false,"subject":"S1C1676","sona":"40397","block":1,"time":"2021-09-28T14:05:08.397Z"},{"rt":7913.600000023842,"stimulus":"[A] option 1, [L] option 2, [G] neither","key_press":76,"name":"choice","trial_type":"html-keyboard-response","trial_index":103,"time_elapsed":318287,"internal_node_id":"0.0-103.0","response":"2nd","certainty":"high","char":"L","transposition":1,"order":["shifted","swapped"],"probe_pitches":[8,12,10,3,7,12,10,9,0,8,6,4,6,4,0,2],"shifted_pitches":[8,12,10,3,7,12,10,9,-1,8,6,4,6,4,0,2],"swapped_pitches":[8,12,10,3,7,12,10,0,9,8,6,4,6,4,0,2],"shift_direction":-1,"question_num":81,"has_decoy":false,"subject":"S1C1676","sona":"40397","block":1,"time":"2021-09-28T14:05:08.397Z"},{"rt":5827.200000047684,"stimulus":"[A] option 1, [L] option 2, [G] neither","key_press":71,"name":"choice","trial_type":"html-keyboard-response","trial_index":114,"time_elapsed":347901,"internal_node_id":"0.0-114.0","response":"neither","certainty":"high","char":"G","transposition":-3,"order":["shifted","swapped"],"probe_pitches":[13,9,11,4,11,1,11,13,9,4,13,4,6,4,11,6],"shifted_pitches":[13,9,11,4,11,1,11,13,10,4,13,4,6,4,11,6],"swapped_pitches":[13,9,11,4,11,1,11,9,13,4,13,4,6,4,11,6],"shift_direction":1,"question_num":91,"has_decoy":false,"subject":"S1C1676","sona":"40397","block":1,"time":"2021-09-28T14:05:08.397Z"},{"rt":4363.799999952316,"stimulus":"[A] option 1, [L] option 2, [G] neither","key_press":76,"name":"choice","trial_type":"html-keyboard-response","trial_index":125,"time_elapsed":377429,"internal_node_id":"0.0-125.0","response":"2nd","certainty":"high","char":"L","transposition":-3,"order":["swapped","shifted"],"probe_pitches":[7,1,8,5,7,10,12,8,4,7,1,4,10,2,4,2],"shifted_pitches":[7,1,8,5,7,10,12,9,4,7,1,4,10,2,4,2],"swapped_pitches":[7,1,8,5,7,10,12,4,8,7,1,4,10,2,4,2],"shift_direction":1,"question_num":101,"has_decoy":false,"subject":"S1C1676","sona":"40397","block":1,"time":"2021-09-28T14:05:08.397Z"},{"rt":5484.299999952316,"stimulus":"[A] option 1, [L] option 2, [G] neither","key_press":76,"name":"choice","trial_type":"html-keyboard-response","trial_index":136,"time_elapsed":408033,"internal_node_id":"0.0-136.0","response":"2nd","certainty":"high","char":"L","transposition":-3,"order":["swapped","shifted"],"probe_pitches":[3,6,8,11,3,1,6,11,1,6,11,8,1,6,1,11],"shifted_pitches":[3,6,8,11,3,1,6,11,0,6,11,8,1,6,1,11],"swapped_pitches":[3,6,8,11,3,1,6,1,11,6,11,8,1,6,1,11],"shift_direction":-1,"question_num":111,"has_decoy":false,"subject":"S1C1676","sona":"40397","block":1,"time":"2021-09-28T14:05:08.397Z"},{"rt":14733.5,"stimulus":"[A] option 1, [L] option 2, [G] neither","key_press":65,"name":"choice","trial_type":"html-keyboard-response","trial_index":147,"time_elapsed":445900,"internal_node_id":"0.0-147.0","response":"1st","certainty":"high","char":"A","transposition":0,"order":["swapped","shifted"],"probe_pitches":[6,3,8,3,1,11,1,6,3,11,1,3,1,8,1,6],"shifted_pitches":[6,3,8,3,1,11,1,7,3,11,1,3,1,8,1,6],"swapped_pitches":[6,3,8,3,1,11,1,3,6,11,1,3,1,8,1,6],"shift_direction":1,"question_num":121,"has_decoy":false,"subject":"S1C1676","sona":"40397","block":1,"time":"2021-09-28T14:05:08.397Z"},{"rt":9044.299999952316,"stimulus":"[A] option 1, [L] option 2, [G] neither","key_press":76,"name":"choice","trial_type":"html-keyboard-response","trial_index":158,"time_elapsed":481623,"internal_node_id":"0.0-158.0","response":"2nd","certainty":"high","char":"L","transposition":-3,"order":["swapped","shifted"],"probe_pitches":[4,9,10,4,6,9,10,9,8,0,8,1,9,3,9,8],"shifted_pitches":[4,9,10,4,6,9,10,9,7,0,8,1,9,3,9,8],"swapped_pitches":[4,9,10,4,6,9,10,8,9,0,8,1,9,3,9,8],"shift_direction":-1,"question_num":131,"has_decoy":false,"subject":"S1C1676","sona":"40397","block":1,"time":"2021-09-28T14:05:08.397Z"},{"rt":8804.700000047684,"stimulus":"[A] option 1, [L] option 2, [G] neither","key_press":65,"name":"choice","trial_type":"html-keyboard-response","trial_index":169,"time_elapsed":512876,"internal_node_id":"0.0-169.0","response":"1st","certainty":"high","char":"A","transposition":-2,"order":["shifted","swapped"],"probe_pitches":[1,6,11,6,1,4,6,13,4,9,6,11,1,11,1,13],"shifted_pitches":[1,6,11,6,1,4,6,14,4,9,6,11,1,11,1,13],"swapped_pitches":[1,6,11,6,1,4,6,4,13,9,6,11,1,11,1,13],"shift_direction":1,"question_num":141,"has_decoy":false,"subject":"S1C1676","sona":"40397","block":1,"time":"2021-09-28T14:05:08.397Z"},{"rt":8539.100000023842,"stimulus":"[A] option 1, [L] option 2, [G] neither","key_press":65,"name":"choice","trial_type":"html-keyboard-response","trial_index":180,"time_elapsed":543970,"internal_node_id":"0.0-180.0","response":"1st","certainty":"high","char":"A","transposition":2,"order":["shifted","swapped"],"probe_pitches":[6,11,4,8,1,4,6,1,8,4,13,1,4,8,11,6],"shifted_pitches":[6,11,4,8,1,4,6,2,8,4,13,1,4,8,11,6],"swapped_pitches":[6,11,4,8,1,4,6,8,1,4,13,1,4,8,11,6],"shift_direction":1,"question_num":151,"has_decoy":false,"subject":"S1C1676","sona":"40397","block":1,"time":"2021-09-28T14:05:08.397Z"},{"rt":10752.5,"stimulus":"[A] option 1, [L] option 2, [G] neither","key_press":76,"name":"choice","trial_type":"html-keyboard-response","trial_index":191,"time_elapsed":577378,"internal_node_id":"0.0-191.0","response":"2nd","certainty":"high","char":"L","transposition":-2,"order":["swapped","shifted"],"probe_pitches":[1,2,4,5,6,0,10,7,12,2,3,5,1,0,10,12],"shifted_pitches":[1,2,4,5,6,0,10,8,12,2,3,5,1,0,10,12],"swapped_pitches":[1,2,4,5,6,0,10,12,7,2,3,5,1,0,10,12],"shift_direction":1,"question_num":161,"has_decoy":false,"subject":"S1C1676","sona":"40397","block":1,"time":"2021-09-28T14:05:08.397Z"},{"rt":1195.6999999284744,"stimulus":"[A] option 1, [L] option 2, [G] neither","key_press":71,"name":"choice","trial_type":"html-keyboard-response","trial_index":202,"time_elapsed":603954,"internal_node_id":"0.0-202.0","response":"neither","certainty":"high","char":"G","transposition":-1,"order":["shifted","swapped"],"probe_pitches":[1,3,8,6,13,3,8,13,6,8,13,1,6,10,3,6],"shifted_pitches":[1,3,8,6,13,3,8,13,7,8,13,1,6,10,3,6],"swapped_pitches":[1,3,8,6,13,3,8,6,13,8,13,1,6,10,3,6],"shift_direction":1,"question_num":171,"has_decoy":false,"subject":"S1C1676","sona":"40397","block":1,"time":"2021-09-28T14:05:08.397Z"},{"rt":12075.700000047684,"stimulus":"[A] option 1, [L] option 2, [G] neither","key_press":71,"name":"choice","trial_type":"html-keyboard-response","trial_index":213,"time_elapsed":648983,"internal_node_id":"0.0-213.0","response":"neither","certainty":"high","char":"G","transposition":3,"order":["swapped","shifted"],"probe_pitches":[8,3,1,5,3,10,13,8,10,5,3,8,1,13,1,3],"shifted_pitches":[8,3,1,5,3,10,13,7,10,5,3,8,1,13,1,3],"swapped_pitches":[8,3,1,5,3,10,13,10,8,5,3,8,1,13,1,3],"shift_direction":-1,"question_num":181,"has_decoy":false,"subject":"S1C1676","sona":"40397","block":1,"time":"2021-09-28T14:05:08.397Z"},{"rt":20353.899999976158,"stimulus":"[A] option 1, [L] option 2, [G] neither","key_press":76,"name":"choice","trial_type":"html-keyboard-response","trial_index":224,"time_elapsed":708922,"internal_node_id":"0.0-224.0","response":"2nd","certainty":"high","char":"L","transposition":0,"order":["swapped","shifted"],"probe_pitches":[5,11,7,11,3,1,6,5,7,2,0,1,12,7,10,5],"shifted_pitches":[5,11,7,11,3,1,6,4,7,2,0,1,12,7,10,5],"swapped_pitches":[5,11,7,11,3,1,6,7,5,2,0,1,12,7,10,5],"shift_direction":-1,"question_num":191,"has_decoy":false,"subject":"S1C1676","sona":"40397","block":1,"time":"2021-09-28T14:05:08.397Z"}]