[{"rt":35406.699999928474,"stimulus":"[A] option 1, [L] option 2, [G] neither","key_press":71,"name":"choice","trial_type":"html-keyboard-response","trial_index":10,"time_elapsed":59116,"internal_node_id":"0.0-10.0","subject":"S1C1676","sona":"40397","block":3,"time":"2021-09-28T14:35:37.304Z","response":"neither","certainty":"high","char":"G","transposition":-1,"order":["swapped","shifted"],"probe_pitches":[12,13,11,5,10,3,10,9,6,14,3,7,3,9,3,9],"shifted_pitches":[12,13,11,5,10,3,10,8,6,14,3,7,3,9,3,9],"swapped_pitches":[12,13,11,5,10,3,10,6,9,14,3,7,3,9,3,9],"shift_direction":-1,"question_num":1,"has_decoy":false},{"rt":49519.299999952316,"stimulus":"[A] option 1, [L] option 2, [G] neither","key_press":76,"name":"choice","trial_type":"html-keyboard-response","trial_index":21,"time_elapsed":131178,"internal_node_id":"0.0-21.0","subject":"S1C1676","sona":"40397","block":3,"time":"2021-09-28T14:35:37.304Z","response":"2nd","certainty":"high","char":"L","transposition":3,"order":["swapped","shifted"],"probe_pitches":[6,1,8,6,-2,6,-2,8,1,-2,10,1,-2,1,3,6],"shifted_pitches":[6,1,8,6,-2,6,-2,8,0,-2,10,1,-2,1,3,6],"swapped_pitches":[6,1,8,6,-2,6,-2,1,8,-2,10,1,-2,1,3,6],"shift_direction":-1,"question_num":11,"has_decoy":false},{"rt":25700.5,"stimulus":"[A] option 1, [L] option 2, [G] neither","key_press":71,"name":"choice","trial_type":"html-keyboard-response","trial_index":32,"time_elapsed":179514,"internal_node_id":"0.0-32.0","subject":"S1C1676","sona":"40397","block":3,"time":"2021-09-28T14:35:37.304Z","response":"neither","certainty":"high","char":"G","transposition":0,"order":["swapped","shifted"],"probe_pitches":[-2,2,5,0,7,2,10,2,5,-2,10,0,2,10,-2,2],"shifted_pitches":[-2,2,5,0,7,2,10,3,5,-2,10,0,2,10,-2,2],"swapped_pitches":[-2,2,5,0,7,2,10,5,2,-2,10,0,2,10,-2,2],"shift_direction":1,"question_num":21,"has_decoy":false},{"rt":7343.699999928474,"stimulus":"[A] option 1, [L] option 2, [G] neither","key_press":76,"name":"choice","trial_type":"html-keyboard-response","trial_index":43,"time_elapsed":209388,"internal_node_id":"0.0-43.0","subject":"S1C1676","sona":"40397","block":3,"time":"2021-09-28T14:35:37.304Z","response":"2nd","certainty":"high","char":"L","transposition":1,"order":["swapped","shifted"],"probe_pitches":[0,3,10,3,10,7,0,-2,7,10,7,-2,7,0,-2,5],"shifted_pitches":[0,3,10,3,10,7,0,-1,7,10,7,-2,7,0,-2,5],"swapped_pitches":[0,3,10,3,10,7,0,7,-2,10,7,-2,7,0,-2,5],"shift_direction":1,"question_num":31,"has_decoy":false},{"rt":13784,"stimulus":"[A] option 1, [L] option 2, [G] neither","key_press":65,"name":"choice","trial_type":"html-keyboard-response","trial_index":54,"time_elapsed":248302,"internal_node_id":"0.0-54.0","subject":"S1C1676","sona":"40397","block":3,"time":"2021-09-28T14:35:37.304Z","response":"1st","certainty":"high","char":"A","transposition":-2,"order":["swapped","shifted"],"probe_pitches":[8,9,8,9,8,15,10,11,5,9,14,12,15,13,12,10],"shifted_pitches":[8,9,8,9,8,15,10,11,6,9,14,12,15,13,12,10],"swapped_pitches":[8,9,8,9,8,15,10,5,11,9,14,12,15,13,12,10],"shift_direction":1,"question_num":41,"has_decoy":false},{"rt":12295.799999952316,"stimulus":"[A] option 1, [L] option 2, [G] neither","key_press":71,"name":"choice","trial_type":"html-keyboard-response","trial_index":65,"time_elapsed":283016,"internal_node_id":"0.0-65.0","subject":"S1C1676","sona":"40397","block":3,"time":"2021-09-28T14:35:37.304Z","response":"neither","certainty":"high","char":"G","transposition":-3,"order":["shifted","swapped"],"probe_pitches":[4,3,5,12,4,14,4,9,8,6,9,5,12,14,7,3],"shifted_pitches":[4,3,5,12,4,14,4,10,8,6,9,5,12,14,7,3],"swapped_pitches":[4,3,5,12,4,14,4,8,9,6,9,5,12,14,7,3],"shift_direction":1,"question_num":51,"has_decoy":false},{"rt":58264.90000009537,"stimulus":"[A] option 1, [L] option 2, [G] neither","key_press":76,"name":"choice","trial_type":"html-keyboard-response","trial_index":76,"time_elapsed":363691,"internal_node_id":"0.0-76.0","subject":"S1C1676","sona":"40397","block":3,"time":"2021-09-28T14:35:37.304Z","response":"2nd","certainty":"high","char":"L","transposition":3,"order":["swapped","shifted"],"probe_pitches":[7,12,15,7,10,12,10,9,12,4,9,4,15,10,5,10],"shifted_pitches":[7,12,15,7,10,12,10,9,11,4,9,4,15,10,5,10],"swapped_pitches":[7,12,15,7,10,12,10,12,9,4,9,4,15,10,5,10],"shift_direction":-1,"question_num":61,"has_decoy":false},{"rt":32358.600000023842,"stimulus":"[A] option 1, [L] option 2, [G] neither","key_press":65,"name":"choice","trial_type":"html-keyboard-response","trial_index":87,"time_elapsed":418486,"internal_node_id":"0.0-87.0","subject":"S1C1676","sona":"40397","block":3,"time":"2021-09-28T14:35:37.304Z","response":"1st","certainty":"high","char":"A","transposition":-3,"order":["shifted","swapped"],"probe_pitches":[3,6,10,8,3,10,1,-2,8,10,-2,8,10,3,1,-2],"shifted_pitches":[3,6,10,8,3,10,1,-2,9,10,-2,8,10,3,1,-2],"swapped_pitches":[3,6,10,8,3,10,1,8,-2,10,-2,8,10,3,1,-2],"shift_direction":1,"question_num":71,"has_decoy":false},{"rt":63039.40000009537,"stimulus":"[A] option 1, [L] option 2, [G] neither","key_press":71,"name":"choice","trial_type":"html-keyboard-response","trial_index":98,"time_elapsed":503920,"internal_node_id":"0.0-98.0","subject":"S1C1676","sona":"40397","block":3,"time":"2021-09-28T14:35:37.304Z","response":"neither","certainty":"high","char":"G","transposition":1,"order":["shifted","swapped"],"probe_pitches":[3,4,8,7,10,14,11,6,15,4,14,8,14,11,13,4],"shifted_pitches":[3,4,8,7,10,14,11,5,15,4,14,8,14,11,13,4],"swapped_pitches":[3,4,8,7,10,14,11,15,6,4,14,8,14,11,13,4],"shift_direction":-1,"question_num":81,"has_decoy":false},{"rt":12204.700000047684,"stimulus":"[A] option 1, [L] option 2, [G] neither","key_press":76,"name":"choice","trial_type":"html-keyboard-response","trial_index":109,"time_elapsed":539370,"internal_node_id":"0.0-109.0","subject":"S1C1676","sona":"40397","block":3,"time":"2021-09-28T14:35:37.304Z","response":"2nd","certainty":"high","char":"L","transposition":-2,"order":["swapped","shifted"],"probe_pitches":[1,5,3,-2,5,1,10,5,1,8,3,5,3,5,-2,8],"shifted_pitches":[1,5,3,-2,5,1,10,5,0,8,3,5,3,5,-2,8],"swapped_pitches":[1,5,3,-2,5,1,10,1,5,8,3,5,3,5,-2,8],"shift_direction":-1,"question_num":91,"has_decoy":false},{"rt":53012.700000047684,"stimulus":"[A] option 1, [L] option 2, [G] neither","key_press":71,"name":"choice","trial_type":"html-keyboard-response","trial_index":120,"time_elapsed":614711,"internal_node_id":"0.0-120.0","subject":"S1C1676","sona":"40397","block":3,"time":"2021-09-28T14:35:37.304Z","response":"neither","certainty":"high","char":"G","transposition":-2,"order":["swapped","shifted"],"probe_pitches":[5,7,6,12,5,8,4,15,13,5,13,5,6,7,3,12],"shifted_pitches":[5,7,6,12,5,8,4,15,14,5,13,5,6,7,3,12],"swapped_pitches":[5,7,6,12,5,8,4,13,15,5,13,5,6,7,3,12],"shift_direction":1,"question_num":101,"has_decoy":false},{"rt":7309.899999976158,"stimulus":"[A] option 1, [L] option 2, [G] neither","key_press":71,"name":"choice","trial_type":"html-keyboard-response","trial_index":131,"time_elapsed":644445,"internal_node_id":"0.0-131.0","subject":"S1C1676","sona":"40397","block":3,"time":"2021-09-28T14:35:37.304Z","response":"neither","certainty":"high","char":"G","transposition":-1,"order":["shifted","swapped"],"probe_pitches":[5,3,7,10,7,0,3,10,-2,7,0,-2,5,3,7,-2],"shifted_pitches":[5,3,7,10,7,0,3,10,-1,7,0,-2,5,3,7,-2],"swapped_pitches":[5,3,7,10,7,0,3,-2,10,7,0,-2,5,3,7,-2],"shift_direction":1,"question_num":111,"has_decoy":false},{"rt":1540.1000000238419,"stimulus":"[A] option 1, [L] option 2, [G] neither","key_press":65,"name":"choice","trial_type":"html-keyboard-response","trial_index":142,"time_elapsed":668296,"internal_node_id":"0.0-142.0","subject":"S1C1676","sona":"40397","block":3,"time":"2021-09-28T14:35:37.304Z","response":"1st","certainty":"high","char":"A","transposition":-3,"order":["swapped","shifted"],"probe_pitches":[-2,1,-2,3,-2,5,10,3,-2,8,10,-2,3,5,8,5],"shifted_pitches":[-2,1,-2,3,-2,5,10,2,-2,8,10,-2,3,5,8,5],"swapped_pitches":[-2,1,-2,3,-2,5,10,-2,3,8,10,-2,3,5,8,5],"shift_direction":-1,"question_num":121,"has_decoy":false},{"rt":6493.899999976158,"stimulus":"[A] option 1, [L] option 2, [G] neither","key_press":76,"name":"choice","trial_type":"html-keyboard-response","trial_index":153,"time_elapsed":697271,"internal_node_id":"0.0-153.0","subject":"S1C1676","sona":"40397","block":3,"time":"2021-09-28T14:35:37.304Z","response":"2nd","certainty":"high","char":"L","transposition":-2,"order":["shifted","swapped"],"probe_pitches":[7,10,5,-2,2,-2,7,2,5,0,-2,2,-2,5,10,7],"shifted_pitches":[7,10,5,-2,2,-2,7,2,4,0,-2,2,-2,5,10,7],"swapped_pitches":[7,10,5,-2,2,-2,7,5,2,0,-2,2,-2,5,10,7],"shift_direction":-1,"question_num":131,"has_decoy":false},{"rt":9443.400000095367,"stimulus":"[A] option 1, [L] option 2, [G] neither","key_press":71,"name":"choice","trial_type":"html-keyboard-response","trial_index":164,"time_elapsed":729111,"internal_node_id":"0.0-164.0","subject":"S1C1676","sona":"40397","block":3,"time":"2021-09-28T14:35:37.304Z","response":"neither","certainty":"high","char":"G","transposition":0,"order":["swapped","shifted"],"probe_pitches":[12,6,5,11,12,11,8,6,12,5,9,4,12,14,5,11],"shifted_pitches":[12,6,5,11,12,11,8,6,13,5,9,4,12,14,5,11],"swapped_pitches":[12,6,5,11,12,11,8,12,6,5,9,4,12,14,5,11],"shift_direction":1,"question_num":141,"has_decoy":false},{"rt":23168.5,"stimulus":"[A] option 1, [L] option 2, [G] neither","key_press":65,"name":"choice","trial_type":"html-keyboard-response","trial_index":175,"time_elapsed":774574,"internal_node_id":"0.0-175.0","subject":"S1C1676","sona":"40397","block":3,"time":"2021-09-28T14:35:37.304Z","response":"1st","certainty":"high","char":"A","transposition":2,"order":["shifted","swapped"],"probe_pitches":[4,3,6,5,11,7,4,15,10,13,15,6,13,10,15,8],"shifted_pitches":[4,3,6,5,11,7,4,15,9,13,15,6,13,10,15,8],"swapped_pitches":[4,3,6,5,11,7,4,10,15,13,15,6,13,10,15,8],"shift_direction":-1,"question_num":151,"has_decoy":false},{"rt":4766.899999976158,"stimulus":"[A] option 1, [L] option 2, [G] neither","key_press":65,"name":"choice","trial_type":"html-keyboard-response","trial_index":186,"time_elapsed":801751,"internal_node_id":"0.0-186.0","subject":"S1C1676","sona":"40397","block":3,"time":"2021-09-28T14:35:37.304Z","response":"1st","certainty":"high","char":"A","transposition":-3,"order":["shifted","swapped"],"probe_pitches":[11,13,9,11,7,15,9,13,11,15,14,9,11,5,10,7],"shifted_pitches":[11,13,9,11,7,15,9,12,11,15,14,9,11,5,10,7],"swapped_pitches":[11,13,9,11,7,15,9,11,13,15,14,9,11,5,10,7],"shift_direction":-1,"question_num":161,"has_decoy":false},{"rt":11359.899999976158,"stimulus":"[A] option 1, [L] option 2, [G] neither","key_press":76,"name":"choice","trial_type":"html-keyboard-response","trial_index":197,"time_elapsed":836455,"internal_node_id":"0.0-197.0","subject":"S1C1676","sona":"40397","block":3,"time":"2021-09-28T14:35:37.304Z","response":"2nd","certainty":"high","char":"L","transposition":2,"order":["shifted","swapped"],"probe_pitches":[-2,3,8,5,8,3,5,-2,8,10,0,3,-2,0,10,-2],"shifted_pitches":[-2,3,8,5,8,3,5,-1,8,10,0,3,-2,0,10,-2],"swapped_pitches":[-2,3,8,5,8,3,5,8,-2,10,0,3,-2,0,10,-2],"shift_direction":1,"question_num":171,"has_decoy":false},{"rt":27879.5,"stimulus":"[A] option 1, [L] option 2, [G] neither","key_press":71,"name":"choice","trial_type":"html-keyboard-response","trial_index":208,"time_elapsed":886654,"internal_node_id":"0.0-208.0","subject":"S1C1676","sona":"40397","block":3,"time":"2021-09-28T14:35:37.304Z","response":"neither","certainty":"high","char":"G","transposition":-1,"order":["shifted","swapped"],"probe_pitches":[10,5,3,10,3,10,8,10,5,8,0,10,0,8,3,10],"shifted_pitches":[10,5,3,10,3,10,8,9,5,8,0,10,0,8,3,10],"swapped_pitches":[10,5,3,10,3,10,8,5,10,8,0,10,0,8,3,10],"shift_direction":-1,"question_num":181,"has_decoy":false},{"rt":3631.7999999523163,"stimulus":"[A] option 1, [L] option 2, [G] neither","key_press":65,"name":"choice","trial_type":"html-keyboard-response","trial_index":219,"time_elapsed":912894,"internal_node_id":"0.0-219.0","subject":"S1C1676","sona":"40397","block":3,"time":"2021-09-28T14:35:37.304Z","response":"1st","certainty":"high","char":"A","transposition":-1,"order":["shifted","swapped"],"probe_pitches":[5,4,9,4,13,6,13,6,9,3,13,10,6,12,13,3],"shifted_pitches":[5,4,9,4,13,6,13,7,9,3,13,10,6,12,13,3],"swapped_pitches":[5,4,9,4,13,6,13,9,6,3,13,10,6,12,13,3],"shift_direction":1,"question_num":191,"has_decoy":false}]