[{"rt":3034.399999976158,"stimulus":"[A] option 1, [L] option 2, [G] neither","key_press":76,"name":"choice","trial_type":"html-keyboard-response","trial_index":10,"time_elapsed":106955,"internal_node_id":"0.0-10.0","subject":"S1C1676","sona":"40397","block":5,"time":"2021-09-28T14:57:30.101Z","response":"2nd","certainty":"high","char":"L","transposition":-2,"order":["shifted","swapped"],"probe_pitches":[8,13,8,6,11,3,6,13,3,8,11,1,8,1,13,8],"shifted_pitches":[8,13,8,6,11,3,6,13,2,8,11,1,8,1,13,8],"swapped_pitches":[8,13,8,6,11,3,6,3,13,8,11,1,8,1,13,8],"shift_direction":-1,"question_num":1,"has_decoy":false},{"rt":2505.7000000476837,"stimulus":"[A] option 1, [L] option 2, [G] neither","key_press":71,"name":"choice","trial_type":"html-keyboard-response","trial_index":21,"time_elapsed":135668,"internal_node_id":"0.0-21.0","subject":"S1C1676","sona":"40397","block":5,"time":"2021-09-28T14:57:30.101Z","response":"neither","certainty":"high","char":"G","transposition":3,"order":["swapped","shifted"],"probe_pitches":[13,10,8,3,6,1,8,6,3,13,8,10,1,3,8,10],"shifted_pitches":[13,10,8,3,6,1,8,6,4,13,8,10,1,3,8,10],"swapped_pitches":[13,10,8,3,6,1,8,3,6,13,8,10,1,3,8,10],"shift_direction":1,"question_num":11,"has_decoy":false},{"rt":9405.299999952316,"stimulus":"[A] option 1, [L] option 2, [G] neither","key_press":65,"name":"choice","trial_type":"html-keyboard-response","trial_index":32,"time_elapsed":171362,"internal_node_id":"0.0-32.0","subject":"S1C1676","sona":"40397","block":5,"time":"2021-09-28T14:57:30.101Z","response":"1st","certainty":"high","char":"A","transposition":0,"order":["swapped","shifted"],"probe_pitches":[10,6,8,1,5,2,4,1,7,2,5,-1,10,3,10,2],"shifted_pitches":[10,6,8,1,5,2,4,0,7,2,5,-1,10,3,10,2],"swapped_pitches":[10,6,8,1,5,2,4,7,1,2,5,-1,10,3,10,2],"shift_direction":-1,"question_num":21,"has_decoy":false},{"rt":8451.100000023842,"stimulus":"[A] option 1, [L] option 2, [G] neither","key_press":76,"name":"choice","trial_type":"html-keyboard-response","trial_index":43,"time_elapsed":203943,"internal_node_id":"0.0-43.0","subject":"S1C1676","sona":"40397","block":5,"time":"2021-09-28T14:57:30.101Z","response":"2nd","certainty":"high","char":"L","transposition":2,"order":["swapped","shifted"],"probe_pitches":[4,8,13,8,4,6,1,11,4,1,6,11,13,4,1,11],"shifted_pitches":[4,8,13,8,4,6,1,12,4,1,6,11,13,4,1,11],"swapped_pitches":[4,8,13,8,4,6,1,4,11,1,6,11,13,4,1,11],"shift_direction":1,"question_num":31,"has_decoy":false},{"rt":17030.400000095367,"stimulus":"[A] option 1, [L] option 2, [G] neither","key_press":65,"name":"choice","trial_type":"html-keyboard-response","trial_index":54,"time_elapsed":244383,"internal_node_id":"0.0-54.0","subject":"S1C1676","sona":"40397","block":5,"time":"2021-09-28T14:57:30.101Z","response":"1st","certainty":"high","char":"A","transposition":1,"order":["swapped","shifted"],"probe_pitches":[13,9,6,1,9,4,11,6,4,9,13,4,11,1,4,13],"shifted_pitches":[13,9,6,1,9,4,11,6,5,9,13,4,11,1,4,13],"swapped_pitches":[13,9,6,1,9,4,11,4,6,9,13,4,11,1,4,13],"shift_direction":1,"question_num":41,"has_decoy":false},{"rt":3867.899999976158,"stimulus":"[A] option 1, [L] option 2, [G] neither","key_press":71,"name":"choice","trial_type":"html-keyboard-response","trial_index":65,"time_elapsed":276037,"internal_node_id":"0.0-65.0","subject":"S1C1676","sona":"40397","block":5,"time":"2021-09-28T14:57:30.101Z","response":"neither","certainty":"high","char":"G","transposition":-3,"order":["shifted","swapped"],"probe_pitches":[11,13,11,13,11,9,4,1,11,4,6,9,1,6,1,13],"shifted_pitches":[11,13,11,13,11,9,4,2,11,4,6,9,1,6,1,13],"swapped_pitches":[11,13,11,13,11,9,4,11,1,4,6,9,1,6,1,13],"shift_direction":1,"question_num":51,"has_decoy":false},{"rt":1476.8999999761581,"stimulus":"[A] option 1, [L] option 2, [G] neither","key_press":65,"name":"choice","trial_type":"html-keyboard-response","trial_index":76,"time_elapsed":307698,"internal_node_id":"0.0-76.0","subject":"S1C1676","sona":"40397","block":5,"time":"2021-09-28T14:57:30.101Z","response":"1st","certainty":"high","char":"A","transposition":-3,"order":["shifted","swapped"],"probe_pitches":[13,8,13,5,8,10,8,5,13,10,1,13,1,5,3,5],"shifted_pitches":[13,8,13,5,8,10,8,5,14,10,1,13,1,5,3,5],"swapped_pitches":[13,8,13,5,8,10,8,13,5,10,1,13,1,5,3,5],"shift_direction":1,"question_num":61,"has_decoy":false},{"rt":3314.600000023842,"stimulus":"[A] option 1, [L] option 2, [G] neither","key_press":76,"name":"choice","trial_type":"html-keyboard-response","trial_index":87,"time_elapsed":338400,"internal_node_id":"0.0-87.0","subject":"S1C1676","sona":"40397","block":5,"time":"2021-09-28T14:57:30.101Z","response":"2nd","certainty":"high","char":"L","transposition":-3,"order":["shifted","swapped"],"probe_pitches":[-2,-1,2,5,10,7,10,8,3,1,7,2,-2,10,0,6],"shifted_pitches":[-2,-1,2,5,10,7,10,9,3,1,7,2,-2,10,0,6],"swapped_pitches":[-2,-1,2,5,10,7,10,3,8,1,7,2,-2,10,0,6],"shift_direction":1,"question_num":71,"has_decoy":false},{"rt":3458.7000000476837,"stimulus":"[A] option 1, [L] option 2, [G] neither","key_press":65,"name":"choice","trial_type":"html-keyboard-response","trial_index":98,"time_elapsed":367290,"internal_node_id":"0.0-98.0","subject":"S1C1676","sona":"40397","block":5,"time":"2021-09-28T14:57:30.101Z","response":"1st","certainty":"high","char":"A","transposition":-1,"order":["shifted","swapped"],"probe_pitches":[1,3,5,10,3,10,3,8,10,13,10,8,1,10,13,5],"shifted_pitches":[1,3,5,10,3,10,3,7,10,13,10,8,1,10,13,5],"swapped_pitches":[1,3,5,10,3,10,3,10,8,13,10,8,1,10,13,5],"shift_direction":-1,"question_num":81,"has_decoy":false},{"rt":3981.5,"stimulus":"[A] option 1, [L] option 2, [G] neither","key_press":76,"name":"choice","trial_type":"html-keyboard-response","trial_index":109,"time_elapsed":397946,"internal_node_id":"0.0-109.0","subject":"S1C1676","sona":"40397","block":5,"time":"2021-09-28T14:57:30.101Z","response":"2nd","certainty":"high","char":"L","transposition":2,"order":["swapped","shifted"],"probe_pitches":[10,8,6,4,0,10,5,4,1,-1,0,9,5,6,4,5],"shifted_pitches":[10,8,6,4,0,10,5,3,1,-1,0,9,5,6,4,5],"swapped_pitches":[10,8,6,4,0,10,5,1,4,-1,0,9,5,6,4,5],"shift_direction":-1,"question_num":91,"has_decoy":false},{"rt":2806,"stimulus":"[A] option 1, [L] option 2, [G] neither","key_press":71,"name":"choice","trial_type":"html-keyboard-response","trial_index":120,"time_elapsed":428247,"internal_node_id":"0.0-120.0","subject":"S1C1676","sona":"40397","block":5,"time":"2021-09-28T14:57:30.101Z","response":"neither","certainty":"high","char":"G","transposition":3,"order":["shifted","swapped"],"probe_pitches":[-1,1,7,10,3,-2,5,4,3,9,7,9,-1,0,10,3],"shifted_pitches":[-1,1,7,10,3,-2,5,4,2,9,7,9,-1,0,10,3],"swapped_pitches":[-1,1,7,10,3,-2,5,3,4,9,7,9,-1,0,10,3],"shift_direction":-1,"question_num":101,"has_decoy":false},{"rt":3128.4000000953674,"stimulus":"[A] option 1, [L] option 2, [G] neither","key_press":76,"name":"choice","trial_type":"html-keyboard-response","trial_index":131,"time_elapsed":454148,"internal_node_id":"0.0-131.0","subject":"S1C1676","sona":"40397","block":5,"time":"2021-09-28T14:57:30.101Z","response":"2nd","certainty":"high","char":"L","transposition":0,"order":["shifted","swapped"],"probe_pitches":[13,11,6,11,13,6,3,13,6,8,1,11,13,11,13,8],"shifted_pitches":[13,11,6,11,13,6,3,12,6,8,1,11,13,11,13,8],"swapped_pitches":[13,11,6,11,13,6,3,6,13,8,1,11,13,11,13,8],"shift_direction":-1,"question_num":111,"has_decoy":false},{"rt":5248,"stimulus":"[A] option 1, [L] option 2, [G] neither","key_press":71,"name":"choice","trial_type":"html-keyboard-response","trial_index":142,"time_elapsed":481697,"internal_node_id":"0.0-142.0","subject":"S1C1676","sona":"40397","block":5,"time":"2021-09-28T14:57:30.101Z","response":"neither","certainty":"high","char":"G","transposition":-2,"order":["swapped","shifted"],"probe_pitches":[8,3,6,8,3,8,10,6,8,13,6,3,1,13,10,1],"shifted_pitches":[8,3,6,8,3,8,10,5,8,13,6,3,1,13,10,1],"swapped_pitches":[8,3,6,8,3,8,10,8,6,13,6,3,1,13,10,1],"shift_direction":-1,"question_num":121,"has_decoy":false},{"rt":1923.1999999284744,"stimulus":"[A] option 1, [L] option 2, [G] neither","key_press":71,"name":"choice","trial_type":"html-keyboard-response","trial_index":153,"time_elapsed":512585,"internal_node_id":"0.0-153.0","subject":"S1C1676","sona":"40397","block":5,"time":"2021-09-28T14:57:30.101Z","response":"neither","certainty":"high","char":"G","transposition":1,"order":["swapped","shifted"],"probe_pitches":[-2,3,1,6,-2,7,3,2,7,0,-2,9,0,1,9,10],"shifted_pitches":[-2,3,1,6,-2,7,3,2,8,0,-2,9,0,1,9,10],"swapped_pitches":[-2,3,1,6,-2,7,3,7,2,0,-2,9,0,1,9,10],"shift_direction":1,"question_num":131,"has_decoy":false},{"rt":1049.8999999761581,"stimulus":"[A] option 1, [L] option 2, [G] neither","key_press":71,"name":"choice","trial_type":"html-keyboard-response","trial_index":164,"time_elapsed":536186,"internal_node_id":"0.0-164.0","subject":"S1C1676","sona":"40397","block":5,"time":"2021-09-28T14:57:30.101Z","response":"neither","certainty":"high","char":"G","transposition":-2,"order":["swapped","shifted"],"probe_pitches":[2,6,2,7,1,6,-2,6,4,0,3,10,7,6,10,4],"shifted_pitches":[2,6,2,7,1,6,-2,5,4,0,3,10,7,6,10,4],"swapped_pitches":[2,6,2,7,1,6,-2,4,6,0,3,10,7,6,10,4],"shift_direction":-1,"question_num":141,"has_decoy":false},{"rt":1229.8999999761581,"stimulus":"[A] option 1, [L] option 2, [G] neither","key_press":71,"name":"choice","trial_type":"html-keyboard-response","trial_index":175,"time_elapsed":564718,"internal_node_id":"0.0-175.0","subject":"S1C1676","sona":"40397","block":5,"time":"2021-09-28T14:57:30.101Z","response":"neither","certainty":"high","char":"G","transposition":-3,"order":["shifted","swapped"],"probe_pitches":[8,2,3,6,7,0,4,7,0,6,10,5,10,-1,5,-2],"shifted_pitches":[8,2,3,6,7,0,4,7,1,6,10,5,10,-1,5,-2],"swapped_pitches":[8,2,3,6,7,0,4,0,7,6,10,5,10,-1,5,-2],"shift_direction":1,"question_num":151,"has_decoy":false},{"rt":2397.399999976158,"stimulus":"[A] option 1, [L] option 2, [G] neither","key_press":76,"name":"choice","trial_type":"html-keyboard-response","trial_index":186,"time_elapsed":589437,"internal_node_id":"0.0-186.0","subject":"S1C1676","sona":"40397","block":5,"time":"2021-09-28T14:57:30.101Z","response":"2nd","certainty":"high","char":"L","transposition":-2,"order":["shifted","swapped"],"probe_pitches":[2,5,9,4,1,5,10,0,7,3,5,3,-1,4,5,1],"shifted_pitches":[2,5,9,4,1,5,10,0,6,3,5,3,-1,4,5,1],"swapped_pitches":[2,5,9,4,1,5,10,7,0,3,5,3,-1,4,5,1],"shift_direction":-1,"question_num":161,"has_decoy":false},{"rt":614.6999999284744,"stimulus":"[A] option 1, [L] option 2, [G] neither","key_press":76,"name":"choice","trial_type":"html-keyboard-response","trial_index":197,"time_elapsed":612374,"internal_node_id":"0.0-197.0","subject":"S1C1676","sona":"40397","block":5,"time":"2021-09-28T14:57:30.101Z","response":"2nd","certainty":"high","char":"L","transposition":-1,"order":["swapped","shifted"],"probe_pitches":[-2,1,5,1,-1,-2,5,3,9,-1,-2,6,0,1,0,6],"shifted_pitches":[-2,1,5,1,-1,-2,5,4,9,-1,-2,6,0,1,0,6],"swapped_pitches":[-2,1,5,1,-1,-2,5,9,3,-1,-2,6,0,1,0,6],"shift_direction":1,"question_num":171,"has_decoy":false},{"rt":793.9000000953674,"stimulus":"[A] option 1, [L] option 2, [G] neither","key_press":71,"name":"choice","trial_type":"html-keyboard-response","trial_index":208,"time_elapsed":635918,"internal_node_id":"0.0-208.0","subject":"S1C1676","sona":"40397","block":5,"time":"2021-09-28T14:57:30.101Z","response":"neither","certainty":"high","char":"G","transposition":-1,"order":["shifted","swapped"],"probe_pitches":[3,2,-2,1,2,0,4,5,6,10,3,5,6,-2,0,-2],"shifted_pitches":[3,2,-2,1,2,0,4,5,7,10,3,5,6,-2,0,-2],"swapped_pitches":[3,2,-2,1,2,0,4,6,5,10,3,5,6,-2,0,-2],"shift_direction":1,"question_num":181,"has_decoy":false},{"rt":2799.1999999284744,"stimulus":"[A] option 1, [L] option 2, [G] neither","key_press":65,"name":"choice","trial_type":"html-keyboard-response","trial_index":219,"time_elapsed":661982,"internal_node_id":"0.0-219.0","subject":"S1C1676","sona":"40397","block":5,"time":"2021-09-28T14:57:30.101Z","response":"1st","certainty":"high","char":"A","transposition":-1,"order":["swapped","shifted"],"probe_pitches":[11,6,8,4,1,11,4,1,6,8,6,1,6,8,4,11],"shifted_pitches":[11,6,8,4,1,11,4,1,5,8,6,1,6,8,4,11],"swapped_pitches":[11,6,8,4,1,11,4,6,1,8,6,1,6,8,4,11],"shift_direction":-1,"question_num":191,"has_decoy":false}]