[{"rt":7053.900000095367,"stimulus":"[A] option 1, [L] option 2, [G] neither","key_press":71,"name":"choice","trial_type":"html-keyboard-response","trial_index":10,"time_elapsed":33451,"internal_node_id":"0.0-10.0","subject":"S1C1676","sona":"40397","block":2,"time":"2021-09-28T14:20:07.067Z","response":"neither","certainty":"high","char":"G","transposition":-3,"order":["swapped","shifted"],"probe_pitches":[11,6,11,8,13,4,13,1,8,13,8,13,1,4,6,11],"shifted_pitches":[11,6,11,8,13,4,13,0,8,13,8,13,1,4,6,11],"swapped_pitches":[11,6,11,8,13,4,13,8,1,13,8,13,1,4,6,11],"shift_direction":-1,"question_num":1,"has_decoy":false},{"rt":8626.700000047684,"stimulus":"[A] option 1, [L] option 2, [G] neither","key_press":76,"name":"choice","trial_type":"html-keyboard-response","trial_index":21,"time_elapsed":66783,"internal_node_id":"0.0-21.0","subject":"S1C1676","sona":"40397","block":2,"time":"2021-09-28T14:20:07.067Z","response":"2nd","certainty":"high","char":"L","transposition":2,"order":["swapped","shifted"],"probe_pitches":[1,5,1,5,8,10,3,8,13,10,5,1,8,5,10,3],"shifted_pitches":[1,5,1,5,8,10,3,9,13,10,5,1,8,5,10,3],"swapped_pitches":[1,5,1,5,8,10,3,13,8,10,5,1,8,5,10,3],"shift_direction":1,"question_num":11,"has_decoy":false},{"rt":2797.399999976158,"stimulus":"[A] option 1, [L] option 2, [G] neither","key_press":65,"name":"choice","trial_type":"html-keyboard-response","trial_index":32,"time_elapsed":96180,"internal_node_id":"0.0-32.0","subject":"S1C1676","sona":"40397","block":2,"time":"2021-09-28T14:20:07.067Z","response":"1st","certainty":"high","char":"A","transposition":-2,"order":["shifted","swapped"],"probe_pitches":[1,3,4,8,7,6,0,6,3,11,10,7,5,1,5,10],"shifted_pitches":[1,3,4,8,7,6,0,6,2,11,10,7,5,1,5,10],"swapped_pitches":[1,3,4,8,7,6,0,3,6,11,10,7,5,1,5,10],"shift_direction":-1,"question_num":21,"has_decoy":false},{"rt":11659,"stimulus":"[A] option 1, [L] option 2, [G] neither","key_press":71,"name":"choice","trial_type":"html-keyboard-response","trial_index":43,"time_elapsed":131719,"internal_node_id":"0.0-43.0","subject":"S1C1676","sona":"40397","block":2,"time":"2021-09-28T14:20:07.067Z","response":"neither","certainty":"high","char":"G","transposition":-2,"order":["shifted","swapped"],"probe_pitches":[4,5,11,10,8,3,7,8,11,5,-1,4,7,1,-1,1],"shifted_pitches":[4,5,11,10,8,3,7,9,11,5,-1,4,7,1,-1,1],"swapped_pitches":[4,5,11,10,8,3,7,11,8,5,-1,4,7,1,-1,1],"shift_direction":1,"question_num":31,"has_decoy":false},{"rt":14630.600000023842,"stimulus":"[A] option 1, [L] option 2, [G] neither","key_press":71,"name":"choice","trial_type":"html-keyboard-response","trial_index":54,"time_elapsed":174743,"internal_node_id":"0.0-54.0","subject":"S1C1676","sona":"40397","block":2,"time":"2021-09-28T14:20:07.067Z","response":"neither","certainty":"high","char":"G","transposition":1,"order":["shifted","swapped"],"probe_pitches":[3,8,6,13,10,1,10,3,1,13,3,1,10,1,13,8],"shifted_pitches":[3,8,6,13,10,1,10,3,2,13,3,1,10,1,13,8],"swapped_pitches":[3,8,6,13,10,1,10,1,3,13,3,1,10,1,13,8],"shift_direction":1,"question_num":41,"has_decoy":false},{"rt":6617.700000047684,"stimulus":"[A] option 1, [L] option 2, [G] neither","key_press":65,"name":"choice","trial_type":"html-keyboard-response","trial_index":65,"time_elapsed":204011,"internal_node_id":"0.0-65.0","subject":"S1C1676","sona":"40397","block":2,"time":"2021-09-28T14:20:07.067Z","response":"1st","certainty":"high","char":"A","transposition":-3,"order":["shifted","swapped"],"probe_pitches":[11,9,4,6,13,9,13,1,11,6,11,9,6,1,9,1],"shifted_pitches":[11,9,4,6,13,9,13,2,11,6,11,9,6,1,9,1],"swapped_pitches":[11,9,4,6,13,9,13,11,1,6,11,9,6,1,9,1],"shift_direction":1,"question_num":51,"has_decoy":false},{"rt":15242.899999976158,"stimulus":"[A] option 1, [L] option 2, [G] neither","key_press":71,"name":"choice","trial_type":"html-keyboard-response","trial_index":76,"time_elapsed":241701,"internal_node_id":"0.0-76.0","subject":"S1C1676","sona":"40397","block":2,"time":"2021-09-28T14:20:07.067Z","response":"neither","certainty":"high","char":"G","transposition":-1,"order":["swapped","shifted"],"probe_pitches":[5,0,7,-1,8,10,1,-1,7,10,7,5,10,4,5,1],"shifted_pitches":[5,0,7,-1,8,10,1,-1,6,10,7,5,10,4,5,1],"swapped_pitches":[5,0,7,-1,8,10,1,7,-1,10,7,5,10,4,5,1],"shift_direction":-1,"question_num":61,"has_decoy":false},{"rt":25799.599999904633,"stimulus":"[A] option 1, [L] option 2, [G] neither","key_press":71,"name":"choice","trial_type":"html-keyboard-response","trial_index":87,"time_elapsed":290044,"internal_node_id":"0.0-87.0","subject":"S1C1676","sona":"40397","block":2,"time":"2021-09-28T14:20:07.067Z","response":"neither","certainty":"high","char":"G","transposition":2,"order":["swapped","shifted"],"probe_pitches":[8,4,8,9,7,5,8,4,10,6,5,11,8,10,6,11],"shifted_pitches":[8,4,8,9,7,5,8,3,10,6,5,11,8,10,6,11],"swapped_pitches":[8,4,8,9,7,5,8,10,4,6,5,11,8,10,6,11],"shift_direction":-1,"question_num":71,"has_decoy":false},{"rt":8415.799999952316,"stimulus":"[A] option 1, [L] option 2, [G] neither","key_press":71,"name":"choice","trial_type":"html-keyboard-response","trial_index":98,"time_elapsed":323728,"internal_node_id":"0.0-98.0","subject":"S1C1676","sona":"40397","block":2,"time":"2021-09-28T14:20:07.067Z","response":"neither","certainty":"high","char":"G","transposition":-2,"order":["swapped","shifted"],"probe_pitches":[6,3,1,8,11,1,3,11,8,13,11,8,3,1,11,1],"shifted_pitches":[6,3,1,8,11,1,3,11,9,13,11,8,3,1,11,1],"swapped_pitches":[6,3,1,8,11,1,3,8,11,13,11,8,3,1,11,1],"shift_direction":1,"question_num":81,"has_decoy":false},{"rt":20986,"stimulus":"[A] option 1, [L] option 2, [G] neither","key_press":71,"name":"choice","trial_type":"html-keyboard-response","trial_index":109,"time_elapsed":367882,"internal_node_id":"0.0-109.0","subject":"S1C1676","sona":"40397","block":2,"time":"2021-09-28T14:20:07.067Z","response":"neither","certainty":"high","char":"G","transposition":0,"order":["shifted","swapped"],"probe_pitches":[9,7,4,2,5,1,0,9,1,-1,0,1,7,3,1,2],"shifted_pitches":[9,7,4,2,5,1,0,10,1,-1,0,1,7,3,1,2],"swapped_pitches":[9,7,4,2,5,1,0,1,9,-1,0,1,7,3,1,2],"shift_direction":1,"question_num":91,"has_decoy":false},{"rt":6469.700000047684,"stimulus":"[A] option 1, [L] option 2, [G] neither","key_press":65,"name":"choice","trial_type":"html-keyboard-response","trial_index":120,"time_elapsed":404918,"internal_node_id":"0.0-120.0","subject":"S1C1676","sona":"40397","block":2,"time":"2021-09-28T14:20:07.067Z","response":"1st","certainty":"high","char":"A","transposition":-3,"order":["swapped","shifted"],"probe_pitches":[0,1,6,-1,0,-1,9,2,6,0,5,4,8,10,1,10],"shifted_pitches":[0,1,6,-1,0,-1,9,2,7,0,5,4,8,10,1,10],"swapped_pitches":[0,1,6,-1,0,-1,9,6,2,0,5,4,8,10,1,10],"shift_direction":1,"question_num":101,"has_decoy":false},{"rt":1851.3999999761581,"stimulus":"[A] option 1, [L] option 2, [G] neither","key_press":71,"name":"choice","trial_type":"html-keyboard-response","trial_index":131,"time_elapsed":429414,"internal_node_id":"0.0-131.0","subject":"S1C1676","sona":"40397","block":2,"time":"2021-09-28T14:20:07.067Z","response":"neither","certainty":"high","char":"G","transposition":-3,"order":["shifted","swapped"],"probe_pitches":[-1,5,9,5,4,0,-1,7,0,2,4,7,11,2,9,0],"shifted_pitches":[-1,5,9,5,4,0,-1,7,1,2,4,7,11,2,9,0],"swapped_pitches":[-1,5,9,5,4,0,-1,0,7,2,4,7,11,2,9,0],"shift_direction":1,"question_num":111,"has_decoy":false},{"rt":17233.100000023842,"stimulus":"[A] option 1, [L] option 2, [G] neither","key_press":71,"name":"choice","trial_type":"html-keyboard-response","trial_index":142,"time_elapsed":471665,"internal_node_id":"0.0-142.0","subject":"S1C1676","sona":"40397","block":2,"time":"2021-09-28T14:20:07.067Z","response":"neither","certainty":"high","char":"G","transposition":0,"order":["shifted","swapped"],"probe_pitches":[13,8,10,5,1,3,1,5,8,10,5,13,3,13,10,3],"shifted_pitches":[13,8,10,5,1,3,1,5,9,10,5,13,3,13,10,3],"swapped_pitches":[13,8,10,5,1,3,1,8,5,10,5,13,3,13,10,3],"shift_direction":1,"question_num":121,"has_decoy":false},{"rt":10749.299999952316,"stimulus":"[A] option 1, [L] option 2, [G] neither","key_press":76,"name":"choice","trial_type":"html-keyboard-response","trial_index":153,"time_elapsed":510765,"internal_node_id":"0.0-153.0","subject":"S1C1676","sona":"40397","block":2,"time":"2021-09-28T14:20:07.067Z","response":"2nd","certainty":"high","char":"L","transposition":-1,"order":["swapped","shifted"],"probe_pitches":[8,6,8,6,8,11,4,11,6,8,13,11,1,13,8,1],"shifted_pitches":[8,6,8,6,8,11,4,11,5,8,13,11,1,13,8,1],"swapped_pitches":[8,6,8,6,8,11,4,6,11,8,13,11,1,13,8,1],"shift_direction":-1,"question_num":131,"has_decoy":false},{"rt":45687,"stimulus":"[A] option 1, [L] option 2, [G] neither","key_press":65,"name":"choice","trial_type":"html-keyboard-response","trial_index":164,"time_elapsed":579323,"internal_node_id":"0.0-164.0","subject":"S1C1676","sona":"40397","block":2,"time":"2021-09-28T14:20:07.067Z","response":"1st","certainty":"high","char":"A","transposition":-2,"order":["shifted","swapped"],"probe_pitches":[13,8,6,1,3,13,8,13,10,1,13,8,3,6,13,6],"shifted_pitches":[13,8,6,1,3,13,8,12,10,1,13,8,3,6,13,6],"swapped_pitches":[13,8,6,1,3,13,8,10,13,1,13,8,3,6,13,6],"shift_direction":-1,"question_num":141,"has_decoy":false},{"rt":62004.10000002384,"stimulus":"[A] option 1, [L] option 2, [G] neither","key_press":71,"name":"choice","trial_type":"html-keyboard-response","trial_index":175,"time_elapsed":664232,"internal_node_id":"0.0-175.0","subject":"S1C1676","sona":"40397","block":2,"time":"2021-09-28T14:20:07.067Z","response":"neither","certainty":"high","char":"G","transposition":3,"order":["swapped","shifted"],"probe_pitches":[7,5,3,2,-1,6,7,9,2,1,7,2,9,-1,7,5],"shifted_pitches":[7,5,3,2,-1,6,7,8,2,1,7,2,9,-1,7,5],"swapped_pitches":[7,5,3,2,-1,6,7,2,9,1,7,2,9,-1,7,5],"shift_direction":-1,"question_num":151,"has_decoy":false},{"rt":24309.600000023842,"stimulus":"[A] option 1, [L] option 2, [G] neither","key_press":76,"name":"choice","trial_type":"html-keyboard-response","trial_index":186,"time_elapsed":712757,"internal_node_id":"0.0-186.0","subject":"S1C1676","sona":"40397","block":2,"time":"2021-09-28T14:20:07.067Z","response":"2nd","certainty":"high","char":"L","transposition":3,"order":["shifted","swapped"],"probe_pitches":[6,11,13,8,6,1,3,8,1,13,11,6,8,3,6,3],"shifted_pitches":[6,11,13,8,6,1,3,8,0,13,11,6,8,3,6,3],"swapped_pitches":[6,11,13,8,6,1,3,1,8,13,11,6,8,3,6,3],"shift_direction":-1,"question_num":161,"has_decoy":false},{"rt":26229.5,"stimulus":"[A] option 1, [L] option 2, [G] neither","key_press":76,"name":"choice","trial_type":"html-keyboard-response","trial_index":197,"time_elapsed":793047,"internal_node_id":"0.0-197.0","subject":"S1C1676","sona":"40397","block":2,"time":"2021-09-28T14:20:07.067Z","response":"2nd","certainty":"high","char":"L","transposition":-1,"order":["swapped","shifted"],"probe_pitches":[11,8,4,8,4,2,0,6,7,8,-1,3,6,1,0,11],"shifted_pitches":[11,8,4,8,4,2,0,5,7,8,-1,3,6,1,0,11],"swapped_pitches":[11,8,4,8,4,2,0,7,6,8,-1,3,6,1,0,11],"shift_direction":-1,"question_num":171,"has_decoy":false},{"rt":23762.299999952316,"stimulus":"[A] option 1, [L] option 2, [G] neither","key_press":71,"name":"choice","trial_type":"html-keyboard-response","trial_index":208,"time_elapsed":840117,"internal_node_id":"0.0-208.0","subject":"S1C1676","sona":"40397","block":2,"time":"2021-09-28T14:20:07.067Z","response":"neither","certainty":"high","char":"G","transposition":-1,"order":["swapped","shifted"],"probe_pitches":[9,4,11,4,13,6,1,11,13,6,11,6,9,11,13,9],"shifted_pitches":[9,4,11,4,13,6,1,10,13,6,11,6,9,11,13,9],"swapped_pitches":[9,4,11,4,13,6,1,13,11,6,11,6,9,11,13,9],"shift_direction":-1,"question_num":181,"has_decoy":false},{"rt":31236,"stimulus":"[A] option 1, [L] option 2, [G] neither","key_press":65,"name":"choice","trial_type":"html-keyboard-response","trial_index":219,"time_elapsed":893846,"internal_node_id":"0.0-219.0","subject":"S1C1676","sona":"40397","block":2,"time":"2021-09-28T14:20:07.067Z","response":"1st","certainty":"high","char":"A","transposition":1,"order":["shifted","swapped"],"probe_pitches":[8,10,5,11,3,1,8,2,3,0,5,7,11,-1,8,5],"shifted_pitches":[8,10,5,11,3,1,8,2,4,0,5,7,11,-1,8,5],"swapped_pitches":[8,10,5,11,3,1,8,3,2,0,5,7,11,-1,8,5],"shift_direction":1,"question_num":191,"has_decoy":false}]