[{"rt":5042.299999952316,"stimulus":"[A] option 1, [L] option 2, [G] neither","key_press":71,"name":"choice","trial_type":"html-keyboard-response","trial_index":10,"time_elapsed":31669,"internal_node_id":"0.0-10.0","subject":"S1C1638","sona":"41417","block":2,"time":"2021-09-22T12:13:22.457Z","response":"neither","certainty":"high","char":"G","transposition":3,"order":["shifted","swapped"],"probe_pitches":[10,8,3,6,3,1,8,1,6,10,3,6,1,10,-2,10],"shifted_pitches":[10,8,3,6,3,1,8,1,7,10,3,6,1,10,-2,10],"swapped_pitches":[10,8,3,6,3,1,8,6,1,10,3,6,1,10,-2,10],"shift_direction":1,"question_num":1,"has_decoy":false},{"rt":1994.1999999284744,"stimulus":"[A] option 1, [L] option 2, [G] neither","key_press":76,"name":"choice","trial_type":"html-keyboard-response","trial_index":21,"time_elapsed":57032,"internal_node_id":"0.0-21.0","subject":"S1C1638","sona":"41417","block":2,"time":"2021-09-22T12:13:22.457Z","response":"2nd","certainty":"high","char":"L","transposition":-3,"order":["swapped","shifted"],"probe_pitches":[3,5,3,6,13,12,7,13,5,9,14,10,9,8,11,10],"shifted_pitches":[3,5,3,6,13,12,7,13,4,9,14,10,9,8,11,10],"swapped_pitches":[3,5,3,6,13,12,7,5,13,9,14,10,9,8,11,10],"shift_direction":-1,"question_num":11,"has_decoy":false},{"rt":523.2999999523163,"stimulus":"[A] option 1, [L] option 2, [G] neither","key_press":76,"name":"choice","trial_type":"html-keyboard-response","trial_index":32,"time_elapsed":79871,"internal_node_id":"0.0-32.0","subject":"S1C1638","sona":"41417","block":2,"time":"2021-09-22T12:13:22.457Z","response":"2nd","certainty":"high","char":"L","transposition":-3,"order":["shifted","swapped"],"probe_pitches":[10,8,10,8,3,5,3,-2,10,0,8,5,0,8,-2,5],"shifted_pitches":[10,8,10,8,3,5,3,-1,10,0,8,5,0,8,-2,5],"swapped_pitches":[10,8,10,8,3,5,3,10,-2,0,8,5,0,8,-2,5],"shift_direction":1,"question_num":21,"has_decoy":false},{"rt":2083.8000000715256,"stimulus":"[A] option 1, [L] option 2, [G] neither","key_press":71,"name":"choice","trial_type":"html-keyboard-response","trial_index":43,"time_elapsed":104430,"internal_node_id":"0.0-43.0","subject":"S1C1638","sona":"41417","block":2,"time":"2021-09-22T12:13:22.457Z","response":"neither","certainty":"high","char":"G","transposition":2,"order":["swapped","shifted"],"probe_pitches":[7,2,-2,2,10,5,10,5,0,10,0,5,0,-2,7,10],"shifted_pitches":[7,2,-2,2,10,5,10,6,0,10,0,5,0,-2,7,10],"swapped_pitches":[7,2,-2,2,10,5,10,0,5,10,0,5,0,-2,7,10],"shift_direction":1,"question_num":31,"has_decoy":false},{"rt":1056.8999999761581,"stimulus":"[A] option 1, [L] option 2, [G] neither","key_press":76,"name":"choice","trial_type":"html-keyboard-response","trial_index":54,"time_elapsed":145607,"internal_node_id":"0.0-54.0","subject":"S1C1638","sona":"41417","block":2,"time":"2021-09-22T12:13:22.457Z","response":"2nd","certainty":"high","char":"L","transposition":-3,"order":["shifted","swapped"],"probe_pitches":[2,-2,2,10,2,10,5,10,-2,7,10,0,7,5,7,0],"shifted_pitches":[2,-2,2,10,2,10,5,9,-2,7,10,0,7,5,7,0],"swapped_pitches":[2,-2,2,10,2,10,5,-2,10,7,10,0,7,5,7,0],"shift_direction":-1,"question_num":41,"has_decoy":false},{"rt":1453.7000000476837,"stimulus":"[A] option 1, [L] option 2, [G] neither","key_press":71,"name":"choice","trial_type":"html-keyboard-response","trial_index":65,"time_elapsed":169785,"internal_node_id":"0.0-65.0","subject":"S1C1638","sona":"41417","block":2,"time":"2021-09-22T12:13:22.457Z","response":"neither","certainty":"high","char":"G","transposition":-2,"order":["shifted","swapped"],"probe_pitches":[7,5,7,14,13,14,3,11,8,13,4,2,14,10,4,11],"shifted_pitches":[7,5,7,14,13,14,3,11,9,13,4,2,14,10,4,11],"swapped_pitches":[7,5,7,14,13,14,3,8,11,13,4,2,14,10,4,11],"shift_direction":1,"question_num":51,"has_decoy":false},{"rt":1835.8999999761581,"stimulus":"[A] option 1, [L] option 2, [G] neither","key_press":71,"name":"choice","trial_type":"html-keyboard-response","trial_index":76,"time_elapsed":193668,"internal_node_id":"0.0-76.0","subject":"S1C1638","sona":"41417","block":2,"time":"2021-09-22T12:13:22.457Z","response":"neither","certainty":"high","char":"G","transposition":2,"order":["shifted","swapped"],"probe_pitches":[3,2,4,3,12,11,10,9,11,13,10,11,2,13,6,5],"shifted_pitches":[3,2,4,3,12,11,10,8,11,13,10,11,2,13,6,5],"swapped_pitches":[3,2,4,3,12,11,10,11,9,13,10,11,2,13,6,5],"shift_direction":-1,"question_num":61,"has_decoy":false},{"rt":632.2999999523163,"stimulus":"[A] option 1, [L] option 2, [G] neither","key_press":65,"name":"choice","trial_type":"html-keyboard-response","trial_index":87,"time_elapsed":216976,"internal_node_id":"0.0-87.0","subject":"S1C1638","sona":"41417","block":2,"time":"2021-09-22T12:13:22.457Z","response":"1st","certainty":"high","char":"A","transposition":0,"order":["shifted","swapped"],"probe_pitches":[6,10,8,9,4,6,8,11,14,2,4,3,6,10,7,4],"shifted_pitches":[6,10,8,9,4,6,8,12,14,2,4,3,6,10,7,4],"swapped_pitches":[6,10,8,9,4,6,8,14,11,2,4,3,6,10,7,4],"shift_direction":1,"question_num":71,"has_decoy":false},{"rt":1709,"stimulus":"[A] option 1, [L] option 2, [G] neither","key_press":76,"name":"choice","trial_type":"html-keyboard-response","trial_index":98,"time_elapsed":241151,"internal_node_id":"0.0-98.0","subject":"S1C1638","sona":"41417","block":2,"time":"2021-09-22T12:13:22.457Z","response":"2nd","certainty":"high","char":"L","transposition":1,"order":["swapped","shifted"],"probe_pitches":[10,5,10,7,-2,0,7,3,-2,10,3,5,-2,5,-2,7],"shifted_pitches":[10,5,10,7,-2,0,7,3,-3,10,3,5,-2,5,-2,7],"swapped_pitches":[10,5,10,7,-2,0,7,-2,3,10,3,5,-2,5,-2,7],"shift_direction":-1,"question_num":81,"has_decoy":false},{"rt":1838.1999999284744,"stimulus":"[A] option 1, [L] option 2, [G] neither","key_press":65,"name":"choice","trial_type":"html-keyboard-response","trial_index":109,"time_elapsed":265624,"internal_node_id":"0.0-109.0","subject":"S1C1638","sona":"41417","block":2,"time":"2021-09-22T12:13:22.457Z","response":"1st","certainty":"high","char":"A","transposition":3,"order":["swapped","shifted"],"probe_pitches":[8,2,7,8,2,4,5,12,10,9,3,7,5,10,14,9],"shifted_pitches":[8,2,7,8,2,4,5,13,10,9,3,7,5,10,14,9],"swapped_pitches":[8,2,7,8,2,4,5,10,12,9,3,7,5,10,14,9],"shift_direction":1,"question_num":91,"has_decoy":false},{"rt":2300.5,"stimulus":"[A] option 1, [L] option 2, [G] neither","key_press":71,"name":"choice","trial_type":"html-keyboard-response","trial_index":120,"time_elapsed":290273,"internal_node_id":"0.0-120.0","subject":"S1C1638","sona":"41417","block":2,"time":"2021-09-22T12:13:22.457Z","response":"neither","certainty":"high","char":"G","transposition":-2,"order":["shifted","swapped"],"probe_pitches":[5,8,3,7,14,9,4,7,11,5,10,9,14,3,5,7],"shifted_pitches":[5,8,3,7,14,9,4,6,11,5,10,9,14,3,5,7],"swapped_pitches":[5,8,3,7,14,9,4,11,7,5,10,9,14,3,5,7],"shift_direction":-1,"question_num":101,"has_decoy":false},{"rt":1197.1999999284744,"stimulus":"[A] option 1, [L] option 2, [G] neither","key_press":76,"name":"choice","trial_type":"html-keyboard-response","trial_index":131,"time_elapsed":314504,"internal_node_id":"0.0-131.0","subject":"S1C1638","sona":"41417","block":2,"time":"2021-09-22T12:13:22.457Z","response":"2nd","certainty":"high","char":"L","transposition":-1,"order":["swapped","shifted"],"probe_pitches":[6,3,1,8,10,8,3,10,6,3,1,3,-2,6,-2,3],"shifted_pitches":[6,3,1,8,10,8,3,10,5,3,1,3,-2,6,-2,3],"swapped_pitches":[6,3,1,8,10,8,3,6,10,3,1,3,-2,6,-2,3],"shift_direction":-1,"question_num":111,"has_decoy":false},{"rt":2476.5,"stimulus":"[A] option 1, [L] option 2, [G] neither","key_press":71,"name":"choice","trial_type":"html-keyboard-response","trial_index":142,"time_elapsed":339640,"internal_node_id":"0.0-142.0","subject":"S1C1638","sona":"41417","block":2,"time":"2021-09-22T12:13:22.457Z","response":"neither","certainty":"high","char":"G","transposition":1,"order":["swapped","shifted"],"probe_pitches":[2,3,9,12,13,4,13,11,6,3,4,14,4,2,13,7],"shifted_pitches":[2,3,9,12,13,4,13,11,5,3,4,14,4,2,13,7],"swapped_pitches":[2,3,9,12,13,4,13,6,11,3,4,14,4,2,13,7],"shift_direction":-1,"question_num":121,"has_decoy":false},{"rt":1746.3999999761581,"stimulus":"[A] option 1, [L] option 2, [G] neither","key_press":76,"name":"choice","trial_type":"html-keyboard-response","trial_index":153,"time_elapsed":363945,"internal_node_id":"0.0-153.0","subject":"S1C1638","sona":"41417","block":2,"time":"2021-09-22T12:13:22.457Z","response":"2nd","certainty":"high","char":"L","transposition":-1,"order":["shifted","swapped"],"probe_pitches":[6,3,8,13,9,8,6,9,10,8,3,13,5,12,10,13],"shifted_pitches":[6,3,8,13,9,8,6,9,11,8,3,13,5,12,10,13],"swapped_pitches":[6,3,8,13,9,8,6,10,9,8,3,13,5,12,10,13],"shift_direction":1,"question_num":131,"has_decoy":false},{"rt":902.6000000238419,"stimulus":"[A] option 1, [L] option 2, [G] neither","key_press":76,"name":"choice","trial_type":"html-keyboard-response","trial_index":164,"time_elapsed":387556,"internal_node_id":"0.0-164.0","subject":"S1C1638","sona":"41417","block":2,"time":"2021-09-22T12:13:22.457Z","response":"2nd","certainty":"high","char":"L","transposition":-1,"order":["swapped","shifted"],"probe_pitches":[2,5,9,10,13,11,13,6,4,8,14,2,12,14,4,2],"shifted_pitches":[2,5,9,10,13,11,13,7,4,8,14,2,12,14,4,2],"swapped_pitches":[2,5,9,10,13,11,13,4,6,8,14,2,12,14,4,2],"shift_direction":1,"question_num":141,"has_decoy":false},{"rt":785.6000000238419,"stimulus":"[A] option 1, [L] option 2, [G] neither","key_press":76,"name":"choice","trial_type":"html-keyboard-response","trial_index":175,"time_elapsed":411269,"internal_node_id":"0.0-175.0","subject":"S1C1638","sona":"41417","block":2,"time":"2021-09-22T12:13:22.457Z","response":"2nd","certainty":"high","char":"L","transposition":-2,"order":["swapped","shifted"],"probe_pitches":[1,5,3,-2,1,8,-2,1,8,-2,3,1,3,1,5,3],"shifted_pitches":[1,5,3,-2,1,8,-2,1,9,-2,3,1,3,1,5,3],"swapped_pitches":[1,5,3,-2,1,8,-2,8,1,-2,3,1,3,1,5,3],"shift_direction":1,"question_num":151,"has_decoy":false},{"rt":1973.6999999284744,"stimulus":"[A] option 1, [L] option 2, [G] neither","key_press":71,"name":"choice","trial_type":"html-keyboard-response","trial_index":186,"time_elapsed":435604,"internal_node_id":"0.0-186.0","subject":"S1C1638","sona":"41417","block":2,"time":"2021-09-22T12:13:22.457Z","response":"neither","certainty":"high","char":"G","transposition":0,"order":["shifted","swapped"],"probe_pitches":[8,3,10,3,8,3,10,1,-2,5,1,10,1,5,1,8],"shifted_pitches":[8,3,10,3,8,3,10,0,-2,5,1,10,1,5,1,8],"swapped_pitches":[8,3,10,3,8,3,10,-2,1,5,1,10,1,5,1,8],"shift_direction":-1,"question_num":161,"has_decoy":false},{"rt":1548.0999999046326,"stimulus":"[A] option 1, [L] option 2, [G] neither","key_press":71,"name":"choice","trial_type":"html-keyboard-response","trial_index":197,"time_elapsed":459563,"internal_node_id":"0.0-197.0","subject":"S1C1638","sona":"41417","block":2,"time":"2021-09-22T12:13:22.457Z","response":"neither","certainty":"high","char":"G","transposition":-2,"order":["shifted","swapped"],"probe_pitches":[8,3,0,-2,3,5,8,5,10,-2,0,5,3,-2,10,5],"shifted_pitches":[8,3,0,-2,3,5,8,5,11,-2,0,5,3,-2,10,5],"swapped_pitches":[8,3,0,-2,3,5,8,10,5,-2,0,5,3,-2,10,5],"shift_direction":1,"question_num":171,"has_decoy":false},{"rt":1842.6000000238419,"stimulus":"[A] option 1, [L] option 2, [G] neither","key_press":71,"name":"choice","trial_type":"html-keyboard-response","trial_index":208,"time_elapsed":483987,"internal_node_id":"0.0-208.0","subject":"S1C1638","sona":"41417","block":2,"time":"2021-09-22T12:13:22.457Z","response":"neither","certainty":"high","char":"G","transposition":-1,"order":["swapped","shifted"],"probe_pitches":[-2,0,3,10,5,3,7,-2,0,7,10,0,5,7,10,-2],"shifted_pitches":[-2,0,3,10,5,3,7,-3,0,7,10,0,5,7,10,-2],"swapped_pitches":[-2,0,3,10,5,3,7,0,-2,7,10,0,5,7,10,-2],"shift_direction":-1,"question_num":181,"has_decoy":false},{"rt":1675.6000000238419,"stimulus":"[A] option 1, [L] option 2, [G] neither","key_press":71,"name":"choice","trial_type":"html-keyboard-response","trial_index":219,"time_elapsed":507954,"internal_node_id":"0.0-219.0","subject":"S1C1638","sona":"41417","block":2,"time":"2021-09-22T12:13:22.457Z","response":"neither","certainty":"high","char":"G","transposition":-3,"order":["swapped","shifted"],"probe_pitches":[9,8,9,6,7,13,8,6,11,14,6,14,5,3,11,5],"shifted_pitches":[9,8,9,6,7,13,8,6,10,14,6,14,5,3,11,5],"swapped_pitches":[9,8,9,6,7,13,8,11,6,14,6,14,5,3,11,5],"shift_direction":-1,"question_num":191,"has_decoy":false}]