[{"rt":440.89999997615814,"stimulus":"[A] option 1, [L] option 2, [G] neither","key_press":65,"name":"choice","trial_type":"html-keyboard-response","trial_index":10,"time_elapsed":23318,"internal_node_id":"0.0-10.0","subject":"S1C1638","sona":"41417","block":4,"time":"2021-09-22T12:29:33.727Z","response":"1st","certainty":"high","char":"A","transposition":3,"order":["swapped","shifted"],"probe_pitches":[10,8,10,2,8,-2,-1,1,6,9,3,10,7,3,1,6],"shifted_pitches":[10,8,10,2,8,-2,-1,0,6,9,3,10,7,3,1,6],"swapped_pitches":[10,8,10,2,8,-2,-1,6,1,9,3,10,7,3,1,6],"shift_direction":-1,"question_num":1,"has_decoy":false},{"rt":1410.3000000715256,"stimulus":"[A] option 1, [L] option 2, [G] neither","key_press":76,"name":"choice","trial_type":"html-keyboard-response","trial_index":21,"time_elapsed":47024,"internal_node_id":"0.0-21.0","subject":"S1C1638","sona":"41417","block":4,"time":"2021-09-22T12:29:33.727Z","response":"2nd","certainty":"high","char":"L","transposition":3,"order":["swapped","shifted"],"probe_pitches":[10,5,8,15,10,3,13,8,5,3,13,10,13,15,5,8],"shifted_pitches":[10,5,8,15,10,3,13,7,5,3,13,10,13,15,5,8],"swapped_pitches":[10,5,8,15,10,3,13,5,8,3,13,10,13,15,5,8],"shift_direction":-1,"question_num":11,"has_decoy":false},{"rt":1500,"stimulus":"[A] option 1, [L] option 2, [G] neither","key_press":76,"name":"choice","trial_type":"html-keyboard-response","trial_index":32,"time_elapsed":70838,"internal_node_id":"0.0-32.0","subject":"S1C1638","sona":"41417","block":4,"time":"2021-09-22T12:29:33.727Z","response":"2nd","certainty":"high","char":"L","transposition":-1,"order":["swapped","shifted"],"probe_pitches":[15,12,15,10,5,8,15,3,8,5,10,8,12,5,8,15],"shifted_pitches":[15,12,15,10,5,8,15,2,8,5,10,8,12,5,8,15],"swapped_pitches":[15,12,15,10,5,8,15,8,3,5,10,8,12,5,8,15],"shift_direction":-1,"question_num":21,"has_decoy":false},{"rt":2065.3000000715256,"stimulus":"[A] option 1, [L] option 2, [G] neither","key_press":71,"name":"choice","trial_type":"html-keyboard-response","trial_index":43,"time_elapsed":95249,"internal_node_id":"0.0-43.0","subject":"S1C1638","sona":"41417","block":4,"time":"2021-09-22T12:29:33.727Z","response":"neither","certainty":"high","char":"G","transposition":-3,"order":["shifted","swapped"],"probe_pitches":[3,9,5,3,7,3,1,7,6,1,9,3,0,4,9,5],"shifted_pitches":[3,9,5,3,7,3,1,8,6,1,9,3,0,4,9,5],"swapped_pitches":[3,9,5,3,7,3,1,6,7,1,9,3,0,4,9,5],"shift_direction":1,"question_num":31,"has_decoy":false},{"rt":3224,"stimulus":"[A] option 1, [L] option 2, [G] neither","key_press":65,"name":"choice","trial_type":"html-keyboard-response","trial_index":54,"time_elapsed":121070,"internal_node_id":"0.0-54.0","subject":"S1C1638","sona":"41417","block":4,"time":"2021-09-22T12:29:33.727Z","response":"1st","certainty":"high","char":"A","transposition":0,"order":["shifted","swapped"],"probe_pitches":[6,5,-2,1,6,-2,4,8,-2,0,1,0,10,5,-1,2],"shifted_pitches":[6,5,-2,1,6,-2,4,9,-2,0,1,0,10,5,-1,2],"swapped_pitches":[6,5,-2,1,6,-2,4,-2,8,0,1,0,10,5,-1,2],"shift_direction":1,"question_num":41,"has_decoy":false},{"rt":1840.9000000953674,"stimulus":"[A] option 1, [L] option 2, [G] neither","key_press":71,"name":"choice","trial_type":"html-keyboard-response","trial_index":65,"time_elapsed":145447,"internal_node_id":"0.0-65.0","subject":"S1C1638","sona":"41417","block":4,"time":"2021-09-22T12:29:33.727Z","response":"neither","certainty":"high","char":"G","transposition":1,"order":["swapped","shifted"],"probe_pitches":[0,5,4,1,0,-1,-2,3,7,8,-2,10,7,-1,3,5],"shifted_pitches":[0,5,4,1,0,-1,-2,3,6,8,-2,10,7,-1,3,5],"swapped_pitches":[0,5,4,1,0,-1,-2,7,3,8,-2,10,7,-1,3,5],"shift_direction":-1,"question_num":51,"has_decoy":false},{"rt":2813.5999999046326,"stimulus":"[A] option 1, [L] option 2, [G] neither","key_press":76,"name":"choice","trial_type":"html-keyboard-response","trial_index":76,"time_elapsed":170533,"internal_node_id":"0.0-76.0","subject":"S1C1638","sona":"41417","block":4,"time":"2021-09-22T12:29:33.727Z","response":"2nd","certainty":"high","char":"L","transposition":0,"order":["shifted","swapped"],"probe_pitches":[10,8,10,15,8,13,10,3,8,13,15,8,5,13,10,5],"shifted_pitches":[10,8,10,15,8,13,10,3,7,13,15,8,5,13,10,5],"swapped_pitches":[10,8,10,15,8,13,10,8,3,13,15,8,5,13,10,5],"shift_direction":-1,"question_num":61,"has_decoy":false},{"rt":1639.8000000715256,"stimulus":"[A] option 1, [L] option 2, [G] neither","key_press":71,"name":"choice","trial_type":"html-keyboard-response","trial_index":87,"time_elapsed":194378,"internal_node_id":"0.0-87.0","subject":"S1C1638","sona":"41417","block":4,"time":"2021-09-22T12:29:33.727Z","response":"neither","certainty":"high","char":"G","transposition":-2,"order":["shifted","swapped"],"probe_pitches":[7,6,10,8,6,8,3,4,6,8,9,7,4,-1,6,1],"shifted_pitches":[7,6,10,8,6,8,3,4,5,8,9,7,4,-1,6,1],"swapped_pitches":[7,6,10,8,6,8,3,6,4,8,9,7,4,-1,6,1],"shift_direction":-1,"question_num":71,"has_decoy":false},{"rt":1693.7999999523163,"stimulus":"[A] option 1, [L] option 2, [G] neither","key_press":71,"name":"choice","trial_type":"html-keyboard-response","trial_index":98,"time_elapsed":218353,"internal_node_id":"0.0-98.0","subject":"S1C1638","sona":"41417","block":4,"time":"2021-09-22T12:29:33.727Z","response":"neither","certainty":"high","char":"G","transposition":2,"order":["shifted","swapped"],"probe_pitches":[3,7,5,3,10,12,3,7,12,10,5,3,15,10,15,7],"shifted_pitches":[3,7,5,3,10,12,3,7,11,10,5,3,15,10,15,7],"swapped_pitches":[3,7,5,3,10,12,3,12,7,10,5,3,15,10,15,7],"shift_direction":-1,"question_num":81,"has_decoy":false},{"rt":947.7000000476837,"stimulus":"[A] option 1, [L] option 2, [G] neither","key_press":76,"name":"choice","trial_type":"html-keyboard-response","trial_index":109,"time_elapsed":241592,"internal_node_id":"0.0-109.0","subject":"S1C1638","sona":"41417","block":4,"time":"2021-09-22T12:29:33.727Z","response":"2nd","certainty":"high","char":"L","transposition":-2,"order":["swapped","shifted"],"probe_pitches":[13,8,13,15,11,15,11,8,15,6,15,6,13,3,13,11],"shifted_pitches":[13,8,13,15,11,15,11,8,16,6,15,6,13,3,13,11],"swapped_pitches":[13,8,13,15,11,15,11,15,8,6,15,6,13,3,13,11],"shift_direction":1,"question_num":91,"has_decoy":false},{"rt":1564,"stimulus":"[A] option 1, [L] option 2, [G] neither","key_press":71,"name":"choice","trial_type":"html-keyboard-response","trial_index":120,"time_elapsed":265217,"internal_node_id":"0.0-120.0","subject":"S1C1638","sona":"41417","block":4,"time":"2021-09-22T12:29:33.727Z","response":"neither","certainty":"high","char":"G","transposition":-2,"order":["swapped","shifted"],"probe_pitches":[10,15,12,7,3,10,12,5,15,7,12,7,15,5,10,7],"shifted_pitches":[10,15,12,7,3,10,12,6,15,7,12,7,15,5,10,7],"swapped_pitches":[10,15,12,7,3,10,12,15,5,7,12,7,15,5,10,7],"shift_direction":1,"question_num":101,"has_decoy":false},{"rt":1632.8999999761581,"stimulus":"[A] option 1, [L] option 2, [G] neither","key_press":71,"name":"choice","trial_type":"html-keyboard-response","trial_index":131,"time_elapsed":289148,"internal_node_id":"0.0-131.0","subject":"S1C1638","sona":"41417","block":4,"time":"2021-09-22T12:29:33.727Z","response":"neither","certainty":"high","char":"G","transposition":1,"order":["shifted","swapped"],"probe_pitches":[15,10,5,10,15,8,15,10,12,8,12,15,10,5,3,12],"shifted_pitches":[15,10,5,10,15,8,15,10,13,8,12,15,10,5,3,12],"swapped_pitches":[15,10,5,10,15,8,15,12,10,8,12,15,10,5,3,12],"shift_direction":1,"question_num":111,"has_decoy":false},{"rt":1277.7999999523163,"stimulus":"[A] option 1, [L] option 2, [G] neither","key_press":71,"name":"choice","trial_type":"html-keyboard-response","trial_index":142,"time_elapsed":312799,"internal_node_id":"0.0-142.0","subject":"S1C1638","sona":"41417","block":4,"time":"2021-09-22T12:29:33.727Z","response":"neither","certainty":"high","char":"G","transposition":2,"order":["shifted","swapped"],"probe_pitches":[0,3,7,6,9,7,5,3,0,-1,8,1,5,-1,1,-2],"shifted_pitches":[0,3,7,6,9,7,5,4,0,-1,8,1,5,-1,1,-2],"swapped_pitches":[0,3,7,6,9,7,5,0,3,-1,8,1,5,-1,1,-2],"shift_direction":1,"question_num":121,"has_decoy":false},{"rt":1296.3000000715256,"stimulus":"[A] option 1, [L] option 2, [G] neither","key_press":71,"name":"choice","trial_type":"html-keyboard-response","trial_index":153,"time_elapsed":336263,"internal_node_id":"0.0-153.0","subject":"S1C1638","sona":"41417","block":4,"time":"2021-09-22T12:29:33.727Z","response":"neither","certainty":"high","char":"G","transposition":-3,"order":["shifted","swapped"],"probe_pitches":[13,8,11,3,8,3,13,15,11,13,8,6,11,13,6,11],"shifted_pitches":[13,8,11,3,8,3,13,16,11,13,8,6,11,13,6,11],"swapped_pitches":[13,8,11,3,8,3,13,11,15,13,8,6,11,13,6,11],"shift_direction":1,"question_num":131,"has_decoy":false},{"rt":1701.8000000715256,"stimulus":"[A] option 1, [L] option 2, [G] neither","key_press":71,"name":"choice","trial_type":"html-keyboard-response","trial_index":164,"time_elapsed":360285,"internal_node_id":"0.0-164.0","subject":"S1C1638","sona":"41417","block":4,"time":"2021-09-22T12:29:33.727Z","response":"neither","certainty":"high","char":"G","transposition":-3,"order":["shifted","swapped"],"probe_pitches":[10,15,10,6,15,6,15,3,10,8,3,8,6,3,8,13],"shifted_pitches":[10,15,10,6,15,6,15,3,9,8,3,8,6,3,8,13],"swapped_pitches":[10,15,10,6,15,6,15,10,3,8,3,8,6,3,8,13],"shift_direction":-1,"question_num":141,"has_decoy":false},{"rt":529,"stimulus":"[A] option 1, [L] option 2, [G] neither","key_press":65,"name":"choice","trial_type":"html-keyboard-response","trial_index":175,"time_elapsed":383097,"internal_node_id":"0.0-175.0","subject":"S1C1638","sona":"41417","block":4,"time":"2021-09-22T12:29:33.727Z","response":"1st","certainty":"high","char":"A","transposition":-1,"order":["shifted","swapped"],"probe_pitches":[8,5,4,-2,0,2,3,8,0,-1,8,9,5,0,8,7],"shifted_pitches":[8,5,4,-2,0,2,3,8,1,-1,8,9,5,0,8,7],"swapped_pitches":[8,5,4,-2,0,2,3,0,8,-1,8,9,5,0,8,7],"shift_direction":1,"question_num":151,"has_decoy":false},{"rt":1478.2000000476837,"stimulus":"[A] option 1, [L] option 2, [G] neither","key_press":71,"name":"choice","trial_type":"html-keyboard-response","trial_index":186,"time_elapsed":406959,"internal_node_id":"0.0-186.0","subject":"S1C1638","sona":"41417","block":4,"time":"2021-09-22T12:29:33.727Z","response":"neither","certainty":"high","char":"G","transposition":-1,"order":["swapped","shifted"],"probe_pitches":[6,8,15,8,3,13,10,3,8,13,6,15,10,8,6,10],"shifted_pitches":[6,8,15,8,3,13,10,4,8,13,6,15,10,8,6,10],"swapped_pitches":[6,8,15,8,3,13,10,8,3,13,6,15,10,8,6,10],"shift_direction":1,"question_num":161,"has_decoy":false},{"rt":1271.1000000238419,"stimulus":"[A] option 1, [L] option 2, [G] neither","key_press":65,"name":"choice","trial_type":"html-keyboard-response","trial_index":197,"time_elapsed":430625,"internal_node_id":"0.0-197.0","subject":"S1C1638","sona":"41417","block":4,"time":"2021-09-22T12:29:33.727Z","response":"1st","certainty":"high","char":"A","transposition":-1,"order":["swapped","shifted"],"probe_pitches":[1,-1,1,3,-1,6,-2,8,4,5,4,0,6,0,9,6],"shifted_pitches":[1,-1,1,3,-1,6,-2,7,4,5,4,0,6,0,9,6],"swapped_pitches":[1,-1,1,3,-1,6,-2,4,8,5,4,0,6,0,9,6],"shift_direction":-1,"question_num":171,"has_decoy":false},{"rt":376.59999990463257,"stimulus":"[A] option 1, [L] option 2, [G] neither","key_press":71,"name":"choice","trial_type":"html-keyboard-response","trial_index":208,"time_elapsed":453320,"internal_node_id":"0.0-208.0","subject":"S1C1638","sona":"41417","block":4,"time":"2021-09-22T12:29:33.727Z","response":"neither","certainty":"high","char":"G","transposition":-3,"order":["swapped","shifted"],"probe_pitches":[9,5,7,8,6,-2,5,4,1,8,5,0,-1,5,7,3],"shifted_pitches":[9,5,7,8,6,-2,5,4,2,8,5,0,-1,5,7,3],"swapped_pitches":[9,5,7,8,6,-2,5,1,4,8,5,0,-1,5,7,3],"shift_direction":1,"question_num":181,"has_decoy":false},{"rt":1709.8999999761581,"stimulus":"[A] option 1, [L] option 2, [G] neither","key_press":71,"name":"choice","trial_type":"html-keyboard-response","trial_index":219,"time_elapsed":477412,"internal_node_id":"0.0-219.0","subject":"S1C1638","sona":"41417","block":4,"time":"2021-09-22T12:29:33.727Z","response":"neither","certainty":"high","char":"G","transposition":-2,"order":["swapped","shifted"],"probe_pitches":[4,5,-2,4,2,-2,7,10,4,0,9,10,9,-2,0,6],"shifted_pitches":[4,5,-2,4,2,-2,7,10,3,0,9,10,9,-2,0,6],"swapped_pitches":[4,5,-2,4,2,-2,7,4,10,0,9,10,9,-2,0,6],"shift_direction":-1,"question_num":191,"has_decoy":false}]