[{"rt":1162.2999999523163,"stimulus":"[A] option 1, [L] option 2, [G] neither","key_press":76,"name":"choice","trial_type":"html-keyboard-response","trial_index":10,"time_elapsed":24712,"internal_node_id":"0.0-10.0","subject":"S1C1638","sona":"41417","block":6,"time":"2021-09-22T12:45:31.467Z","response":"2nd","certainty":"high","char":"L","transposition":-3,"order":["swapped","shifted"],"probe_pitches":[0,5,10,9,1,10,2,8,-2,6,9,1,0,6,-1,6],"shifted_pitches":[0,5,10,9,1,10,2,7,-2,6,9,1,0,6,-1,6],"swapped_pitches":[0,5,10,9,1,10,2,-2,8,6,9,1,0,6,-1,6],"shift_direction":-1,"question_num":1,"has_decoy":false},{"rt":1261.2999999523163,"stimulus":"[A] option 1, [L] option 2, [G] neither","key_press":71,"name":"choice","trial_type":"html-keyboard-response","trial_index":21,"time_elapsed":48485,"internal_node_id":"0.0-21.0","subject":"S1C1638","sona":"41417","block":6,"time":"2021-09-22T12:45:31.467Z","response":"neither","certainty":"high","char":"G","transposition":-3,"order":["shifted","swapped"],"probe_pitches":[2,6,4,2,6,9,11,14,9,4,2,9,4,9,14,11],"shifted_pitches":[2,6,4,2,6,9,11,15,9,4,2,9,4,9,14,11],"swapped_pitches":[2,6,4,2,6,9,11,9,14,4,2,9,4,9,14,11],"shift_direction":1,"question_num":11,"has_decoy":false},{"rt":1709,"stimulus":"[A] option 1, [L] option 2, [G] neither","key_press":71,"name":"choice","trial_type":"html-keyboard-response","trial_index":32,"time_elapsed":72256,"internal_node_id":"0.0-32.0","subject":"S1C1638","sona":"41417","block":6,"time":"2021-09-22T12:45:31.467Z","response":"neither","certainty":"high","char":"G","transposition":-1,"order":["shifted","swapped"],"probe_pitches":[9,3,1,7,9,4,2,-2,6,9,4,8,-1,7,0,8],"shifted_pitches":[9,3,1,7,9,4,2,-2,5,9,4,8,-1,7,0,8],"swapped_pitches":[9,3,1,7,9,4,2,6,-2,9,4,8,-1,7,0,8],"shift_direction":-1,"question_num":21,"has_decoy":false},{"rt":1576.3000000715256,"stimulus":"[A] option 1, [L] option 2, [G] neither","key_press":71,"name":"choice","trial_type":"html-keyboard-response","trial_index":43,"time_elapsed":96193,"internal_node_id":"0.0-43.0","subject":"S1C1638","sona":"41417","block":6,"time":"2021-09-22T12:45:31.467Z","response":"neither","certainty":"high","char":"G","transposition":-1,"order":["swapped","shifted"],"probe_pitches":[2,8,2,0,3,-2,4,0,10,3,6,2,4,9,3,4],"shifted_pitches":[2,8,2,0,3,-2,4,1,10,3,6,2,4,9,3,4],"swapped_pitches":[2,8,2,0,3,-2,4,10,0,3,6,2,4,9,3,4],"shift_direction":1,"question_num":31,"has_decoy":false},{"rt":419.39999997615814,"stimulus":"[A] option 1, [L] option 2, [G] neither","key_press":71,"name":"choice","trial_type":"html-keyboard-response","trial_index":54,"time_elapsed":118888,"internal_node_id":"0.0-54.0","subject":"S1C1638","sona":"41417","block":6,"time":"2021-09-22T12:45:31.467Z","response":"neither","certainty":"high","char":"G","transposition":1,"order":["shifted","swapped"],"probe_pitches":[10,9,10,4,-1,8,-1,3,5,9,1,3,8,9,2,8],"shifted_pitches":[10,9,10,4,-1,8,-1,3,6,9,1,3,8,9,2,8],"swapped_pitches":[10,9,10,4,-1,8,-1,5,3,9,1,3,8,9,2,8],"shift_direction":1,"question_num":41,"has_decoy":false},{"rt":1501,"stimulus":"[A] option 1, [L] option 2, [G] neither","key_press":71,"name":"choice","trial_type":"html-keyboard-response","trial_index":65,"time_elapsed":142658,"internal_node_id":"0.0-65.0","subject":"S1C1638","sona":"41417","block":6,"time":"2021-09-22T12:45:31.467Z","response":"neither","certainty":"high","char":"G","transposition":-1,"order":["swapped","shifted"],"probe_pitches":[14,11,14,9,11,2,11,14,4,9,11,4,7,14,2,11],"shifted_pitches":[14,11,14,9,11,2,11,15,4,9,11,4,7,14,2,11],"swapped_pitches":[14,11,14,9,11,2,11,4,14,9,11,4,7,14,2,11],"shift_direction":1,"question_num":51,"has_decoy":false},{"rt":1457.1000000238419,"stimulus":"[A] option 1, [L] option 2, [G] neither","key_press":71,"name":"choice","trial_type":"html-keyboard-response","trial_index":76,"time_elapsed":166439,"internal_node_id":"0.0-76.0","subject":"S1C1638","sona":"41417","block":6,"time":"2021-09-22T12:45:31.467Z","response":"neither","certainty":"high","char":"G","transposition":-1,"order":["swapped","shifted"],"probe_pitches":[12,9,12,4,7,14,7,12,4,14,2,9,7,9,2,14],"shifted_pitches":[12,9,12,4,7,14,7,13,4,14,2,9,7,9,2,14],"swapped_pitches":[12,9,12,4,7,14,7,4,12,14,2,9,7,9,2,14],"shift_direction":1,"question_num":61,"has_decoy":false},{"rt":1507.2999999523163,"stimulus":"[A] option 1, [L] option 2, [G] neither","key_press":71,"name":"choice","trial_type":"html-keyboard-response","trial_index":87,"time_elapsed":190372,"internal_node_id":"0.0-87.0","subject":"S1C1638","sona":"41417","block":6,"time":"2021-09-22T12:45:31.467Z","response":"neither","certainty":"high","char":"G","transposition":2,"order":["swapped","shifted"],"probe_pitches":[9,14,9,11,9,2,4,7,9,4,14,4,7,11,7,11],"shifted_pitches":[9,14,9,11,9,2,4,7,8,4,14,4,7,11,7,11],"swapped_pitches":[9,14,9,11,9,2,4,9,7,4,14,4,7,11,7,11],"shift_direction":-1,"question_num":71,"has_decoy":false},{"rt":889.2999999523163,"stimulus":"[A] option 1, [L] option 2, [G] neither","key_press":71,"name":"choice","trial_type":"html-keyboard-response","trial_index":98,"time_elapsed":213563,"internal_node_id":"0.0-98.0","subject":"S1C1638","sona":"41417","block":6,"time":"2021-09-22T12:45:31.467Z","response":"neither","certainty":"high","char":"G","transposition":-2,"order":["shifted","swapped"],"probe_pitches":[10,7,0,-2,3,-1,6,0,9,5,-1,-2,-1,9,5,10],"shifted_pitches":[10,7,0,-2,3,-1,6,0,8,5,-1,-2,-1,9,5,10],"swapped_pitches":[10,7,0,-2,3,-1,6,9,0,5,-1,-2,-1,9,5,10],"shift_direction":-1,"question_num":81,"has_decoy":false},{"rt":1520.8000000715256,"stimulus":"[A] option 1, [L] option 2, [G] neither","key_press":71,"name":"choice","trial_type":"html-keyboard-response","trial_index":109,"time_elapsed":237470,"internal_node_id":"0.0-109.0","subject":"S1C1638","sona":"41417","block":6,"time":"2021-09-22T12:45:31.467Z","response":"neither","certainty":"high","char":"G","transposition":-3,"order":["swapped","shifted"],"probe_pitches":[11,9,6,11,14,6,14,4,6,2,14,4,14,11,14,4],"shifted_pitches":[11,9,6,11,14,6,14,4,5,2,14,4,14,11,14,4],"swapped_pitches":[11,9,6,11,14,6,14,6,4,2,14,4,14,11,14,4],"shift_direction":-1,"question_num":91,"has_decoy":false},{"rt":1738.6000000238419,"stimulus":"[A] option 1, [L] option 2, [G] neither","key_press":71,"name":"choice","trial_type":"html-keyboard-response","trial_index":120,"time_elapsed":261683,"internal_node_id":"0.0-120.0","subject":"S1C1638","sona":"41417","block":6,"time":"2021-09-22T12:45:31.467Z","response":"neither","certainty":"high","char":"G","transposition":-3,"order":["shifted","swapped"],"probe_pitches":[6,7,3,7,8,6,3,1,5,10,-1,4,10,4,1,2],"shifted_pitches":[6,7,3,7,8,6,3,0,5,10,-1,4,10,4,1,2],"swapped_pitches":[6,7,3,7,8,6,3,5,1,10,-1,4,10,4,1,2],"shift_direction":-1,"question_num":101,"has_decoy":false},{"rt":1024.6000000238419,"stimulus":"[A] option 1, [L] option 2, [G] neither","key_press":71,"name":"choice","trial_type":"html-keyboard-response","trial_index":131,"time_elapsed":285242,"internal_node_id":"0.0-131.0","subject":"S1C1638","sona":"41417","block":6,"time":"2021-09-22T12:45:31.467Z","response":"neither","certainty":"high","char":"G","transposition":0,"order":["shifted","swapped"],"probe_pitches":[1,0,4,5,3,8,3,1,6,-2,5,0,5,1,7,8],"shifted_pitches":[1,0,4,5,3,8,3,2,6,-2,5,0,5,1,7,8],"swapped_pitches":[1,0,4,5,3,8,3,6,1,-2,5,0,5,1,7,8],"shift_direction":1,"question_num":111,"has_decoy":false},{"rt":1223.8000000715256,"stimulus":"[A] option 1, [L] option 2, [G] neither","key_press":71,"name":"choice","trial_type":"html-keyboard-response","trial_index":142,"time_elapsed":308690,"internal_node_id":"0.0-142.0","subject":"S1C1638","sona":"41417","block":6,"time":"2021-09-22T12:45:31.467Z","response":"neither","certainty":"high","char":"G","transposition":2,"order":["swapped","shifted"],"probe_pitches":[6,5,4,8,0,10,9,2,7,9,6,9,-1,8,1,9],"shifted_pitches":[6,5,4,8,0,10,9,3,7,9,6,9,-1,8,1,9],"swapped_pitches":[6,5,4,8,0,10,9,7,2,9,6,9,-1,8,1,9],"shift_direction":1,"question_num":121,"has_decoy":false},{"rt":409.7000000476837,"stimulus":"[A] option 1, [L] option 2, [G] neither","key_press":71,"name":"choice","trial_type":"html-keyboard-response","trial_index":153,"time_elapsed":331300,"internal_node_id":"0.0-153.0","subject":"S1C1638","sona":"41417","block":6,"time":"2021-09-22T12:45:31.467Z","response":"neither","certainty":"high","char":"G","transposition":-2,"order":["shifted","swapped"],"probe_pitches":[2,5,12,10,7,2,12,7,14,5,2,14,5,14,12,14],"shifted_pitches":[2,5,12,10,7,2,12,7,15,5,2,14,5,14,12,14],"swapped_pitches":[2,5,12,10,7,2,12,14,7,5,2,14,5,14,12,14],"shift_direction":1,"question_num":131,"has_decoy":false},{"rt":1307.7000000476837,"stimulus":"[A] option 1, [L] option 2, [G] neither","key_press":71,"name":"choice","trial_type":"html-keyboard-response","trial_index":164,"time_elapsed":354839,"internal_node_id":"0.0-164.0","subject":"S1C1638","sona":"41417","block":6,"time":"2021-09-22T12:45:31.467Z","response":"neither","certainty":"high","char":"G","transposition":-2,"order":["swapped","shifted"],"probe_pitches":[-1,2,0,7,1,4,3,0,8,2,8,3,8,-2,2,3],"shifted_pitches":[-1,2,0,7,1,4,3,0,9,2,8,3,8,-2,2,3],"swapped_pitches":[-1,2,0,7,1,4,3,8,0,2,8,3,8,-2,2,3],"shift_direction":1,"question_num":141,"has_decoy":false},{"rt":1446.8999999761581,"stimulus":"[A] option 1, [L] option 2, [G] neither","key_press":71,"name":"choice","trial_type":"html-keyboard-response","trial_index":175,"time_elapsed":378550,"internal_node_id":"0.0-175.0","subject":"S1C1638","sona":"41417","block":6,"time":"2021-09-22T12:45:31.467Z","response":"neither","certainty":"high","char":"G","transposition":0,"order":["shifted","swapped"],"probe_pitches":[5,7,12,7,2,12,2,14,12,7,5,7,9,2,12,9],"shifted_pitches":[5,7,12,7,2,12,2,13,12,7,5,7,9,2,12,9],"swapped_pitches":[5,7,12,7,2,12,2,12,14,7,5,7,9,2,12,9],"shift_direction":-1,"question_num":151,"has_decoy":false},{"rt":1407.7999999523163,"stimulus":"[A] option 1, [L] option 2, [G] neither","key_press":71,"name":"choice","trial_type":"html-keyboard-response","trial_index":186,"time_elapsed":402077,"internal_node_id":"0.0-186.0","subject":"S1C1638","sona":"41417","block":6,"time":"2021-09-22T12:45:31.467Z","response":"neither","certainty":"high","char":"G","transposition":3,"order":["shifted","swapped"],"probe_pitches":[12,14,7,9,2,5,12,5,2,12,9,12,14,5,14,5],"shifted_pitches":[12,14,7,9,2,5,12,4,2,12,9,12,14,5,14,5],"swapped_pitches":[12,14,7,9,2,5,12,2,5,12,9,12,14,5,14,5],"shift_direction":-1,"question_num":161,"has_decoy":false},{"rt":1072.0999999046326,"stimulus":"[A] option 1, [L] option 2, [G] neither","key_press":71,"name":"choice","trial_type":"html-keyboard-response","trial_index":197,"time_elapsed":425496,"internal_node_id":"0.0-197.0","subject":"S1C1638","sona":"41417","block":6,"time":"2021-09-22T12:45:31.467Z","response":"neither","certainty":"high","char":"G","transposition":1,"order":["swapped","shifted"],"probe_pitches":[14,9,7,2,7,4,9,4,12,9,12,4,2,4,2,7],"shifted_pitches":[14,9,7,2,7,4,9,4,13,9,12,4,2,4,2,7],"swapped_pitches":[14,9,7,2,7,4,9,12,4,9,12,4,2,4,2,7],"shift_direction":1,"question_num":171,"has_decoy":false},{"rt":1703.6000000238419,"stimulus":"[A] option 1, [L] option 2, [G] neither","key_press":71,"name":"choice","trial_type":"html-keyboard-response","trial_index":208,"time_elapsed":449510,"internal_node_id":"0.0-208.0","subject":"S1C1638","sona":"41417","block":6,"time":"2021-09-22T12:45:31.467Z","response":"neither","certainty":"high","char":"G","transposition":-2,"order":["shifted","swapped"],"probe_pitches":[7,5,12,14,5,10,7,12,14,10,12,10,2,14,7,14],"shifted_pitches":[7,5,12,14,5,10,7,12,13,10,12,10,2,14,7,14],"swapped_pitches":[7,5,12,14,5,10,7,14,12,10,12,10,2,14,7,14],"shift_direction":-1,"question_num":181,"has_decoy":false},{"rt":1091.7000000476837,"stimulus":"[A] option 1, [L] option 2, [G] neither","key_press":71,"name":"choice","trial_type":"html-keyboard-response","trial_index":219,"time_elapsed":473417,"internal_node_id":"0.0-219.0","subject":"S1C1638","sona":"41417","block":6,"time":"2021-09-22T12:45:31.467Z","response":"neither","certainty":"high","char":"G","transposition":3,"order":["swapped","shifted"],"probe_pitches":[9,8,2,10,1,-1,9,10,5,2,-2,-1,0,6,5,7],"shifted_pitches":[9,8,2,10,1,-1,9,10,4,2,-2,-1,0,6,5,7],"swapped_pitches":[9,8,2,10,1,-1,9,5,10,2,-2,-1,0,6,5,7],"shift_direction":-1,"question_num":191,"has_decoy":false}]