[{"rt":1785.1999999284744,"stimulus":"[A] option 1, [L] option 2, [G] neither","key_press":71,"name":"choice","trial_type":"html-keyboard-response","trial_index":10,"time_elapsed":24361,"internal_node_id":"0.0-10.0","subject":"S1C1638","sona":"41417","block":5,"time":"2021-09-22T12:37:35.283Z","response":"neither","certainty":"high","char":"G","transposition":-3,"order":["shifted","swapped"],"probe_pitches":[-1,4,-1,-3,4,-3,1,9,-3,6,9,-3,-1,4,-3,1],"shifted_pitches":[-1,4,-1,-3,4,-3,1,9,-2,6,9,-3,-1,4,-3,1],"swapped_pitches":[-1,4,-1,-3,4,-3,1,-3,9,6,9,-3,-1,4,-3,1],"shift_direction":1,"question_num":1,"has_decoy":false},{"rt":1062.7000000476837,"stimulus":"[A] option 1, [L] option 2, [G] neither","key_press":71,"name":"choice","trial_type":"html-keyboard-response","trial_index":21,"time_elapsed":47740,"internal_node_id":"0.0-21.0","subject":"S1C1638","sona":"41417","block":5,"time":"2021-09-22T12:37:35.283Z","response":"neither","certainty":"high","char":"G","transposition":-3,"order":["shifted","swapped"],"probe_pitches":[11,15,14,6,3,13,5,11,9,13,7,11,5,11,7,6],"shifted_pitches":[11,15,14,6,3,13,5,12,9,13,7,11,5,11,7,6],"swapped_pitches":[11,15,14,6,3,13,5,9,11,13,7,11,5,11,7,6],"shift_direction":1,"question_num":11,"has_decoy":false},{"rt":1471.5,"stimulus":"[A] option 1, [L] option 2, [G] neither","key_press":71,"name":"choice","trial_type":"html-keyboard-response","trial_index":32,"time_elapsed":71351,"internal_node_id":"0.0-32.0","subject":"S1C1638","sona":"41417","block":5,"time":"2021-09-22T12:37:35.283Z","response":"neither","certainty":"high","char":"G","transposition":-3,"order":["swapped","shifted"],"probe_pitches":[8,10,6,8,11,15,9,15,8,13,10,15,10,11,12,5],"shifted_pitches":[8,10,6,8,11,15,9,15,7,13,10,15,10,11,12,5],"swapped_pitches":[8,10,6,8,11,15,9,8,15,13,10,15,10,11,12,5],"shift_direction":-1,"question_num":21,"has_decoy":false},{"rt":1495.9000000953674,"stimulus":"[A] option 1, [L] option 2, [G] neither","key_press":71,"name":"choice","trial_type":"html-keyboard-response","trial_index":43,"time_elapsed":95172,"internal_node_id":"0.0-43.0","subject":"S1C1638","sona":"41417","block":5,"time":"2021-09-22T12:37:35.283Z","response":"neither","certainty":"high","char":"G","transposition":1,"order":["shifted","swapped"],"probe_pitches":[14,15,9,3,7,6,7,12,15,8,13,4,14,4,15,6],"shifted_pitches":[14,15,9,3,7,6,7,11,15,8,13,4,14,4,15,6],"swapped_pitches":[14,15,9,3,7,6,7,15,12,8,13,4,14,4,15,6],"shift_direction":-1,"question_num":31,"has_decoy":false},{"rt":1579.6999999284744,"stimulus":"[A] option 1, [L] option 2, [G] neither","key_press":71,"name":"choice","trial_type":"html-keyboard-response","trial_index":54,"time_elapsed":118910,"internal_node_id":"0.0-54.0","subject":"S1C1638","sona":"41417","block":5,"time":"2021-09-22T12:37:35.283Z","response":"neither","certainty":"high","char":"G","transposition":-2,"order":["swapped","shifted"],"probe_pitches":[10,7,10,15,8,11,13,15,5,10,4,15,5,12,10,14],"shifted_pitches":[10,7,10,15,8,11,13,15,6,10,4,15,5,12,10,14],"swapped_pitches":[10,7,10,15,8,11,13,5,15,10,4,15,5,12,10,14],"shift_direction":1,"question_num":41,"has_decoy":false},{"rt":1303.8999999761581,"stimulus":"[A] option 1, [L] option 2, [G] neither","key_press":71,"name":"choice","trial_type":"html-keyboard-response","trial_index":65,"time_elapsed":142561,"internal_node_id":"0.0-65.0","subject":"S1C1638","sona":"41417","block":5,"time":"2021-09-22T12:37:35.283Z","response":"neither","certainty":"high","char":"G","transposition":2,"order":["swapped","shifted"],"probe_pitches":[2,-1,2,7,4,9,2,9,-3,-1,7,-3,7,9,4,2],"shifted_pitches":[2,-1,2,7,4,9,2,9,-2,-1,7,-3,7,9,4,2],"swapped_pitches":[2,-1,2,7,4,9,2,-3,9,-1,7,-3,7,9,4,2],"shift_direction":1,"question_num":51,"has_decoy":false},{"rt":1904.8999999761581,"stimulus":"[A] option 1, [L] option 2, [G] neither","key_press":71,"name":"choice","trial_type":"html-keyboard-response","trial_index":76,"time_elapsed":166741,"internal_node_id":"0.0-76.0","subject":"S1C1638","sona":"41417","block":5,"time":"2021-09-22T12:37:35.283Z","response":"neither","certainty":"high","char":"G","transposition":-1,"order":["swapped","shifted"],"probe_pitches":[-1,4,-1,2,9,2,-1,4,9,6,-1,4,9,-3,4,6],"shifted_pitches":[-1,4,-1,2,9,2,-1,3,9,6,-1,4,9,-3,4,6],"swapped_pitches":[-1,4,-1,2,9,2,-1,9,4,6,-1,4,9,-3,4,6],"shift_direction":-1,"question_num":61,"has_decoy":false},{"rt":1032.3000000715256,"stimulus":"[A] option 1, [L] option 2, [G] neither","key_press":71,"name":"choice","trial_type":"html-keyboard-response","trial_index":87,"time_elapsed":190088,"internal_node_id":"0.0-87.0","subject":"S1C1638","sona":"41417","block":5,"time":"2021-09-22T12:37:35.283Z","response":"neither","certainty":"high","char":"G","transposition":0,"order":["shifted","swapped"],"probe_pitches":[4,0,4,-3,2,-3,7,-3,2,4,0,-3,7,9,2,4],"shifted_pitches":[4,0,4,-3,2,-3,7,-4,2,4,0,-3,7,9,2,4],"swapped_pitches":[4,0,4,-3,2,-3,7,2,-3,4,0,-3,7,9,2,4],"shift_direction":-1,"question_num":71,"has_decoy":false},{"rt":1334.1000000238419,"stimulus":"[A] option 1, [L] option 2, [G] neither","key_press":76,"name":"choice","trial_type":"html-keyboard-response","trial_index":98,"time_elapsed":213521,"internal_node_id":"0.0-98.0","subject":"S1C1638","sona":"41417","block":5,"time":"2021-09-22T12:37:35.283Z","response":"2nd","certainty":"high","char":"L","transposition":2,"order":["shifted","swapped"],"probe_pitches":[10,7,11,10,8,15,6,11,4,7,8,14,8,7,14,7],"shifted_pitches":[10,7,11,10,8,15,6,11,5,7,8,14,8,7,14,7],"swapped_pitches":[10,7,11,10,8,15,6,4,11,7,8,14,8,7,14,7],"shift_direction":1,"question_num":81,"has_decoy":false},{"rt":1614.1000000238419,"stimulus":"[A] option 1, [L] option 2, [G] neither","key_press":71,"name":"choice","trial_type":"html-keyboard-response","trial_index":109,"time_elapsed":237530,"internal_node_id":"0.0-109.0","subject":"S1C1638","sona":"41417","block":5,"time":"2021-09-22T12:37:35.283Z","response":"neither","certainty":"high","char":"G","transposition":-2,"order":["swapped","shifted"],"probe_pitches":[-3,2,7,2,7,5,-3,5,0,-3,5,9,2,9,0,5],"shifted_pitches":[-3,2,7,2,7,5,-3,5,-1,-3,5,9,2,9,0,5],"swapped_pitches":[-3,2,7,2,7,5,-3,0,5,-3,5,9,2,9,0,5],"shift_direction":-1,"question_num":91,"has_decoy":false},{"rt":1467.3999999761581,"stimulus":"[A] option 1, [L] option 2, [G] neither","key_press":71,"name":"choice","trial_type":"html-keyboard-response","trial_index":120,"time_elapsed":261755,"internal_node_id":"0.0-120.0","subject":"S1C1638","sona":"41417","block":5,"time":"2021-09-22T12:37:35.283Z","response":"neither","certainty":"high","char":"G","transposition":-2,"order":["swapped","shifted"],"probe_pitches":[0,-3,2,7,2,0,5,7,2,9,-3,0,-3,5,-3,9],"shifted_pitches":[0,-3,2,7,2,0,5,7,3,9,-3,0,-3,5,-3,9],"swapped_pitches":[0,-3,2,7,2,0,5,2,7,9,-3,0,-3,5,-3,9],"shift_direction":1,"question_num":101,"has_decoy":false},{"rt":1815.3000000715256,"stimulus":"[A] option 1, [L] option 2, [G] neither","key_press":71,"name":"choice","trial_type":"html-keyboard-response","trial_index":131,"time_elapsed":285893,"internal_node_id":"0.0-131.0","subject":"S1C1638","sona":"41417","block":5,"time":"2021-09-22T12:37:35.283Z","response":"neither","certainty":"high","char":"G","transposition":-2,"order":["shifted","swapped"],"probe_pitches":[6,9,11,14,5,15,5,12,9,3,11,7,5,3,10,11],"shifted_pitches":[6,9,11,14,5,15,5,13,9,3,11,7,5,3,10,11],"swapped_pitches":[6,9,11,14,5,15,5,9,12,3,11,7,5,3,10,11],"shift_direction":1,"question_num":111,"has_decoy":false},{"rt":1507.2000000476837,"stimulus":"[A] option 1, [L] option 2, [G] neither","key_press":76,"name":"choice","trial_type":"html-keyboard-response","trial_index":142,"time_elapsed":309708,"internal_node_id":"0.0-142.0","subject":"S1C1638","sona":"41417","block":5,"time":"2021-09-22T12:37:35.283Z","response":"2nd","certainty":"high","char":"L","transposition":0,"order":["swapped","shifted"],"probe_pitches":[15,14,8,7,11,5,10,8,7,4,15,11,15,3,6,11],"shifted_pitches":[15,14,8,7,11,5,10,9,7,4,15,11,15,3,6,11],"swapped_pitches":[15,14,8,7,11,5,10,7,8,4,15,11,15,3,6,11],"shift_direction":1,"question_num":121,"has_decoy":false},{"rt":992.2999999523163,"stimulus":"[A] option 1, [L] option 2, [G] neither","key_press":71,"name":"choice","trial_type":"html-keyboard-response","trial_index":153,"time_elapsed":333065,"internal_node_id":"0.0-153.0","subject":"S1C1638","sona":"41417","block":5,"time":"2021-09-22T12:37:35.283Z","response":"neither","certainty":"high","char":"G","transposition":3,"order":["swapped","shifted"],"probe_pitches":[-3,2,0,7,9,2,-3,2,9,-3,0,-3,4,9,2,9],"shifted_pitches":[-3,2,0,7,9,2,-3,1,9,-3,0,-3,4,9,2,9],"swapped_pitches":[-3,2,0,7,9,2,-3,9,2,-3,0,-3,4,9,2,9],"shift_direction":-1,"question_num":131,"has_decoy":false},{"rt":1621.6000000238419,"stimulus":"[A] option 1, [L] option 2, [G] neither","key_press":71,"name":"choice","trial_type":"html-keyboard-response","trial_index":164,"time_elapsed":357104,"internal_node_id":"0.0-164.0","subject":"S1C1638","sona":"41417","block":5,"time":"2021-09-22T12:37:35.283Z","response":"neither","certainty":"high","char":"G","transposition":-1,"order":["shifted","swapped"],"probe_pitches":[4,2,9,7,9,-1,4,2,9,4,7,2,7,2,7,4],"shifted_pitches":[4,2,9,7,9,-1,4,3,9,4,7,2,7,2,7,4],"swapped_pitches":[4,2,9,7,9,-1,4,9,2,4,7,2,7,2,7,4],"shift_direction":1,"question_num":141,"has_decoy":false},{"rt":1321.8999999761581,"stimulus":"[A] option 1, [L] option 2, [G] neither","key_press":71,"name":"choice","trial_type":"html-keyboard-response","trial_index":175,"time_elapsed":380783,"internal_node_id":"0.0-175.0","subject":"S1C1638","sona":"41417","block":5,"time":"2021-09-22T12:37:35.283Z","response":"neither","certainty":"high","char":"G","transposition":-1,"order":["shifted","swapped"],"probe_pitches":[12,15,10,11,8,5,9,3,6,4,6,12,9,3,12,8],"shifted_pitches":[12,15,10,11,8,5,9,2,6,4,6,12,9,3,12,8],"swapped_pitches":[12,15,10,11,8,5,9,6,3,4,6,12,9,3,12,8],"shift_direction":-1,"question_num":151,"has_decoy":false},{"rt":3033.100000023842,"stimulus":"[A] option 1, [L] option 2, [G] neither","key_press":71,"name":"choice","trial_type":"html-keyboard-response","trial_index":186,"time_elapsed":405866,"internal_node_id":"0.0-186.0","subject":"S1C1638","sona":"41417","block":5,"time":"2021-09-22T12:37:35.283Z","response":"neither","certainty":"high","char":"G","transposition":3,"order":["swapped","shifted"],"probe_pitches":[3,5,3,5,7,3,14,7,9,10,6,14,9,14,6,14],"shifted_pitches":[3,5,3,5,7,3,14,7,8,10,6,14,9,14,6,14],"swapped_pitches":[3,5,3,5,7,3,14,9,7,10,6,14,9,14,6,14],"shift_direction":-1,"question_num":161,"has_decoy":false},{"rt":1873.7999999523163,"stimulus":"[A] option 1, [L] option 2, [G] neither","key_press":71,"name":"choice","trial_type":"html-keyboard-response","trial_index":197,"time_elapsed":430249,"internal_node_id":"0.0-197.0","subject":"S1C1638","sona":"41417","block":5,"time":"2021-09-22T12:37:35.283Z","response":"neither","certainty":"high","char":"G","transposition":-1,"order":["swapped","shifted"],"probe_pitches":[13,12,13,12,13,5,13,9,11,12,7,14,15,13,4,15],"shifted_pitches":[13,12,13,12,13,5,13,9,10,12,7,14,15,13,4,15],"swapped_pitches":[13,12,13,12,13,5,13,11,9,12,7,14,15,13,4,15],"shift_direction":-1,"question_num":171,"has_decoy":false},{"rt":1229.3000000715256,"stimulus":"[A] option 1, [L] option 2, [G] neither","key_press":71,"name":"choice","trial_type":"html-keyboard-response","trial_index":208,"time_elapsed":453589,"internal_node_id":"0.0-208.0","subject":"S1C1638","sona":"41417","block":5,"time":"2021-09-22T12:37:35.283Z","response":"neither","certainty":"high","char":"G","transposition":-3,"order":["shifted","swapped"],"probe_pitches":[1,-3,-1,-3,4,-3,1,4,6,-1,6,9,6,1,-1,1],"shifted_pitches":[1,-3,-1,-3,4,-3,1,4,7,-1,6,9,6,1,-1,1],"swapped_pitches":[1,-3,-1,-3,4,-3,1,6,4,-1,6,9,6,1,-1,1],"shift_direction":1,"question_num":181,"has_decoy":false},{"rt":2403.8000000715256,"stimulus":"[A] option 1, [L] option 2, [G] neither","key_press":71,"name":"choice","trial_type":"html-keyboard-response","trial_index":219,"time_elapsed":478369,"internal_node_id":"0.0-219.0","subject":"S1C1638","sona":"41417","block":5,"time":"2021-09-22T12:37:35.283Z","response":"neither","certainty":"high","char":"G","transposition":1,"order":["shifted","swapped"],"probe_pitches":[4,-1,-3,-1,2,-1,2,9,-3,4,-1,4,-3,-1,4,6],"shifted_pitches":[4,-1,-3,-1,2,-1,2,8,-3,4,-1,4,-3,-1,4,6],"swapped_pitches":[4,-1,-3,-1,2,-1,2,-3,9,4,-1,4,-3,-1,4,6],"shift_direction":-1,"question_num":191,"has_decoy":false}]