[{"rt":7800.5,"stimulus":"[A] option 1, [L] option 2, [G] neither","key_press":71,"name":"choice","trial_type":"html-keyboard-response","trial_index":15,"time_elapsed":59467,"internal_node_id":"0.0-15.0","response":"neither","certainty":"high","char":"G","transposition":3,"order":["shifted","swapped"],"probe_pitches":[-1,3,8,4,9,6,-2,6,-1,7,2,9,1,2,0,-2],"shifted_pitches":[-1,3,8,4,9,6,-2,5,-1,7,2,9,1,2,0,-2],"swapped_pitches":[-1,3,8,4,9,6,-2,-1,6,7,2,9,1,2,0,-2],"shift_direction":-1,"question_num":1,"has_decoy":false,"subject":"S1C1638","sona":"41417","block":1,"time":"2021-09-22T12:04:50.250Z"},{"rt":3339.100000023842,"stimulus":"[A] option 1, [L] option 2, [G] neither","key_press":71,"name":"choice","trial_type":"html-keyboard-response","trial_index":26,"time_elapsed":87049,"internal_node_id":"0.0-26.0","response":"neither","certainty":"high","char":"G","transposition":-1,"order":["shifted","swapped"],"probe_pitches":[6,1,8,1,3,8,1,-1,6,1,3,1,-1,11,1,11],"shifted_pitches":[6,1,8,1,3,8,1,-1,5,1,3,1,-1,11,1,11],"swapped_pitches":[6,1,8,1,3,8,1,6,-1,1,3,1,-1,11,1,11],"shift_direction":-1,"question_num":11,"has_decoy":false,"subject":"S1C1638","sona":"41417","block":1,"time":"2021-09-22T12:04:50.250Z"},{"rt":1528.8999999761581,"stimulus":"[A] option 1, [L] option 2, [G] neither","key_press":76,"name":"choice","trial_type":"html-keyboard-response","trial_index":37,"time_elapsed":114423,"internal_node_id":"0.0-37.0","response":"2nd","certainty":"high","char":"L","transposition":-2,"order":["swapped","shifted"],"probe_pitches":[0,-2,-1,0,-3,4,5,-3,0,6,4,0,-1,9,0,6],"shifted_pitches":[0,-2,-1,0,-3,4,5,-3,1,6,4,0,-1,9,0,6],"swapped_pitches":[0,-2,-1,0,-3,4,5,0,-3,6,4,0,-1,9,0,6],"shift_direction":1,"question_num":21,"has_decoy":false,"subject":"S1C1638","sona":"41417","block":1,"time":"2021-09-22T12:04:50.250Z"},{"rt":1592.8999999761581,"stimulus":"[A] option 1, [L] option 2, [G] neither","key_press":76,"name":"choice","trial_type":"html-keyboard-response","trial_index":48,"time_elapsed":140173,"internal_node_id":"0.0-48.0","response":"2nd","certainty":"high","char":"L","transposition":2,"order":["swapped","shifted"],"probe_pitches":[1,-1,6,4,-1,1,-1,1,11,6,-1,6,8,4,8,11],"shifted_pitches":[1,-1,6,4,-1,1,-1,1,12,6,-1,6,8,4,8,11],"swapped_pitches":[1,-1,6,4,-1,1,-1,11,1,6,-1,6,8,4,8,11],"shift_direction":1,"question_num":31,"has_decoy":false,"subject":"S1C1638","sona":"41417","block":1,"time":"2021-09-22T12:04:50.250Z"},{"rt":4469.399999976158,"stimulus":"[A] option 1, [L] option 2, [G] neither","key_press":65,"name":"choice","trial_type":"html-keyboard-response","trial_index":59,"time_elapsed":167355,"internal_node_id":"0.0-59.0","response":"1st","certainty":"high","char":"A","transposition":-2,"order":["swapped","shifted"],"probe_pitches":[4,2,4,-1,2,11,2,7,9,-1,2,11,7,9,11,2],"shifted_pitches":[4,2,4,-1,2,11,2,6,9,-1,2,11,7,9,11,2],"swapped_pitches":[4,2,4,-1,2,11,2,9,7,-1,2,11,7,9,11,2],"shift_direction":-1,"question_num":41,"has_decoy":false,"subject":"S1C1638","sona":"41417","block":1,"time":"2021-09-22T12:04:50.250Z"},{"rt":4185.599999904633,"stimulus":"[A] option 1, [L] option 2, [G] neither","key_press":76,"name":"choice","trial_type":"html-keyboard-response","trial_index":70,"time_elapsed":193932,"internal_node_id":"0.0-70.0","response":"2nd","certainty":"high","char":"L","transposition":1,"order":["swapped","shifted"],"probe_pitches":[4,-1,-2,5,-1,2,-1,8,9,-3,1,3,6,8,-2,0],"shifted_pitches":[4,-1,-2,5,-1,2,-1,7,9,-3,1,3,6,8,-2,0],"swapped_pitches":[4,-1,-2,5,-1,2,-1,9,8,-3,1,3,6,8,-2,0],"shift_direction":-1,"question_num":51,"has_decoy":false,"subject":"S1C1638","sona":"41417","block":1,"time":"2021-09-22T12:04:50.250Z"},{"rt":880,"stimulus":"[A] option 1, [L] option 2, [G] neither","key_press":76,"name":"choice","trial_type":"html-keyboard-response","trial_index":81,"time_elapsed":217276,"internal_node_id":"0.0-81.0","response":"2nd","certainty":"high","char":"L","transposition":-2,"order":["shifted","swapped"],"probe_pitches":[2,5,6,4,-1,2,6,2,7,1,-3,4,-2,-3,5,9],"shifted_pitches":[2,5,6,4,-1,2,6,3,7,1,-3,4,-2,-3,5,9],"swapped_pitches":[2,5,6,4,-1,2,6,7,2,1,-3,4,-2,-3,5,9],"shift_direction":1,"question_num":61,"has_decoy":false,"subject":"S1C1638","sona":"41417","block":1,"time":"2021-09-22T12:04:50.250Z"},{"rt":4586.899999976158,"stimulus":"[A] option 1, [L] option 2, [G] neither","key_press":65,"name":"choice","trial_type":"html-keyboard-response","trial_index":92,"time_elapsed":245421,"internal_node_id":"0.0-92.0","response":"1st","certainty":"high","char":"A","transposition":-2,"order":["swapped","shifted"],"probe_pitches":[9,6,-1,1,4,9,-1,4,11,6,4,11,6,4,9,6],"shifted_pitches":[9,6,-1,1,4,9,-1,3,11,6,4,11,6,4,9,6],"swapped_pitches":[9,6,-1,1,4,9,-1,11,4,6,4,11,6,4,9,6],"shift_direction":-1,"question_num":71,"has_decoy":false,"subject":"S1C1638","sona":"41417","block":1,"time":"2021-09-22T12:04:50.250Z"},{"rt":1119.5,"stimulus":"[A] option 1, [L] option 2, [G] neither","key_press":76,"name":"choice","trial_type":"html-keyboard-response","trial_index":103,"time_elapsed":268701,"internal_node_id":"0.0-103.0","response":"2nd","certainty":"high","char":"L","transposition":-1,"order":["shifted","swapped"],"probe_pitches":[9,11,4,-1,7,4,7,9,4,7,4,2,9,7,9,2],"shifted_pitches":[9,11,4,-1,7,4,7,10,4,7,4,2,9,7,9,2],"swapped_pitches":[9,11,4,-1,7,4,7,4,9,7,4,2,9,7,9,2],"shift_direction":1,"question_num":81,"has_decoy":false,"subject":"S1C1638","sona":"41417","block":1,"time":"2021-09-22T12:04:50.250Z"},{"rt":1547.9000000953674,"stimulus":"[A] option 1, [L] option 2, [G] neither","key_press":71,"name":"choice","trial_type":"html-keyboard-response","trial_index":114,"time_elapsed":293611,"internal_node_id":"0.0-114.0","response":"neither","certainty":"high","char":"G","transposition":0,"order":["swapped","shifted"],"probe_pitches":[2,4,3,-3,4,5,1,3,7,5,-1,-2,2,4,3,4],"shifted_pitches":[2,4,3,-3,4,5,1,3,6,5,-1,-2,2,4,3,4],"swapped_pitches":[2,4,3,-3,4,5,1,7,3,5,-1,-2,2,4,3,4],"shift_direction":-1,"question_num":91,"has_decoy":false,"subject":"S1C1638","sona":"41417","block":1,"time":"2021-09-22T12:04:50.250Z"},{"rt":1907,"stimulus":"[A] option 1, [L] option 2, [G] neither","key_press":71,"name":"choice","trial_type":"html-keyboard-response","trial_index":125,"time_elapsed":318632,"internal_node_id":"0.0-125.0","response":"neither","certainty":"high","char":"G","transposition":3,"order":["shifted","swapped"],"probe_pitches":[4,9,4,9,1,-1,6,11,1,4,11,1,9,-1,1,9],"shifted_pitches":[4,9,4,9,1,-1,6,10,1,4,11,1,9,-1,1,9],"swapped_pitches":[4,9,4,9,1,-1,6,1,11,4,11,1,9,-1,1,9],"shift_direction":-1,"question_num":101,"has_decoy":false,"subject":"S1C1638","sona":"41417","block":1,"time":"2021-09-22T12:04:50.250Z"},{"rt":1362.3999999761581,"stimulus":"[A] option 1, [L] option 2, [G] neither","key_press":76,"name":"choice","trial_type":"html-keyboard-response","trial_index":136,"time_elapsed":342696,"internal_node_id":"0.0-136.0","response":"2nd","certainty":"high","char":"L","transposition":-3,"order":["shifted","swapped"],"probe_pitches":[11,6,11,8,4,-1,1,4,11,1,-1,6,1,8,4,-1],"shifted_pitches":[11,6,11,8,4,-1,1,5,11,1,-1,6,1,8,4,-1],"swapped_pitches":[11,6,11,8,4,-1,1,11,4,1,-1,6,1,8,4,-1],"shift_direction":1,"question_num":111,"has_decoy":false,"subject":"S1C1638","sona":"41417","block":1,"time":"2021-09-22T12:04:50.250Z"},{"rt":1918.3999999761581,"stimulus":"[A] option 1, [L] option 2, [G] neither","key_press":71,"name":"choice","trial_type":"html-keyboard-response","trial_index":147,"time_elapsed":367866,"internal_node_id":"0.0-147.0","response":"neither","certainty":"high","char":"G","transposition":-3,"order":["swapped","shifted"],"probe_pitches":[-2,2,-2,3,7,9,3,0,-2,5,7,-2,7,1,2,3],"shifted_pitches":[-2,2,-2,3,7,9,3,0,-1,5,7,-2,7,1,2,3],"swapped_pitches":[-2,2,-2,3,7,9,3,-2,0,5,7,-2,7,1,2,3],"shift_direction":1,"question_num":121,"has_decoy":false,"subject":"S1C1638","sona":"41417","block":1,"time":"2021-09-22T12:04:50.250Z"},{"rt":2219.2000000476837,"stimulus":"[A] option 1, [L] option 2, [G] neither","key_press":65,"name":"choice","trial_type":"html-keyboard-response","trial_index":158,"time_elapsed":394226,"internal_node_id":"0.0-158.0","response":"1st","certainty":"high","char":"A","transposition":-3,"order":["swapped","shifted"],"probe_pitches":[9,6,2,4,2,6,4,9,2,4,9,11,-1,4,6,2],"shifted_pitches":[9,6,2,4,2,6,4,9,3,4,9,11,-1,4,6,2],"swapped_pitches":[9,6,2,4,2,6,4,2,9,4,9,11,-1,4,6,2],"shift_direction":1,"question_num":131,"has_decoy":false,"subject":"S1C1638","sona":"41417","block":1,"time":"2021-09-22T12:04:50.250Z"},{"rt":730.7000000476837,"stimulus":"[A] option 1, [L] option 2, [G] neither","key_press":76,"name":"choice","trial_type":"html-keyboard-response","trial_index":169,"time_elapsed":418029,"internal_node_id":"0.0-169.0","response":"2nd","certainty":"high","char":"L","transposition":1,"order":["shifted","swapped"],"probe_pitches":[1,-1,3,6,1,11,1,8,11,6,3,1,3,6,-1,8],"shifted_pitches":[1,-1,3,6,1,11,1,8,12,6,3,1,3,6,-1,8],"swapped_pitches":[1,-1,3,6,1,11,1,11,8,6,3,1,3,6,-1,8],"shift_direction":1,"question_num":141,"has_decoy":false,"subject":"S1C1638","sona":"41417","block":1,"time":"2021-09-22T12:04:50.250Z"},{"rt":681.2999999523163,"stimulus":"[A] option 1, [L] option 2, [G] neither","key_press":76,"name":"choice","trial_type":"html-keyboard-response","trial_index":180,"time_elapsed":441719,"internal_node_id":"0.0-180.0","response":"2nd","certainty":"high","char":"L","transposition":0,"order":["swapped","shifted"],"probe_pitches":[9,11,6,11,2,6,11,2,-1,11,6,11,6,4,9,4],"shifted_pitches":[9,11,6,11,2,6,11,2,-2,11,6,11,6,4,9,4],"swapped_pitches":[9,11,6,11,2,6,11,-1,2,11,6,11,6,4,9,4],"shift_direction":-1,"question_num":151,"has_decoy":false,"subject":"S1C1638","sona":"41417","block":1,"time":"2021-09-22T12:04:50.250Z"},{"rt":1694,"stimulus":"[A] option 1, [L] option 2, [G] neither","key_press":71,"name":"choice","trial_type":"html-keyboard-response","trial_index":191,"time_elapsed":465954,"internal_node_id":"0.0-191.0","response":"neither","certainty":"high","char":"G","transposition":2,"order":["shifted","swapped"],"probe_pitches":[-1,5,4,1,0,9,5,7,-1,-2,-3,3,-3,2,7,5],"shifted_pitches":[-1,5,4,1,0,9,5,8,-1,-2,-3,3,-3,2,7,5],"swapped_pitches":[-1,5,4,1,0,9,5,-1,7,-2,-3,3,-3,2,7,5],"shift_direction":1,"question_num":161,"has_decoy":false,"subject":"S1C1638","sona":"41417","block":1,"time":"2021-09-22T12:04:50.250Z"},{"rt":1264.3999999761581,"stimulus":"[A] option 1, [L] option 2, [G] neither","key_press":76,"name":"choice","trial_type":"html-keyboard-response","trial_index":202,"time_elapsed":489804,"internal_node_id":"0.0-202.0","response":"2nd","certainty":"high","char":"L","transposition":-1,"order":["shifted","swapped"],"probe_pitches":[-3,2,8,4,8,-1,-3,-1,-2,4,6,8,1,-1,3,1],"shifted_pitches":[-3,2,8,4,8,-1,-3,0,-2,4,6,8,1,-1,3,1],"swapped_pitches":[-3,2,8,4,8,-1,-3,-2,-1,4,6,8,1,-1,3,1],"shift_direction":1,"question_num":171,"has_decoy":false,"subject":"S1C1638","sona":"41417","block":1,"time":"2021-09-22T12:04:50.250Z"},{"rt":2217,"stimulus":"[A] option 1, [L] option 2, [G] neither","key_press":71,"name":"choice","trial_type":"html-keyboard-response","trial_index":213,"time_elapsed":514377,"internal_node_id":"0.0-213.0","response":"neither","certainty":"high","char":"G","transposition":-3,"order":["swapped","shifted"],"probe_pitches":[6,8,3,9,7,-1,4,6,3,5,-3,5,9,8,3,0],"shifted_pitches":[6,8,3,9,7,-1,4,6,2,5,-3,5,9,8,3,0],"swapped_pitches":[6,8,3,9,7,-1,4,3,6,5,-3,5,9,8,3,0],"shift_direction":-1,"question_num":181,"has_decoy":false,"subject":"S1C1638","sona":"41417","block":1,"time":"2021-09-22T12:04:50.250Z"},{"rt":2394,"stimulus":"[A] option 1, [L] option 2, [G] neither","key_press":71,"name":"choice","trial_type":"html-keyboard-response","trial_index":224,"time_elapsed":539452,"internal_node_id":"0.0-224.0","response":"neither","certainty":"high","char":"G","transposition":-1,"order":["shifted","swapped"],"probe_pitches":[-2,0,1,0,3,8,9,6,5,3,-3,3,-1,0,8,5],"shifted_pitches":[-2,0,1,0,3,8,9,6,4,3,-3,3,-1,0,8,5],"swapped_pitches":[-2,0,1,0,3,8,9,5,6,3,-3,3,-1,0,8,5],"shift_direction":-1,"question_num":191,"has_decoy":false,"subject":"S1C1638","sona":"41417","block":1,"time":"2021-09-22T12:04:50.250Z"}]