[{"rt":1694.1999999284744,"stimulus":"[A] option 1, [L] option 2, [G] neither","key_press":71,"name":"choice","trial_type":"html-keyboard-response","trial_index":10,"time_elapsed":25583,"internal_node_id":"0.0-10.0","subject":"S1C1638","sona":"41417","block":3,"time":"2021-09-22T12:21:33.083Z","response":"neither","certainty":"high","char":"G","transposition":-1,"order":["shifted","swapped"],"probe_pitches":[7,2,9,2,7,-3,7,-3,9,2,4,2,-3,4,-1,-3],"shifted_pitches":[7,2,9,2,7,-3,7,-3,8,2,4,2,-3,4,-1,-3],"swapped_pitches":[7,2,9,2,7,-3,7,9,-3,2,4,2,-3,4,-1,-3],"shift_direction":-1,"question_num":1,"has_decoy":false},{"rt":1946.6000000238419,"stimulus":"[A] option 1, [L] option 2, [G] neither","key_press":71,"name":"choice","trial_type":"html-keyboard-response","trial_index":21,"time_elapsed":50029,"internal_node_id":"0.0-21.0","subject":"S1C1638","sona":"41417","block":3,"time":"2021-09-22T12:21:33.083Z","response":"neither","certainty":"high","char":"G","transposition":2,"order":["shifted","swapped"],"probe_pitches":[5,7,13,5,9,13,8,11,7,3,4,15,14,12,4,15],"shifted_pitches":[5,7,13,5,9,13,8,11,6,3,4,15,14,12,4,15],"swapped_pitches":[5,7,13,5,9,13,8,7,11,3,4,15,14,12,4,15],"shift_direction":-1,"question_num":11,"has_decoy":false},{"rt":1750.5,"stimulus":"[A] option 1, [L] option 2, [G] neither","key_press":71,"name":"choice","trial_type":"html-keyboard-response","trial_index":32,"time_elapsed":74137,"internal_node_id":"0.0-32.0","subject":"S1C1638","sona":"41417","block":3,"time":"2021-09-22T12:21:33.083Z","response":"neither","certainty":"high","char":"G","transposition":-2,"order":["swapped","shifted"],"probe_pitches":[5,10,6,9,8,3,12,7,15,4,13,4,10,9,4,6],"shifted_pitches":[5,10,6,9,8,3,12,7,14,4,13,4,10,9,4,6],"swapped_pitches":[5,10,6,9,8,3,12,15,7,4,13,4,10,9,4,6],"shift_direction":-1,"question_num":21,"has_decoy":false},{"rt":12169.800000071526,"stimulus":"[A] option 1, [L] option 2, [G] neither","key_press":71,"name":"choice","trial_type":"html-keyboard-response","trial_index":43,"time_elapsed":108664,"internal_node_id":"0.0-43.0","subject":"S1C1638","sona":"41417","block":3,"time":"2021-09-22T12:21:33.083Z","response":"neither","certainty":"high","char":"G","transposition":-3,"order":["shifted","swapped"],"probe_pitches":[4,8,6,11,6,14,15,8,11,12,14,6,3,5,7,5],"shifted_pitches":[4,8,6,11,6,14,15,9,11,12,14,6,3,5,7,5],"swapped_pitches":[4,8,6,11,6,14,15,11,8,12,14,6,3,5,7,5],"shift_direction":1,"question_num":31,"has_decoy":false},{"rt":404.7000000476837,"stimulus":"[A] option 1, [L] option 2, [G] neither","key_press":71,"name":"choice","trial_type":"html-keyboard-response","trial_index":54,"time_elapsed":131369,"internal_node_id":"0.0-54.0","subject":"S1C1638","sona":"41417","block":3,"time":"2021-09-22T12:21:33.083Z","response":"neither","certainty":"high","char":"G","transposition":1,"order":["swapped","shifted"],"probe_pitches":[4,9,4,1,-3,-1,1,9,6,-3,9,-3,-1,4,-3,4],"shifted_pitches":[4,9,4,1,-3,-1,1,10,6,-3,9,-3,-1,4,-3,4],"swapped_pitches":[4,9,4,1,-3,-1,1,6,9,-3,9,-3,-1,4,-3,4],"shift_direction":1,"question_num":41,"has_decoy":false},{"rt":1621.8999999761581,"stimulus":"[A] option 1, [L] option 2, [G] neither","key_press":71,"name":"choice","trial_type":"html-keyboard-response","trial_index":65,"time_elapsed":155083,"internal_node_id":"0.0-65.0","subject":"S1C1638","sona":"41417","block":3,"time":"2021-09-22T12:21:33.083Z","response":"neither","certainty":"high","char":"G","transposition":-1,"order":["shifted","swapped"],"probe_pitches":[13,15,14,7,6,7,10,4,12,8,15,14,3,7,9,12],"shifted_pitches":[13,15,14,7,6,7,10,5,12,8,15,14,3,7,9,12],"swapped_pitches":[13,15,14,7,6,7,10,12,4,8,15,14,3,7,9,12],"shift_direction":1,"question_num":51,"has_decoy":false},{"rt":1523.5,"stimulus":"[A] option 1, [L] option 2, [G] neither","key_press":76,"name":"choice","trial_type":"html-keyboard-response","trial_index":76,"time_elapsed":179188,"internal_node_id":"0.0-76.0","subject":"S1C1638","sona":"41417","block":3,"time":"2021-09-22T12:21:33.083Z","response":"2nd","certainty":"high","char":"L","transposition":0,"order":["shifted","swapped"],"probe_pitches":[8,4,7,13,9,7,14,10,3,4,10,9,12,15,10,12],"shifted_pitches":[8,4,7,13,9,7,14,11,3,4,10,9,12,15,10,12],"swapped_pitches":[8,4,7,13,9,7,14,3,10,4,10,9,12,15,10,12],"shift_direction":1,"question_num":61,"has_decoy":false},{"rt":1464.6000000238419,"stimulus":"[A] option 1, [L] option 2, [G] neither","key_press":71,"name":"choice","trial_type":"html-keyboard-response","trial_index":87,"time_elapsed":203557,"internal_node_id":"0.0-87.0","subject":"S1C1638","sona":"41417","block":3,"time":"2021-09-22T12:21:33.083Z","response":"neither","certainty":"high","char":"G","transposition":-1,"order":["swapped","shifted"],"probe_pitches":[6,12,9,15,9,11,5,8,11,5,11,4,3,15,12,13],"shifted_pitches":[6,12,9,15,9,11,5,8,10,5,11,4,3,15,12,13],"swapped_pitches":[6,12,9,15,9,11,5,11,8,5,11,4,3,15,12,13],"shift_direction":-1,"question_num":71,"has_decoy":false},{"rt":1604,"stimulus":"[A] option 1, [L] option 2, [G] neither","key_press":71,"name":"choice","trial_type":"html-keyboard-response","trial_index":98,"time_elapsed":227520,"internal_node_id":"0.0-98.0","subject":"S1C1638","sona":"41417","block":3,"time":"2021-09-22T12:21:33.083Z","response":"neither","certainty":"high","char":"G","transposition":3,"order":["shifted","swapped"],"probe_pitches":[7,2,9,2,-3,2,0,5,-3,2,7,0,9,2,9,2],"shifted_pitches":[7,2,9,2,-3,2,0,5,-2,2,7,0,9,2,9,2],"swapped_pitches":[7,2,9,2,-3,2,0,-3,5,2,7,0,9,2,9,2],"shift_direction":1,"question_num":81,"has_decoy":false},{"rt":1871.9000000953674,"stimulus":"[A] option 1, [L] option 2, [G] neither","key_press":71,"name":"choice","trial_type":"html-keyboard-response","trial_index":109,"time_elapsed":251699,"internal_node_id":"0.0-109.0","subject":"S1C1638","sona":"41417","block":3,"time":"2021-09-22T12:21:33.083Z","response":"neither","certainty":"high","char":"G","transposition":-3,"order":["shifted","swapped"],"probe_pitches":[7,9,7,5,-3,2,0,7,2,0,7,0,-3,0,9,0],"shifted_pitches":[7,9,7,5,-3,2,0,7,1,0,7,0,-3,0,9,0],"swapped_pitches":[7,9,7,5,-3,2,0,2,7,0,7,0,-3,0,9,0],"shift_direction":-1,"question_num":91,"has_decoy":false},{"rt":1189.6000000238419,"stimulus":"[A] option 1, [L] option 2, [G] neither","key_press":71,"name":"choice","trial_type":"html-keyboard-response","trial_index":120,"time_elapsed":275513,"internal_node_id":"0.0-120.0","subject":"S1C1638","sona":"41417","block":3,"time":"2021-09-22T12:21:33.083Z","response":"neither","certainty":"high","char":"G","transposition":0,"order":["shifted","swapped"],"probe_pitches":[7,9,2,0,4,-3,0,2,4,-3,7,2,-3,2,9,2],"shifted_pitches":[7,9,2,0,4,-3,0,1,4,-3,7,2,-3,2,9,2],"swapped_pitches":[7,9,2,0,4,-3,0,4,2,-3,7,2,-3,2,9,2],"shift_direction":-1,"question_num":101,"has_decoy":false},{"rt":1843.5,"stimulus":"[A] option 1, [L] option 2, [G] neither","key_press":71,"name":"choice","trial_type":"html-keyboard-response","trial_index":131,"time_elapsed":299522,"internal_node_id":"0.0-131.0","subject":"S1C1638","sona":"41417","block":3,"time":"2021-09-22T12:21:33.083Z","response":"neither","certainty":"high","char":"G","transposition":3,"order":["swapped","shifted"],"probe_pitches":[14,15,14,9,15,8,5,11,14,8,12,11,8,9,4,15],"shifted_pitches":[14,15,14,9,15,8,5,11,13,8,12,11,8,9,4,15],"swapped_pitches":[14,15,14,9,15,8,5,14,11,8,12,11,8,9,4,15],"shift_direction":-1,"question_num":111,"has_decoy":false},{"rt":1077.3999999761581,"stimulus":"[A] option 1, [L] option 2, [G] neither","key_press":71,"name":"choice","trial_type":"html-keyboard-response","trial_index":142,"time_elapsed":322938,"internal_node_id":"0.0-142.0","subject":"S1C1638","sona":"41417","block":3,"time":"2021-09-22T12:21:33.083Z","response":"neither","certainty":"high","char":"G","transposition":-1,"order":["swapped","shifted"],"probe_pitches":[2,-3,2,4,-3,4,-3,7,-1,9,-3,4,7,-3,9,-3],"shifted_pitches":[2,-3,2,4,-3,4,-3,7,0,9,-3,4,7,-3,9,-3],"swapped_pitches":[2,-3,2,4,-3,4,-3,-1,7,9,-3,4,7,-3,9,-3],"shift_direction":1,"question_num":121,"has_decoy":false},{"rt":1098.1000000238419,"stimulus":"[A] option 1, [L] option 2, [G] neither","key_press":71,"name":"choice","trial_type":"html-keyboard-response","trial_index":153,"time_elapsed":346922,"internal_node_id":"0.0-153.0","subject":"S1C1638","sona":"41417","block":3,"time":"2021-09-22T12:21:33.083Z","response":"neither","certainty":"high","char":"G","transposition":2,"order":["swapped","shifted"],"probe_pitches":[1,6,9,1,6,4,6,-3,4,1,9,6,-1,-3,9,-1],"shifted_pitches":[1,6,9,1,6,4,6,-4,4,1,9,6,-1,-3,9,-1],"swapped_pitches":[1,6,9,1,6,4,6,4,-3,1,9,6,-1,-3,9,-1],"shift_direction":-1,"question_num":131,"has_decoy":false},{"rt":1130.3999999761581,"stimulus":"[A] option 1, [L] option 2, [G] neither","key_press":71,"name":"choice","trial_type":"html-keyboard-response","trial_index":164,"time_elapsed":370134,"internal_node_id":"0.0-164.0","subject":"S1C1638","sona":"41417","block":3,"time":"2021-09-22T12:21:33.083Z","response":"neither","certainty":"high","char":"G","transposition":-3,"order":["swapped","shifted"],"probe_pitches":[12,15,12,4,11,13,6,5,9,14,3,15,11,3,15,7],"shifted_pitches":[12,15,12,4,11,13,6,5,8,14,3,15,11,3,15,7],"swapped_pitches":[12,15,12,4,11,13,6,9,5,14,3,15,11,3,15,7],"shift_direction":-1,"question_num":141,"has_decoy":false},{"rt":1390.7000000476837,"stimulus":"[A] option 1, [L] option 2, [G] neither","key_press":71,"name":"choice","trial_type":"html-keyboard-response","trial_index":175,"time_elapsed":394016,"internal_node_id":"0.0-175.0","subject":"S1C1638","sona":"41417","block":3,"time":"2021-09-22T12:21:33.083Z","response":"neither","certainty":"high","char":"G","transposition":-2,"order":["swapped","shifted"],"probe_pitches":[-1,4,9,2,9,2,9,2,-1,9,4,-1,-3,2,-1,6],"shifted_pitches":[-1,4,9,2,9,2,9,3,-1,9,4,-1,-3,2,-1,6],"swapped_pitches":[-1,4,9,2,9,2,9,-1,2,9,4,-1,-3,2,-1,6],"shift_direction":1,"question_num":151,"has_decoy":false},{"rt":697.2999999523163,"stimulus":"[A] option 1, [L] option 2, [G] neither","key_press":65,"name":"choice","trial_type":"html-keyboard-response","trial_index":186,"time_elapsed":417142,"internal_node_id":"0.0-186.0","subject":"S1C1638","sona":"41417","block":3,"time":"2021-09-22T12:21:33.083Z","response":"1st","certainty":"high","char":"A","transposition":-2,"order":["swapped","shifted"],"probe_pitches":[5,4,10,5,6,7,8,11,14,3,6,9,7,11,6,14],"shifted_pitches":[5,4,10,5,6,7,8,12,14,3,6,9,7,11,6,14],"swapped_pitches":[5,4,10,5,6,7,8,14,11,3,6,9,7,11,6,14],"shift_direction":1,"question_num":161,"has_decoy":false},{"rt":1083.1000000238419,"stimulus":"[A] option 1, [L] option 2, [G] neither","key_press":76,"name":"choice","trial_type":"html-keyboard-response","trial_index":197,"time_elapsed":440451,"internal_node_id":"0.0-197.0","subject":"S1C1638","sona":"41417","block":3,"time":"2021-09-22T12:21:33.083Z","response":"2nd","certainty":"high","char":"L","transposition":1,"order":["shifted","swapped"],"probe_pitches":[8,14,10,15,12,14,9,6,10,3,11,8,5,11,10,4],"shifted_pitches":[8,14,10,15,12,14,9,7,10,3,11,8,5,11,10,4],"swapped_pitches":[8,14,10,15,12,14,9,10,6,3,11,8,5,11,10,4],"shift_direction":1,"question_num":171,"has_decoy":false},{"rt":942.1999999284744,"stimulus":"[A] option 1, [L] option 2, [G] neither","key_press":76,"name":"choice","trial_type":"html-keyboard-response","trial_index":208,"time_elapsed":463581,"internal_node_id":"0.0-208.0","subject":"S1C1638","sona":"41417","block":3,"time":"2021-09-22T12:21:33.083Z","response":"2nd","certainty":"high","char":"L","transposition":-2,"order":["swapped","shifted"],"probe_pitches":[4,-1,4,9,2,-3,4,6,9,2,-3,4,2,9,4,-1],"shifted_pitches":[4,-1,4,9,2,-3,4,7,9,2,-3,4,2,9,4,-1],"swapped_pitches":[4,-1,4,9,2,-3,4,9,6,2,-3,4,2,9,4,-1],"shift_direction":1,"question_num":181,"has_decoy":false},{"rt":475.10000002384186,"stimulus":"[A] option 1, [L] option 2, [G] neither","key_press":71,"name":"choice","trial_type":"html-keyboard-response","trial_index":219,"time_elapsed":486122,"internal_node_id":"0.0-219.0","subject":"S1C1638","sona":"41417","block":3,"time":"2021-09-22T12:21:33.083Z","response":"neither","certainty":"high","char":"G","transposition":-3,"order":["shifted","swapped"],"probe_pitches":[4,0,4,2,7,2,9,7,4,-3,7,-3,9,2,4,-3],"shifted_pitches":[4,0,4,2,7,2,9,7,3,-3,7,-3,9,2,4,-3],"swapped_pitches":[4,0,4,2,7,2,9,4,7,-3,7,-3,9,2,4,-3],"shift_direction":-1,"question_num":191,"has_decoy":false}]