[{"rt":8066.200000047684,"stimulus":"[A] option 1, [L] option 2, [G] neither","key_press":76,"name":"choice","trial_type":"html-keyboard-response","trial_index":15,"time_elapsed":105927,"internal_node_id":"0.0-15.0","response":"2nd","certainty":"high","char":"L","transposition":-2,"order":["shifted","swapped"],"probe_pitches":[7,9,5,9,10,9,5,0,7,5,8,5],"shifted_pitches":[7,9,5,9,10,9,4,0,7,5,8,5],"swapped_pitches":[7,9,5,9,10,5,9,0,7,5,8,5],"shift_direction":-1,"question_num":1,"has_decoy":false,"subject":"S1C1213","sona":"41471","block":1,"time":"2021-09-15T17:15:55.000Z"},{"rt":1431.5,"stimulus":"[A] option 1, [L] option 2, [G] neither","key_press":76,"name":"choice","trial_type":"html-keyboard-response","trial_index":26,"time_elapsed":128381,"internal_node_id":"0.0-26.0","response":"2nd","certainty":"high","char":"L","transposition":0,"order":["swapped","shifted"],"probe_pitches":[6,8,1,0,5,8,-1,5,0,8,3,8],"shifted_pitches":[6,8,1,0,5,9,-1,5,0,8,3,8],"swapped_pitches":[6,8,1,0,5,-1,8,5,0,8,3,8],"shift_direction":1,"question_num":11,"has_decoy":false,"subject":"S1C1213","sona":"41471","block":1,"time":"2021-09-15T17:15:55.000Z"},{"rt":2825.300000190735,"stimulus":"[A] option 1, [L] option 2, [G] neither","key_press":65,"name":"choice","trial_type":"html-keyboard-response","trial_index":37,"time_elapsed":150765,"internal_node_id":"0.0-37.0","response":"1st","certainty":"high","char":"A","transposition":-3,"order":["shifted","swapped"],"probe_pitches":[4,9,6,2,8,1,6,0,-1,1,-1,4],"shifted_pitches":[4,9,6,2,8,1,7,0,-1,1,-1,4],"swapped_pitches":[4,9,6,2,8,6,1,0,-1,1,-1,4],"shift_direction":1,"question_num":21,"has_decoy":false,"subject":"S1C1213","sona":"41471","block":1,"time":"2021-09-15T17:15:55.000Z"},{"rt":1563.9000000953674,"stimulus":"[A] option 1, [L] option 2, [G] neither","key_press":76,"name":"choice","trial_type":"html-keyboard-response","trial_index":48,"time_elapsed":172193,"internal_node_id":"0.0-48.0","response":"2nd","certainty":"high","char":"L","transposition":0,"order":["swapped","shifted"],"probe_pitches":[3,7,10,7,10,7,0,3,5,3,10,0],"shifted_pitches":[3,7,10,7,10,7,1,3,5,3,10,0],"swapped_pitches":[3,7,10,7,10,0,7,3,5,3,10,0],"shift_direction":1,"question_num":31,"has_decoy":false,"subject":"S1C1213","sona":"41471","block":1,"time":"2021-09-15T17:15:55.000Z"},{"rt":1265,"stimulus":"[A] option 1, [L] option 2, [G] neither","key_press":76,"name":"choice","trial_type":"html-keyboard-response","trial_index":59,"time_elapsed":197454,"internal_node_id":"0.0-59.0","response":"2nd","certainty":"high","char":"L","transposition":-3,"order":["swapped","shifted"],"probe_pitches":[5,3,10,5,0,5,10,0,12,8,0,3],"shifted_pitches":[5,3,10,5,0,4,10,0,12,8,0,3],"swapped_pitches":[5,3,10,5,0,10,5,0,12,8,0,3],"shift_direction":-1,"question_num":41,"has_decoy":false,"subject":"S1C1213","sona":"41471","block":1,"time":"2021-09-15T17:15:55.000Z"},{"rt":2243.199999809265,"stimulus":"[A] option 1, [L] option 2, [G] neither","key_press":65,"name":"choice","trial_type":"html-keyboard-response","trial_index":70,"time_elapsed":219137,"internal_node_id":"0.0-70.0","response":"1st","certainty":"high","char":"A","transposition":2,"order":["swapped","shifted"],"probe_pitches":[0,5,2,3,-1,0,6,-2,4,-2,4,-1],"shifted_pitches":[0,5,2,3,-1,1,6,-2,4,-2,4,-1],"swapped_pitches":[0,5,2,3,-1,6,0,-2,4,-2,4,-1],"shift_direction":1,"question_num":51,"has_decoy":false,"subject":"S1C1213","sona":"41471","block":1,"time":"2021-09-15T17:15:55.000Z"},{"rt":2826.399999856949,"stimulus":"[A] option 1, [L] option 2, [G] neither","key_press":65,"name":"choice","trial_type":"html-keyboard-response","trial_index":81,"time_elapsed":241396,"internal_node_id":"0.0-81.0","response":"1st","certainty":"high","char":"A","transposition":2,"order":["shifted","swapped"],"probe_pitches":[5,8,10,8,0,5,8,3,8,10,12,10],"shifted_pitches":[5,8,10,8,0,4,8,3,8,10,12,10],"swapped_pitches":[5,8,10,8,0,8,5,3,8,10,12,10],"shift_direction":-1,"question_num":61,"has_decoy":false,"subject":"S1C1213","sona":"41471","block":1,"time":"2021-09-15T17:15:55.000Z"},{"rt":5794.5,"stimulus":"[A] option 1, [L] option 2, [G] neither","key_press":76,"name":"choice","trial_type":"html-keyboard-response","trial_index":92,"time_elapsed":266814,"internal_node_id":"0.0-92.0","response":"2nd","certainty":"high","char":"L","transposition":1,"order":["swapped","shifted"],"probe_pitches":[7,9,12,9,7,2,9,4,9,0,2,12],"shifted_pitches":[7,9,12,9,7,1,9,4,9,0,2,12],"swapped_pitches":[7,9,12,9,7,9,2,4,9,0,2,12],"shift_direction":-1,"question_num":71,"has_decoy":false,"subject":"S1C1213","sona":"41471","block":1,"time":"2021-09-15T17:15:55.000Z"},{"rt":2141.5,"stimulus":"[A] option 1, [L] option 2, [G] neither","key_press":65,"name":"choice","trial_type":"html-keyboard-response","trial_index":103,"time_elapsed":387038,"internal_node_id":"0.0-103.0","response":"1st","certainty":"high","char":"A","transposition":1,"order":["shifted","swapped"],"probe_pitches":[3,-1,-2,3,8,3,5,10,0,6,-1,8],"shifted_pitches":[3,-1,-2,3,8,2,5,10,0,6,-1,8],"swapped_pitches":[3,-1,-2,3,8,5,3,10,0,6,-1,8],"shift_direction":-1,"question_num":81,"has_decoy":false,"subject":"S1C1213","sona":"41471","block":1,"time":"2021-09-15T17:15:55.000Z"},{"rt":1203.3999998569489,"stimulus":"[A] option 1, [L] option 2, [G] neither","key_press":76,"name":"choice","trial_type":"html-keyboard-response","trial_index":114,"time_elapsed":407790,"internal_node_id":"0.0-114.0","response":"2nd","certainty":"high","char":"L","transposition":-1,"order":["swapped","shifted"],"probe_pitches":[1,0,4,8,1,6,4,1,6,7,3,7],"shifted_pitches":[1,0,4,8,1,6,5,1,6,7,3,7],"swapped_pitches":[1,0,4,8,1,4,6,1,6,7,3,7],"shift_direction":1,"question_num":91,"has_decoy":false,"subject":"S1C1213","sona":"41471","block":1,"time":"2021-09-15T17:15:55.000Z"},{"rt":856.2000000476837,"stimulus":"[A] option 1, [L] option 2, [G] neither","key_press":76,"name":"choice","trial_type":"html-keyboard-response","trial_index":125,"time_elapsed":427934,"internal_node_id":"0.0-125.0","response":"2nd","certainty":"high","char":"L","transposition":-2,"order":["swapped","shifted"],"probe_pitches":[7,10,12,5,3,12,5,0,5,0,5,7],"shifted_pitches":[7,10,12,5,3,13,5,0,5,0,5,7],"swapped_pitches":[7,10,12,5,3,5,12,0,5,0,5,7],"shift_direction":1,"question_num":101,"has_decoy":false,"subject":"S1C1213","sona":"41471","block":1,"time":"2021-09-15T17:15:55.000Z"},{"rt":1187.7999999523163,"stimulus":"[A] option 1, [L] option 2, [G] neither","key_press":65,"name":"choice","trial_type":"html-keyboard-response","trial_index":136,"time_elapsed":448436,"internal_node_id":"0.0-136.0","response":"1st","certainty":"high","char":"A","transposition":-3,"order":["shifted","swapped"],"probe_pitches":[2,4,9,4,9,0,4,7,12,7,2,9],"shifted_pitches":[2,4,9,4,9,0,3,7,12,7,2,9],"swapped_pitches":[2,4,9,4,9,4,0,7,12,7,2,9],"shift_direction":-1,"question_num":111,"has_decoy":false,"subject":"S1C1213","sona":"41471","block":1,"time":"2021-09-15T17:15:55.000Z"},{"rt":795.5999999046326,"stimulus":"[A] option 1, [L] option 2, [G] neither","key_press":76,"name":"choice","trial_type":"html-keyboard-response","trial_index":147,"time_elapsed":468024,"internal_node_id":"0.0-147.0","response":"2nd","certainty":"high","char":"L","transposition":3,"order":["shifted","swapped"],"probe_pitches":[0,-1,-2,2,0,8,4,0,6,7,1,6],"shifted_pitches":[0,-1,-2,2,0,8,3,0,6,7,1,6],"swapped_pitches":[0,-1,-2,2,0,4,8,0,6,7,1,6],"shift_direction":-1,"question_num":121,"has_decoy":false,"subject":"S1C1213","sona":"41471","block":1,"time":"2021-09-15T17:15:55.000Z"},{"rt":1287.7999999523163,"stimulus":"[A] option 1, [L] option 2, [G] neither","key_press":65,"name":"choice","trial_type":"html-keyboard-response","trial_index":158,"time_elapsed":488124,"internal_node_id":"0.0-158.0","response":"1st","certainty":"high","char":"A","transposition":-1,"order":["shifted","swapped"],"probe_pitches":[5,7,12,9,7,2,5,12,5,2,7,0],"shifted_pitches":[5,7,12,9,7,3,5,12,5,2,7,0],"swapped_pitches":[5,7,12,9,7,5,2,12,5,2,7,0],"shift_direction":1,"question_num":131,"has_decoy":false,"subject":"S1C1213","sona":"41471","block":1,"time":"2021-09-15T17:15:55.000Z"},{"rt":847.2999999523163,"stimulus":"[A] option 1, [L] option 2, [G] neither","key_press":76,"name":"choice","trial_type":"html-keyboard-response","trial_index":169,"time_elapsed":508584,"internal_node_id":"0.0-169.0","response":"2nd","certainty":"high","char":"L","transposition":-1,"order":["swapped","shifted"],"probe_pitches":[2,-1,4,8,1,5,-1,8,9,5,2,4],"shifted_pitches":[2,-1,4,8,1,5,0,8,9,5,2,4],"swapped_pitches":[2,-1,4,8,1,-1,5,8,9,5,2,4],"shift_direction":1,"question_num":141,"has_decoy":false,"subject":"S1C1213","sona":"41471","block":1,"time":"2021-09-15T17:15:55.000Z"},{"rt":3501,"stimulus":"[A] option 1, [L] option 2, [G] neither","key_press":76,"name":"choice","trial_type":"html-keyboard-response","trial_index":180,"time_elapsed":531307,"internal_node_id":"0.0-180.0","response":"2nd","certainty":"high","char":"L","transposition":-3,"order":["swapped","shifted"],"probe_pitches":[5,0,1,3,10,9,7,0,-2,4,0,9],"shifted_pitches":[5,0,1,3,10,8,7,0,-2,4,0,9],"swapped_pitches":[5,0,1,3,10,7,9,0,-2,4,0,9],"shift_direction":-1,"question_num":151,"has_decoy":false,"subject":"S1C1213","sona":"41471","block":1,"time":"2021-09-15T17:15:55.000Z"},{"rt":993.9000000953674,"stimulus":"[A] option 1, [L] option 2, [G] neither","key_press":76,"name":"choice","trial_type":"html-keyboard-response","trial_index":191,"time_elapsed":551220,"internal_node_id":"0.0-191.0","response":"2nd","certainty":"high","char":"L","transposition":-2,"order":["swapped","shifted"],"probe_pitches":[10,5,7,12,5,12,7,5,12,7,2,0],"shifted_pitches":[10,5,7,12,5,12,8,5,12,7,2,0],"swapped_pitches":[10,5,7,12,5,7,12,5,12,7,2,0],"shift_direction":1,"question_num":161,"has_decoy":false,"subject":"S1C1213","sona":"41471","block":1,"time":"2021-09-15T17:15:55.000Z"},{"rt":1535,"stimulus":"[A] option 1, [L] option 2, [G] neither","key_press":65,"name":"choice","trial_type":"html-keyboard-response","trial_index":202,"time_elapsed":571690,"internal_node_id":"0.0-202.0","response":"1st","certainty":"high","char":"A","transposition":-1,"order":["shifted","swapped"],"probe_pitches":[12,10,12,10,12,10,5,2,7,2,0,10],"shifted_pitches":[12,10,12,10,12,10,6,2,7,2,0,10],"swapped_pitches":[12,10,12,10,12,5,10,2,7,2,0,10],"shift_direction":1,"question_num":171,"has_decoy":false,"subject":"S1C1213","sona":"41471","block":1,"time":"2021-09-15T17:15:55.000Z"},{"rt":856.3999998569489,"stimulus":"[A] option 1, [L] option 2, [G] neither","key_press":65,"name":"choice","trial_type":"html-keyboard-response","trial_index":213,"time_elapsed":591582,"internal_node_id":"0.0-213.0","response":"1st","certainty":"high","char":"A","transposition":3,"order":["shifted","swapped"],"probe_pitches":[5,7,12,5,2,0,7,12,7,2,7,9],"shifted_pitches":[5,7,12,5,2,0,6,12,7,2,7,9],"swapped_pitches":[5,7,12,5,2,7,0,12,7,2,7,9],"shift_direction":-1,"question_num":181,"has_decoy":false,"subject":"S1C1213","sona":"41471","block":1,"time":"2021-09-15T17:15:55.000Z"},{"rt":1804.7000000476837,"stimulus":"[A] option 1, [L] option 2, [G] neither","key_press":65,"name":"choice","trial_type":"html-keyboard-response","trial_index":224,"time_elapsed":612683,"internal_node_id":"0.0-224.0","response":"1st","certainty":"high","char":"A","transposition":-2,"order":["shifted","swapped"],"probe_pitches":[8,5,0,-2,2,7,5,10,8,10,7,4],"shifted_pitches":[8,5,0,-2,2,6,5,10,8,10,7,4],"swapped_pitches":[8,5,0,-2,2,5,7,10,8,10,7,4],"shift_direction":-1,"question_num":191,"has_decoy":false,"subject":"S1C1213","sona":"41471","block":1,"time":"2021-09-15T17:15:55.000Z"}]