[{"rt":1634,"stimulus":"[A] option 1, [L] option 2, [G] neither","key_press":65,"name":"choice","trial_type":"html-keyboard-response","trial_index":10,"time_elapsed":21457,"internal_node_id":"0.0-10.0","subject":"S1C1213","sona":"41471","block":4,"time":"2021-09-15T17:38:57.149Z","response":"1st","certainty":"high","char":"A","transposition":2,"order":["shifted","swapped"],"probe_pitches":[-1,2,9,11,4,2,-1,9,4,9,6,-1],"shifted_pitches":[-1,2,9,11,4,2,-2,9,4,9,6,-1],"swapped_pitches":[-1,2,9,11,4,-1,2,9,4,9,6,-1],"shift_direction":-1,"question_num":1,"has_decoy":false},{"rt":352.09999990463257,"stimulus":"[A] option 1, [L] option 2, [G] neither","key_press":76,"name":"choice","trial_type":"html-keyboard-response","trial_index":21,"time_elapsed":40885,"internal_node_id":"0.0-21.0","subject":"S1C1213","sona":"41471","block":4,"time":"2021-09-15T17:38:57.149Z","response":"2nd","certainty":"high","char":"L","transposition":0,"order":["swapped","shifted"],"probe_pitches":[2,5,2,5,3,2,5,11,8,7,9,5],"shifted_pitches":[2,5,2,5,3,1,5,11,8,7,9,5],"swapped_pitches":[2,5,2,5,3,5,2,11,8,7,9,5],"shift_direction":-1,"question_num":11,"has_decoy":false},{"rt":365.40000009536743,"stimulus":"[A] option 1, [L] option 2, [G] neither","key_press":76,"name":"choice","trial_type":"html-keyboard-response","trial_index":32,"time_elapsed":60039,"internal_node_id":"0.0-32.0","subject":"S1C1213","sona":"41471","block":4,"time":"2021-09-15T17:38:57.149Z","response":"2nd","certainty":"high","char":"L","transposition":-1,"order":["swapped","shifted"],"probe_pitches":[9,11,4,6,11,1,4,6,4,11,4,1],"shifted_pitches":[9,11,4,6,11,1,5,6,4,11,4,1],"swapped_pitches":[9,11,4,6,11,4,1,6,4,11,4,1],"shift_direction":1,"question_num":21,"has_decoy":false},{"rt":313.90000009536743,"stimulus":"[A] option 1, [L] option 2, [G] neither","key_press":65,"name":"choice","trial_type":"html-keyboard-response","trial_index":43,"time_elapsed":79267,"internal_node_id":"0.0-43.0","subject":"S1C1213","sona":"41471","block":4,"time":"2021-09-15T17:38:57.149Z","response":"1st","certainty":"high","char":"A","transposition":-2,"order":["shifted","swapped"],"probe_pitches":[4,1,-1,6,-1,6,4,11,1,9,1,-1],"shifted_pitches":[4,1,-1,6,-1,7,4,11,1,9,1,-1],"swapped_pitches":[4,1,-1,6,-1,4,6,11,1,9,1,-1],"shift_direction":1,"question_num":31,"has_decoy":false},{"rt":271.7999999523163,"stimulus":"[A] option 1, [L] option 2, [G] neither","key_press":76,"name":"choice","trial_type":"html-keyboard-response","trial_index":54,"time_elapsed":98196,"internal_node_id":"0.0-54.0","subject":"S1C1213","sona":"41471","block":4,"time":"2021-09-15T17:38:57.149Z","response":"2nd","certainty":"high","char":"L","transposition":-1,"order":["swapped","shifted"],"probe_pitches":[12,13,9,13,7,14,11,4,12,4,11,2],"shifted_pitches":[12,13,9,13,7,14,10,4,12,4,11,2],"swapped_pitches":[12,13,9,13,7,11,14,4,12,4,11,2],"shift_direction":-1,"question_num":41,"has_decoy":false},{"rt":305.59999990463257,"stimulus":"[A] option 1, [L] option 2, [G] neither","key_press":65,"name":"choice","trial_type":"html-keyboard-response","trial_index":65,"time_elapsed":117059,"internal_node_id":"0.0-65.0","subject":"S1C1213","sona":"41471","block":4,"time":"2021-09-15T17:38:57.149Z","response":"1st","certainty":"high","char":"A","transposition":2,"order":["swapped","shifted"],"probe_pitches":[12,11,14,12,6,5,10,11,13,8,13,3],"shifted_pitches":[12,11,14,12,6,5,9,11,13,8,13,3],"swapped_pitches":[12,11,14,12,6,10,5,11,13,8,13,3],"shift_direction":-1,"question_num":51,"has_decoy":false},{"rt":478.09999990463257,"stimulus":"[A] option 1, [L] option 2, [G] neither","key_press":65,"name":"choice","trial_type":"html-keyboard-response","trial_index":76,"time_elapsed":136472,"internal_node_id":"0.0-76.0","subject":"S1C1213","sona":"41471","block":4,"time":"2021-09-15T17:38:57.149Z","response":"1st","certainty":"high","char":"A","transposition":-2,"order":["shifted","swapped"],"probe_pitches":[5,3,5,9,6,3,11,14,6,3,6,11],"shifted_pitches":[5,3,5,9,6,4,11,14,6,3,6,11],"swapped_pitches":[5,3,5,9,6,11,3,14,6,3,6,11],"shift_direction":1,"question_num":61,"has_decoy":false},{"rt":610.7999999523163,"stimulus":"[A] option 1, [L] option 2, [G] neither","key_press":65,"name":"choice","trial_type":"html-keyboard-response","trial_index":87,"time_elapsed":156584,"internal_node_id":"0.0-87.0","subject":"S1C1213","sona":"41471","block":4,"time":"2021-09-15T17:38:57.149Z","response":"1st","certainty":"high","char":"A","transposition":0,"order":["shifted","swapped"],"probe_pitches":[11,6,11,6,1,-1,3,6,11,-1,8,-1],"shifted_pitches":[11,6,11,6,1,0,3,6,11,-1,8,-1],"swapped_pitches":[11,6,11,6,1,3,-1,6,11,-1,8,-1],"shift_direction":1,"question_num":71,"has_decoy":false},{"rt":880.4000000953674,"stimulus":"[A] option 1, [L] option 2, [G] neither","key_press":76,"name":"choice","trial_type":"html-keyboard-response","trial_index":98,"time_elapsed":176364,"internal_node_id":"0.0-98.0","subject":"S1C1213","sona":"41471","block":4,"time":"2021-09-15T17:38:57.149Z","response":"2nd","certainty":"high","char":"L","transposition":1,"order":["shifted","swapped"],"probe_pitches":[4,10,7,13,14,11,10,9,14,8,9,7],"shifted_pitches":[4,10,7,13,14,12,10,9,14,8,9,7],"swapped_pitches":[4,10,7,13,14,10,11,9,14,8,9,7],"shift_direction":1,"question_num":81,"has_decoy":false},{"rt":882.7000000476837,"stimulus":"[A] option 1, [L] option 2, [G] neither","key_press":76,"name":"choice","trial_type":"html-keyboard-response","trial_index":109,"time_elapsed":196756,"internal_node_id":"0.0-109.0","subject":"S1C1213","sona":"41471","block":4,"time":"2021-09-15T17:38:57.149Z","response":"2nd","certainty":"high","char":"L","transposition":-3,"order":["swapped","shifted"],"probe_pitches":[1,6,8,4,1,-1,8,11,8,4,8,4],"shifted_pitches":[1,6,8,4,1,-1,7,11,8,4,8,4],"swapped_pitches":[1,6,8,4,1,8,-1,11,8,4,8,4],"shift_direction":-1,"question_num":91,"has_decoy":false},{"rt":1130.2000000476837,"stimulus":"[A] option 1, [L] option 2, [G] neither","key_press":76,"name":"choice","trial_type":"html-keyboard-response","trial_index":120,"time_elapsed":216722,"internal_node_id":"0.0-120.0","subject":"S1C1213","sona":"41471","block":4,"time":"2021-09-15T17:38:57.149Z","response":"2nd","certainty":"high","char":"L","transposition":3,"order":["swapped","shifted"],"probe_pitches":[11,6,2,9,4,9,2,6,2,-1,2,4],"shifted_pitches":[11,6,2,9,4,8,2,6,2,-1,2,4],"swapped_pitches":[11,6,2,9,4,2,9,6,2,-1,2,4],"shift_direction":-1,"question_num":101,"has_decoy":false},{"rt":387.5,"stimulus":"[A] option 1, [L] option 2, [G] neither","key_press":76,"name":"choice","trial_type":"html-keyboard-response","trial_index":131,"time_elapsed":235968,"internal_node_id":"0.0-131.0","subject":"S1C1213","sona":"41471","block":4,"time":"2021-09-15T17:38:57.149Z","response":"2nd","certainty":"high","char":"L","transposition":-2,"order":["swapped","shifted"],"probe_pitches":[-1,1,-1,3,1,11,8,1,8,-1,11,6],"shifted_pitches":[-1,1,-1,3,1,10,8,1,8,-1,11,6],"swapped_pitches":[-1,1,-1,3,1,8,11,1,8,-1,11,6],"shift_direction":-1,"question_num":111,"has_decoy":false},{"rt":1918.7999999523163,"stimulus":"[A] option 1, [L] option 2, [G] neither","key_press":65,"name":"choice","trial_type":"html-keyboard-response","trial_index":142,"time_elapsed":257580,"internal_node_id":"0.0-142.0","subject":"S1C1213","sona":"41471","block":4,"time":"2021-09-15T17:38:57.149Z","response":"1st","certainty":"high","char":"A","transposition":-2,"order":["shifted","swapped"],"probe_pitches":[8,12,13,14,6,4,12,8,9,3,7,5],"shifted_pitches":[8,12,13,14,6,4,11,8,9,3,7,5],"swapped_pitches":[8,12,13,14,6,12,4,8,9,3,7,5],"shift_direction":-1,"question_num":121,"has_decoy":false},{"rt":256.7000000476837,"stimulus":"[A] option 1, [L] option 2, [G] neither","key_press":76,"name":"choice","trial_type":"html-keyboard-response","trial_index":153,"time_elapsed":277939,"internal_node_id":"0.0-153.0","subject":"S1C1213","sona":"41471","block":4,"time":"2021-09-15T17:38:57.149Z","response":"2nd","certainty":"high","char":"L","transposition":1,"order":["shifted","swapped"],"probe_pitches":[11,7,11,4,11,9,4,2,7,4,-1,7],"shifted_pitches":[11,7,11,4,11,9,3,2,7,4,-1,7],"swapped_pitches":[11,7,11,4,11,4,9,2,7,4,-1,7],"shift_direction":-1,"question_num":131,"has_decoy":false},{"rt":860.9000000953674,"stimulus":"[A] option 1, [L] option 2, [G] neither","key_press":76,"name":"choice","trial_type":"html-keyboard-response","trial_index":164,"time_elapsed":297884,"internal_node_id":"0.0-164.0","subject":"S1C1213","sona":"41471","block":4,"time":"2021-09-15T17:38:57.149Z","response":"2nd","certainty":"high","char":"L","transposition":-3,"order":["swapped","shifted"],"probe_pitches":[11,12,11,7,14,6,3,14,6,13,10,4],"shifted_pitches":[11,12,11,7,14,5,3,14,6,13,10,4],"swapped_pitches":[11,12,11,7,14,3,6,14,6,13,10,4],"shift_direction":-1,"question_num":141,"has_decoy":false},{"rt":596,"stimulus":"[A] option 1, [L] option 2, [G] neither","key_press":65,"name":"choice","trial_type":"html-keyboard-response","trial_index":175,"time_elapsed":317068,"internal_node_id":"0.0-175.0","subject":"S1C1213","sona":"41471","block":4,"time":"2021-09-15T17:38:57.149Z","response":"1st","certainty":"high","char":"A","transposition":-3,"order":["swapped","shifted"],"probe_pitches":[4,3,7,14,5,12,7,2,12,13,12,7],"shifted_pitches":[4,3,7,14,5,12,8,2,12,13,12,7],"swapped_pitches":[4,3,7,14,5,7,12,2,12,13,12,7],"shift_direction":1,"question_num":151,"has_decoy":false},{"rt":1949.7000000476837,"stimulus":"[A] option 1, [L] option 2, [G] neither","key_press":65,"name":"choice","trial_type":"html-keyboard-response","trial_index":186,"time_elapsed":340093,"internal_node_id":"0.0-186.0","subject":"S1C1213","sona":"41471","block":4,"time":"2021-09-15T17:38:57.149Z","response":"1st","certainty":"high","char":"A","transposition":3,"order":["shifted","swapped"],"probe_pitches":[3,8,14,10,13,6,11,5,2,8,4,9],"shifted_pitches":[3,8,14,10,13,7,11,5,2,8,4,9],"swapped_pitches":[3,8,14,10,13,11,6,5,2,8,4,9],"shift_direction":1,"question_num":161,"has_decoy":false},{"rt":6537.100000143051,"stimulus":"[A] option 1, [L] option 2, [G] neither","key_press":76,"name":"choice","trial_type":"html-keyboard-response","trial_index":197,"time_elapsed":366302,"internal_node_id":"0.0-197.0","subject":"S1C1213","sona":"41471","block":4,"time":"2021-09-15T17:38:57.149Z","response":"2nd","certainty":"high","char":"L","transposition":-1,"order":["shifted","swapped"],"probe_pitches":[11,9,3,8,3,8,5,11,14,11,13,7],"shifted_pitches":[11,9,3,8,3,8,6,11,14,11,13,7],"swapped_pitches":[11,9,3,8,3,5,8,11,14,11,13,7],"shift_direction":1,"question_num":171,"has_decoy":false},{"rt":3216.100000143051,"stimulus":"[A] option 1, [L] option 2, [G] neither","key_press":76,"name":"choice","trial_type":"html-keyboard-response","trial_index":208,"time_elapsed":389210,"internal_node_id":"0.0-208.0","subject":"S1C1213","sona":"41471","block":4,"time":"2021-09-15T17:38:57.149Z","response":"2nd","certainty":"high","char":"L","transposition":-1,"order":["swapped","shifted"],"probe_pitches":[11,8,1,4,6,11,8,6,8,6,-1,8],"shifted_pitches":[11,8,1,4,6,12,8,6,8,6,-1,8],"swapped_pitches":[11,8,1,4,6,8,11,6,8,6,-1,8],"shift_direction":1,"question_num":181,"has_decoy":false},{"rt":999.0999999046326,"stimulus":"[A] option 1, [L] option 2, [G] neither","key_press":76,"name":"choice","trial_type":"html-keyboard-response","trial_index":219,"time_elapsed":424089,"internal_node_id":"0.0-219.0","subject":"S1C1213","sona":"41471","block":4,"time":"2021-09-15T17:38:57.149Z","response":"2nd","certainty":"high","char":"L","transposition":-3,"order":["shifted","swapped"],"probe_pitches":[9,7,9,7,4,11,9,2,7,11,4,2],"shifted_pitches":[9,7,9,7,4,11,10,2,7,11,4,2],"swapped_pitches":[9,7,9,7,4,9,11,2,7,11,4,2],"shift_direction":1,"question_num":191,"has_decoy":false}]