[{"rt":767.0999999046326,"stimulus":"[A] option 1, [L] option 2, [G] neither","key_press":76,"name":"choice","trial_type":"html-keyboard-response","trial_index":10,"time_elapsed":20171,"internal_node_id":"0.0-10.0","subject":"S1C1213","sona":"41471","block":3,"time":"2021-09-15T17:31:49.331Z","response":"2nd","certainty":"high","char":"L","transposition":-3,"order":["swapped","shifted"],"probe_pitches":[3,5,-2,0,3,7,-2,10,5,3,7,3],"shifted_pitches":[3,5,-2,0,3,8,-2,10,5,3,7,3],"swapped_pitches":[3,5,-2,0,3,-2,7,10,5,3,7,3],"shift_direction":1,"question_num":1,"has_decoy":false},{"rt":1554.7999999523163,"stimulus":"[A] option 1, [L] option 2, [G] neither","key_press":76,"name":"choice","trial_type":"html-keyboard-response","trial_index":21,"time_elapsed":47529,"internal_node_id":"0.0-21.0","subject":"S1C1213","sona":"41471","block":3,"time":"2021-09-15T17:31:49.331Z","response":"2nd","certainty":"high","char":"L","transposition":-1,"order":["swapped","shifted"],"probe_pitches":[3,7,2,6,4,11,8,2,14,9,10,14],"shifted_pitches":[3,7,2,6,4,12,8,2,14,9,10,14],"swapped_pitches":[3,7,2,6,4,8,11,2,14,9,10,14],"shift_direction":1,"question_num":11,"has_decoy":false},{"rt":493.7000000476837,"stimulus":"[A] option 1, [L] option 2, [G] neither","key_press":76,"name":"choice","trial_type":"html-keyboard-response","trial_index":32,"time_elapsed":67387,"internal_node_id":"0.0-32.0","subject":"S1C1213","sona":"41471","block":3,"time":"2021-09-15T17:31:49.331Z","response":"2nd","certainty":"high","char":"L","transposition":1,"order":["swapped","shifted"],"probe_pitches":[5,11,6,11,12,13,6,3,13,6,11,4],"shifted_pitches":[5,11,6,11,12,13,7,3,13,6,11,4],"swapped_pitches":[5,11,6,11,12,6,13,3,13,6,11,4],"shift_direction":1,"question_num":21,"has_decoy":false},{"rt":414,"stimulus":"[A] option 1, [L] option 2, [G] neither","key_press":65,"name":"choice","trial_type":"html-keyboard-response","trial_index":43,"time_elapsed":86858,"internal_node_id":"0.0-43.0","subject":"S1C1213","sona":"41471","block":3,"time":"2021-09-15T17:31:49.331Z","response":"1st","certainty":"high","char":"A","transposition":-3,"order":["shifted","swapped"],"probe_pitches":[10,7,10,7,3,0,5,-2,10,7,5,0],"shifted_pitches":[10,7,10,7,3,0,4,-2,10,7,5,0],"swapped_pitches":[10,7,10,7,3,5,0,-2,10,7,5,0],"shift_direction":-1,"question_num":31,"has_decoy":false},{"rt":336.7999999523163,"stimulus":"[A] option 1, [L] option 2, [G] neither","key_press":76,"name":"choice","trial_type":"html-keyboard-response","trial_index":54,"time_elapsed":106161,"internal_node_id":"0.0-54.0","subject":"S1C1213","sona":"41471","block":3,"time":"2021-09-15T17:31:49.331Z","response":"2nd","certainty":"high","char":"L","transposition":3,"order":["swapped","shifted"],"probe_pitches":[8,6,3,9,11,5,2,9,3,9,13,3],"shifted_pitches":[8,6,3,9,11,4,2,9,3,9,13,3],"swapped_pitches":[8,6,3,9,11,2,5,9,3,9,13,3],"shift_direction":-1,"question_num":41,"has_decoy":false},{"rt":661.2999999523163,"stimulus":"[A] option 1, [L] option 2, [G] neither","key_press":65,"name":"choice","trial_type":"html-keyboard-response","trial_index":65,"time_elapsed":125644,"internal_node_id":"0.0-65.0","subject":"S1C1213","sona":"41471","block":3,"time":"2021-09-15T17:31:49.331Z","response":"1st","certainty":"high","char":"A","transposition":0,"order":["swapped","shifted"],"probe_pitches":[9,4,3,7,4,12,7,2,9,3,13,7],"shifted_pitches":[9,4,3,7,4,12,6,2,9,3,13,7],"swapped_pitches":[9,4,3,7,4,7,12,2,9,3,13,7],"shift_direction":-1,"question_num":51,"has_decoy":false},{"rt":876.2000000476837,"stimulus":"[A] option 1, [L] option 2, [G] neither","key_press":65,"name":"choice","trial_type":"html-keyboard-response","trial_index":76,"time_elapsed":145910,"internal_node_id":"0.0-76.0","subject":"S1C1213","sona":"41471","block":3,"time":"2021-09-15T17:31:49.331Z","response":"1st","certainty":"high","char":"A","transposition":-1,"order":["shifted","swapped"],"probe_pitches":[6,7,6,7,13,4,11,9,3,13,7,13],"shifted_pitches":[6,7,6,7,13,5,11,9,3,13,7,13],"swapped_pitches":[6,7,6,7,13,11,4,9,3,13,7,13],"shift_direction":1,"question_num":61,"has_decoy":false},{"rt":355.09999990463257,"stimulus":"[A] option 1, [L] option 2, [G] neither","key_press":76,"name":"choice","trial_type":"html-keyboard-response","trial_index":87,"time_elapsed":165076,"internal_node_id":"0.0-87.0","subject":"S1C1213","sona":"41471","block":3,"time":"2021-09-15T17:31:49.331Z","response":"2nd","certainty":"high","char":"L","transposition":-1,"order":["swapped","shifted"],"probe_pitches":[10,5,8,5,8,3,5,1,10,5,1,5],"shifted_pitches":[10,5,8,5,8,2,5,1,10,5,1,5],"swapped_pitches":[10,5,8,5,8,5,3,1,10,5,1,5],"shift_direction":-1,"question_num":71,"has_decoy":false},{"rt":576.1000001430511,"stimulus":"[A] option 1, [L] option 2, [G] neither","key_press":65,"name":"choice","trial_type":"html-keyboard-response","trial_index":98,"time_elapsed":184341,"internal_node_id":"0.0-98.0","subject":"S1C1213","sona":"41471","block":3,"time":"2021-09-15T17:31:49.331Z","response":"1st","certainty":"high","char":"A","transposition":-1,"order":["shifted","swapped"],"probe_pitches":[7,10,5,-2,5,2,0,10,2,0,10,-2],"shifted_pitches":[7,10,5,-2,5,1,0,10,2,0,10,-2],"swapped_pitches":[7,10,5,-2,5,0,2,10,2,0,10,-2],"shift_direction":-1,"question_num":81,"has_decoy":false},{"rt":662.2999999523163,"stimulus":"[A] option 1, [L] option 2, [G] neither","key_press":76,"name":"choice","trial_type":"html-keyboard-response","trial_index":109,"time_elapsed":204077,"internal_node_id":"0.0-109.0","subject":"S1C1213","sona":"41471","block":3,"time":"2021-09-15T17:31:49.331Z","response":"2nd","certainty":"high","char":"L","transposition":-3,"order":["shifted","swapped"],"probe_pitches":[10,9,3,9,4,14,9,12,10,5,12,7],"shifted_pitches":[10,9,3,9,4,14,8,12,10,5,12,7],"swapped_pitches":[10,9,3,9,4,9,14,12,10,5,12,7],"shift_direction":-1,"question_num":91,"has_decoy":false},{"rt":284.59999990463257,"stimulus":"[A] option 1, [L] option 2, [G] neither","key_press":76,"name":"choice","trial_type":"html-keyboard-response","trial_index":120,"time_elapsed":223019,"internal_node_id":"0.0-120.0","subject":"S1C1213","sona":"41471","block":3,"time":"2021-09-15T17:31:49.331Z","response":"2nd","certainty":"high","char":"L","transposition":0,"order":["swapped","shifted"],"probe_pitches":[1,5,3,-2,1,8,3,10,3,8,10,-2],"shifted_pitches":[1,5,3,-2,1,8,2,10,3,8,10,-2],"swapped_pitches":[1,5,3,-2,1,3,8,10,3,8,10,-2],"shift_direction":-1,"question_num":101,"has_decoy":false},{"rt":872.3999998569489,"stimulus":"[A] option 1, [L] option 2, [G] neither","key_press":65,"name":"choice","trial_type":"html-keyboard-response","trial_index":131,"time_elapsed":242556,"internal_node_id":"0.0-131.0","subject":"S1C1213","sona":"41471","block":3,"time":"2021-09-15T17:31:49.331Z","response":"1st","certainty":"high","char":"A","transposition":-2,"order":["swapped","shifted"],"probe_pitches":[6,7,3,6,3,2,11,14,7,14,2,6],"shifted_pitches":[6,7,3,6,3,1,11,14,7,14,2,6],"swapped_pitches":[6,7,3,6,3,11,2,14,7,14,2,6],"shift_direction":-1,"question_num":111,"has_decoy":false},{"rt":394.5,"stimulus":"[A] option 1, [L] option 2, [G] neither","key_press":65,"name":"choice","trial_type":"html-keyboard-response","trial_index":142,"time_elapsed":261589,"internal_node_id":"0.0-142.0","subject":"S1C1213","sona":"41471","block":3,"time":"2021-09-15T17:31:49.331Z","response":"1st","certainty":"high","char":"A","transposition":-2,"order":["shifted","swapped"],"probe_pitches":[-2,1,3,1,-2,8,6,1,3,8,10,3],"shifted_pitches":[-2,1,3,1,-2,9,6,1,3,8,10,3],"swapped_pitches":[-2,1,3,1,-2,6,8,1,3,8,10,3],"shift_direction":1,"question_num":121,"has_decoy":false},{"rt":241,"stimulus":"[A] option 1, [L] option 2, [G] neither","key_press":76,"name":"choice","trial_type":"html-keyboard-response","trial_index":153,"time_elapsed":281045,"internal_node_id":"0.0-153.0","subject":"S1C1213","sona":"41471","block":3,"time":"2021-09-15T17:31:49.331Z","response":"2nd","certainty":"high","char":"L","transposition":2,"order":["shifted","swapped"],"probe_pitches":[6,3,8,2,5,14,9,11,4,11,2,3],"shifted_pitches":[6,3,8,2,5,14,10,11,4,11,2,3],"swapped_pitches":[6,3,8,2,5,9,14,11,4,11,2,3],"shift_direction":1,"question_num":131,"has_decoy":false},{"rt":393.90000009536743,"stimulus":"[A] option 1, [L] option 2, [G] neither","key_press":65,"name":"choice","trial_type":"html-keyboard-response","trial_index":164,"time_elapsed":300398,"internal_node_id":"0.0-164.0","subject":"S1C1213","sona":"41471","block":3,"time":"2021-09-15T17:31:49.331Z","response":"1st","certainty":"high","char":"A","transposition":-2,"order":["shifted","swapped"],"probe_pitches":[5,2,4,8,13,8,10,4,13,7,12,6],"shifted_pitches":[5,2,4,8,13,9,10,4,13,7,12,6],"swapped_pitches":[5,2,4,8,13,10,8,4,13,7,12,6],"shift_direction":1,"question_num":141,"has_decoy":false},{"rt":294.60000014305115,"stimulus":"[A] option 1, [L] option 2, [G] neither","key_press":76,"name":"choice","trial_type":"html-keyboard-response","trial_index":175,"time_elapsed":320149,"internal_node_id":"0.0-175.0","subject":"S1C1213","sona":"41471","block":3,"time":"2021-09-15T17:31:49.331Z","response":"2nd","certainty":"high","char":"L","transposition":1,"order":["shifted","swapped"],"probe_pitches":[10,8,5,8,0,3,10,8,10,8,10,-2],"shifted_pitches":[10,8,5,8,0,3,11,8,10,8,10,-2],"swapped_pitches":[10,8,5,8,0,10,3,8,10,8,10,-2],"shift_direction":1,"question_num":151,"has_decoy":false},{"rt":453.09999990463257,"stimulus":"[A] option 1, [L] option 2, [G] neither","key_press":76,"name":"choice","trial_type":"html-keyboard-response","trial_index":186,"time_elapsed":339507,"internal_node_id":"0.0-186.0","subject":"S1C1213","sona":"41471","block":3,"time":"2021-09-15T17:31:49.331Z","response":"2nd","certainty":"high","char":"L","transposition":2,"order":["swapped","shifted"],"probe_pitches":[0,-2,5,7,2,0,-2,2,-2,10,7,2],"shifted_pitches":[0,-2,5,7,2,1,-2,2,-2,10,7,2],"swapped_pitches":[0,-2,5,7,2,-2,0,2,-2,10,7,2],"shift_direction":1,"question_num":161,"has_decoy":false},{"rt":394.7000000476837,"stimulus":"[A] option 1, [L] option 2, [G] neither","key_press":76,"name":"choice","trial_type":"html-keyboard-response","trial_index":197,"time_elapsed":358629,"internal_node_id":"0.0-197.0","subject":"S1C1213","sona":"41471","block":3,"time":"2021-09-15T17:31:49.331Z","response":"2nd","certainty":"high","char":"L","transposition":-2,"order":["shifted","swapped"],"probe_pitches":[3,-2,3,8,3,8,6,-2,8,1,10,6],"shifted_pitches":[3,-2,3,8,3,8,7,-2,8,1,10,6],"swapped_pitches":[3,-2,3,8,3,6,8,-2,8,1,10,6],"shift_direction":1,"question_num":171,"has_decoy":false},{"rt":373.90000009536743,"stimulus":"[A] option 1, [L] option 2, [G] neither","key_press":76,"name":"choice","trial_type":"html-keyboard-response","trial_index":208,"time_elapsed":377688,"internal_node_id":"0.0-208.0","subject":"S1C1213","sona":"41471","block":3,"time":"2021-09-15T17:31:49.331Z","response":"2nd","certainty":"high","char":"L","transposition":3,"order":["swapped","shifted"],"probe_pitches":[3,5,0,3,0,5,3,8,3,5,10,5],"shifted_pitches":[3,5,0,3,0,5,2,8,3,5,10,5],"swapped_pitches":[3,5,0,3,0,3,5,8,3,5,10,5],"shift_direction":-1,"question_num":181,"has_decoy":false},{"rt":297.89999985694885,"stimulus":"[A] option 1, [L] option 2, [G] neither","key_press":65,"name":"choice","trial_type":"html-keyboard-response","trial_index":219,"time_elapsed":396602,"internal_node_id":"0.0-219.0","subject":"S1C1213","sona":"41471","block":3,"time":"2021-09-15T17:31:49.331Z","response":"1st","certainty":"high","char":"A","transposition":-3,"order":["shifted","swapped"],"probe_pitches":[12,8,3,10,5,10,12,13,6,9,5,3],"shifted_pitches":[12,8,3,10,5,10,11,13,6,9,5,3],"swapped_pitches":[12,8,3,10,5,12,10,13,6,9,5,3],"shift_direction":-1,"question_num":191,"has_decoy":false}]