[{"rt":273.39999985694885,"stimulus":"[A] option 1, [L] option 2, [G] neither","key_press":76,"name":"choice","trial_type":"html-keyboard-response","trial_index":10,"time_elapsed":19270,"internal_node_id":"0.0-10.0","subject":"S1C1213","sona":"41471","block":5,"time":"2021-09-15T17:45:24.952Z","response":"2nd","certainty":"high","char":"L","transposition":1,"order":["shifted","swapped"],"probe_pitches":[7,2,-2,-1,-3,5,6,7,9,6,0,8],"shifted_pitches":[7,2,-2,-1,-3,4,6,7,9,6,0,8],"swapped_pitches":[7,2,-2,-1,-3,6,5,7,9,6,0,8],"shift_direction":-1,"question_num":1,"has_decoy":false},{"rt":212.09999990463257,"stimulus":"[A] option 1, [L] option 2, [G] neither","key_press":76,"name":"choice","trial_type":"html-keyboard-response","trial_index":21,"time_elapsed":38563,"internal_node_id":"0.0-21.0","subject":"S1C1213","sona":"41471","block":5,"time":"2021-09-15T17:45:24.952Z","response":"2nd","certainty":"high","char":"L","transposition":2,"order":["swapped","shifted"],"probe_pitches":[5,10,8,1,-2,8,3,10,1,5,8,10],"shifted_pitches":[5,10,8,1,-2,8,4,10,1,5,8,10],"swapped_pitches":[5,10,8,1,-2,3,8,10,1,5,8,10],"shift_direction":1,"question_num":11,"has_decoy":false},{"rt":1185.5,"stimulus":"[A] option 1, [L] option 2, [G] neither","key_press":65,"name":"choice","trial_type":"html-keyboard-response","trial_index":32,"time_elapsed":58586,"internal_node_id":"0.0-32.0","subject":"S1C1213","sona":"41471","block":5,"time":"2021-09-15T17:45:24.952Z","response":"1st","certainty":"high","char":"A","transposition":-3,"order":["shifted","swapped"],"probe_pitches":[0,4,0,8,2,6,8,3,4,6,4,-2],"shifted_pitches":[0,4,0,8,2,5,8,3,4,6,4,-2],"swapped_pitches":[0,4,0,8,2,8,6,3,4,6,4,-2],"shift_direction":-1,"question_num":21,"has_decoy":false},{"rt":223.30000019073486,"stimulus":"[A] option 1, [L] option 2, [G] neither","key_press":76,"name":"choice","trial_type":"html-keyboard-response","trial_index":43,"time_elapsed":77414,"internal_node_id":"0.0-43.0","subject":"S1C1213","sona":"41471","block":5,"time":"2021-09-15T17:45:24.952Z","response":"2nd","certainty":"high","char":"L","transposition":-1,"order":["swapped","shifted"],"probe_pitches":[-2,3,-2,3,8,5,-2,8,10,-2,5,0],"shifted_pitches":[-2,3,-2,3,8,4,-2,8,10,-2,5,0],"swapped_pitches":[-2,3,-2,3,8,-2,5,8,10,-2,5,0],"shift_direction":-1,"question_num":31,"has_decoy":false},{"rt":278.2000000476837,"stimulus":"[A] option 1, [L] option 2, [G] neither","key_press":65,"name":"choice","trial_type":"html-keyboard-response","trial_index":54,"time_elapsed":96688,"internal_node_id":"0.0-54.0","subject":"S1C1213","sona":"41471","block":5,"time":"2021-09-15T17:45:24.952Z","response":"1st","certainty":"high","char":"A","transposition":0,"order":["shifted","swapped"],"probe_pitches":[-2,3,5,8,1,3,8,5,8,1,-2,5],"shifted_pitches":[-2,3,5,8,1,2,8,5,8,1,-2,5],"swapped_pitches":[-2,3,5,8,1,8,3,5,8,1,-2,5],"shift_direction":-1,"question_num":41,"has_decoy":false},{"rt":337.09999990463257,"stimulus":"[A] option 1, [L] option 2, [G] neither","key_press":76,"name":"choice","trial_type":"html-keyboard-response","trial_index":65,"time_elapsed":115667,"internal_node_id":"0.0-65.0","subject":"S1C1213","sona":"41471","block":5,"time":"2021-09-15T17:45:24.952Z","response":"2nd","certainty":"high","char":"L","transposition":3,"order":["swapped","shifted"],"probe_pitches":[8,6,3,-2,1,3,10,8,6,-2,10,6],"shifted_pitches":[8,6,3,-2,1,4,10,8,6,-2,10,6],"swapped_pitches":[8,6,3,-2,1,10,3,8,6,-2,10,6],"shift_direction":1,"question_num":51,"has_decoy":false},{"rt":484.59999990463257,"stimulus":"[A] option 1, [L] option 2, [G] neither","key_press":76,"name":"choice","trial_type":"html-keyboard-response","trial_index":76,"time_elapsed":135755,"internal_node_id":"0.0-76.0","subject":"S1C1213","sona":"41471","block":5,"time":"2021-09-15T17:45:24.952Z","response":"2nd","certainty":"high","char":"L","transposition":-2,"order":["swapped","shifted"],"probe_pitches":[4,1,7,3,1,9,6,1,7,9,7,1],"shifted_pitches":[4,1,7,3,1,8,6,1,7,9,7,1],"swapped_pitches":[4,1,7,3,1,6,9,1,7,9,7,1],"shift_direction":-1,"question_num":61,"has_decoy":false},{"rt":385.7999999523163,"stimulus":"[A] option 1, [L] option 2, [G] neither","key_press":65,"name":"choice","trial_type":"html-keyboard-response","trial_index":87,"time_elapsed":155286,"internal_node_id":"0.0-87.0","subject":"S1C1213","sona":"41471","block":5,"time":"2021-09-15T17:45:24.952Z","response":"1st","certainty":"high","char":"A","transposition":2,"order":["swapped","shifted"],"probe_pitches":[1,-3,-2,6,-2,4,-1,3,7,4,2,5],"shifted_pitches":[1,-3,-2,6,-2,4,0,3,7,4,2,5],"swapped_pitches":[1,-3,-2,6,-2,-1,4,3,7,4,2,5],"shift_direction":1,"question_num":71,"has_decoy":false},{"rt":290.40000009536743,"stimulus":"[A] option 1, [L] option 2, [G] neither","key_press":65,"name":"choice","trial_type":"html-keyboard-response","trial_index":98,"time_elapsed":173902,"internal_node_id":"0.0-98.0","subject":"S1C1213","sona":"41471","block":5,"time":"2021-09-15T17:45:24.952Z","response":"1st","certainty":"high","char":"A","transposition":-1,"order":["shifted","swapped"],"probe_pitches":[3,1,-2,6,-2,1,8,10,1,6,10,1],"shifted_pitches":[3,1,-2,6,-2,0,8,10,1,6,10,1],"swapped_pitches":[3,1,-2,6,-2,8,1,10,1,6,10,1],"shift_direction":-1,"question_num":81,"has_decoy":false},{"rt":1548.7000000476837,"stimulus":"[A] option 1, [L] option 2, [G] neither","key_press":65,"name":"choice","trial_type":"html-keyboard-response","trial_index":109,"time_elapsed":193849,"internal_node_id":"0.0-109.0","subject":"S1C1213","sona":"41471","block":5,"time":"2021-09-15T17:45:24.952Z","response":"1st","certainty":"high","char":"A","transposition":-2,"order":["shifted","swapped"],"probe_pitches":[0,5,10,7,5,2,-2,10,7,2,5,-2],"shifted_pitches":[0,5,10,7,5,2,-3,10,7,2,5,-2],"swapped_pitches":[0,5,10,7,5,-2,2,10,7,2,5,-2],"shift_direction":-1,"question_num":91,"has_decoy":false},{"rt":302,"stimulus":"[A] option 1, [L] option 2, [G] neither","key_press":76,"name":"choice","trial_type":"html-keyboard-response","trial_index":120,"time_elapsed":212613,"internal_node_id":"0.0-120.0","subject":"S1C1213","sona":"41471","block":5,"time":"2021-09-15T17:45:24.952Z","response":"2nd","certainty":"high","char":"L","transposition":-3,"order":["swapped","shifted"],"probe_pitches":[7,5,3,5,0,3,7,5,0,10,3,10],"shifted_pitches":[7,5,3,5,0,3,8,5,0,10,3,10],"swapped_pitches":[7,5,3,5,0,7,3,5,0,10,3,10],"shift_direction":1,"question_num":101,"has_decoy":false},{"rt":387.2999999523163,"stimulus":"[A] option 1, [L] option 2, [G] neither","key_press":65,"name":"choice","trial_type":"html-keyboard-response","trial_index":131,"time_elapsed":231577,"internal_node_id":"0.0-131.0","subject":"S1C1213","sona":"41471","block":5,"time":"2021-09-15T17:45:24.952Z","response":"1st","certainty":"high","char":"A","transposition":3,"order":["shifted","swapped"],"probe_pitches":[3,4,-2,0,8,1,7,-3,6,3,-1,3],"shifted_pitches":[3,4,-2,0,8,2,7,-3,6,3,-1,3],"swapped_pitches":[3,4,-2,0,8,7,1,-3,6,3,-1,3],"shift_direction":1,"question_num":111,"has_decoy":false},{"rt":298.30000019073486,"stimulus":"[A] option 1, [L] option 2, [G] neither","key_press":76,"name":"choice","trial_type":"html-keyboard-response","trial_index":142,"time_elapsed":250549,"internal_node_id":"0.0-142.0","subject":"S1C1213","sona":"41471","block":5,"time":"2021-09-15T17:45:24.952Z","response":"2nd","certainty":"high","char":"L","transposition":-2,"order":["swapped","shifted"],"probe_pitches":[2,6,2,5,1,5,2,4,6,1,9,8],"shifted_pitches":[2,6,2,5,1,5,3,4,6,1,9,8],"swapped_pitches":[2,6,2,5,1,2,5,4,6,1,9,8],"shift_direction":1,"question_num":121,"has_decoy":false},{"rt":805.7000000476837,"stimulus":"[A] option 1, [L] option 2, [G] neither","key_press":65,"name":"choice","trial_type":"html-keyboard-response","trial_index":153,"time_elapsed":269756,"internal_node_id":"0.0-153.0","subject":"S1C1213","sona":"41471","block":5,"time":"2021-09-15T17:45:24.952Z","response":"1st","certainty":"high","char":"A","transposition":1,"order":["shifted","swapped"],"probe_pitches":[7,5,0,2,10,7,0,-2,2,0,-2,5],"shifted_pitches":[7,5,0,2,10,7,1,-2,2,0,-2,5],"swapped_pitches":[7,5,0,2,10,0,7,-2,2,0,-2,5],"shift_direction":1,"question_num":131,"has_decoy":false},{"rt":446.7999999523163,"stimulus":"[A] option 1, [L] option 2, [G] neither","key_press":65,"name":"choice","trial_type":"html-keyboard-response","trial_index":164,"time_elapsed":288797,"internal_node_id":"0.0-164.0","subject":"S1C1213","sona":"41471","block":5,"time":"2021-09-15T17:45:24.952Z","response":"1st","certainty":"high","char":"A","transposition":-1,"order":["swapped","shifted"],"probe_pitches":[9,6,1,-1,3,8,5,3,9,4,3,8],"shifted_pitches":[9,6,1,-1,3,7,5,3,9,4,3,8],"swapped_pitches":[9,6,1,-1,3,5,8,3,9,4,3,8],"shift_direction":-1,"question_num":141,"has_decoy":false},{"rt":326.60000014305115,"stimulus":"[A] option 1, [L] option 2, [G] neither","key_press":65,"name":"choice","trial_type":"html-keyboard-response","trial_index":175,"time_elapsed":307967,"internal_node_id":"0.0-175.0","subject":"S1C1213","sona":"41471","block":5,"time":"2021-09-15T17:45:24.952Z","response":"1st","certainty":"high","char":"A","transposition":-3,"order":["shifted","swapped"],"probe_pitches":[0,3,1,4,0,-1,5,0,2,4,-3,8],"shifted_pitches":[0,3,1,4,0,-1,6,0,2,4,-3,8],"swapped_pitches":[0,3,1,4,0,5,-1,0,2,4,-3,8],"shift_direction":1,"question_num":151,"has_decoy":false},{"rt":744.6000001430511,"stimulus":"[A] option 1, [L] option 2, [G] neither","key_press":76,"name":"choice","trial_type":"html-keyboard-response","trial_index":186,"time_elapsed":327865,"internal_node_id":"0.0-186.0","subject":"S1C1213","sona":"41471","block":5,"time":"2021-09-15T17:45:24.952Z","response":"2nd","certainty":"high","char":"L","transposition":0,"order":["swapped","shifted"],"probe_pitches":[1,3,1,-2,1,-3,-2,8,2,8,6,2],"shifted_pitches":[1,3,1,-2,1,-3,-1,8,2,8,6,2],"swapped_pitches":[1,3,1,-2,1,-2,-3,8,2,8,6,2],"shift_direction":1,"question_num":161,"has_decoy":false},{"rt":329.09999990463257,"stimulus":"[A] option 1, [L] option 2, [G] neither","key_press":76,"name":"choice","trial_type":"html-keyboard-response","trial_index":197,"time_elapsed":346770,"internal_node_id":"0.0-197.0","subject":"S1C1213","sona":"41471","block":5,"time":"2021-09-15T17:45:24.952Z","response":"2nd","certainty":"high","char":"L","transposition":-3,"order":["swapped","shifted"],"probe_pitches":[7,10,3,0,3,0,10,7,-2,10,0,5],"shifted_pitches":[7,10,3,0,3,0,11,7,-2,10,0,5],"swapped_pitches":[7,10,3,0,3,10,0,7,-2,10,0,5],"shift_direction":1,"question_num":171,"has_decoy":false},{"rt":145.20000004768372,"stimulus":"[A] option 1, [L] option 2, [G] neither","key_press":76,"name":"choice","trial_type":"html-keyboard-response","trial_index":208,"time_elapsed":365436,"internal_node_id":"0.0-208.0","subject":"S1C1213","sona":"41471","block":5,"time":"2021-09-15T17:45:24.952Z","response":"2nd","certainty":"high","char":"L","transposition":-2,"order":["shifted","swapped"],"probe_pitches":[-2,3,-2,5,3,8,-2,10,-2,10,3,0],"shifted_pitches":[-2,3,-2,5,3,7,-2,10,-2,10,3,0],"swapped_pitches":[-2,3,-2,5,3,-2,8,10,-2,10,3,0],"shift_direction":-1,"question_num":181,"has_decoy":false},{"rt":896.2999999523163,"stimulus":"[A] option 1, [L] option 2, [G] neither","key_press":65,"name":"choice","trial_type":"html-keyboard-response","trial_index":219,"time_elapsed":385007,"internal_node_id":"0.0-219.0","subject":"S1C1213","sona":"41471","block":5,"time":"2021-09-15T17:45:24.952Z","response":"1st","certainty":"high","char":"A","transposition":-1,"order":["shifted","swapped"],"probe_pitches":[2,0,-2,0,6,3,2,6,2,-3,8,3],"shifted_pitches":[2,0,-2,0,6,3,1,6,2,-3,8,3],"swapped_pitches":[2,0,-2,0,6,2,3,6,2,-3,8,3],"shift_direction":-1,"question_num":191,"has_decoy":false}]