[{"rt":170.29999995231628,"stimulus":"[A] option 1, [L] option 2, [G] neither","key_press":65,"name":"choice","trial_type":"html-keyboard-response","trial_index":10,"time_elapsed":18432,"internal_node_id":"0.0-10.0","subject":"S1C1213","sona":"41471","block":6,"time":"2021-09-15T17:51:54.265Z","response":"1st","certainty":"high","char":"A","transposition":-1,"order":["shifted","swapped"],"probe_pitches":[-2,1,8,3,8,-2,3,1,5,10,-2,10],"shifted_pitches":[-2,1,8,3,8,-2,2,1,5,10,-2,10],"swapped_pitches":[-2,1,8,3,8,3,-2,1,5,10,-2,10],"shift_direction":-1,"question_num":1,"has_decoy":false},{"rt":430.2000000476837,"stimulus":"[A] option 1, [L] option 2, [G] neither","key_press":76,"name":"choice","trial_type":"html-keyboard-response","trial_index":21,"time_elapsed":36993,"internal_node_id":"0.0-21.0","subject":"S1C1213","sona":"41471","block":6,"time":"2021-09-15T17:51:54.265Z","response":"2nd","certainty":"high","char":"L","transposition":-2,"order":["swapped","shifted"],"probe_pitches":[10,6,8,3,1,10,8,1,-2,6,-2,3],"shifted_pitches":[10,6,8,3,1,10,7,1,-2,6,-2,3],"swapped_pitches":[10,6,8,3,1,8,10,1,-2,6,-2,3],"shift_direction":-1,"question_num":11,"has_decoy":false},{"rt":372.10000014305115,"stimulus":"[A] option 1, [L] option 2, [G] neither","key_press":65,"name":"choice","trial_type":"html-keyboard-response","trial_index":32,"time_elapsed":56245,"internal_node_id":"0.0-32.0","subject":"S1C1213","sona":"41471","block":6,"time":"2021-09-15T17:51:54.265Z","response":"1st","certainty":"high","char":"A","transposition":2,"order":["shifted","swapped"],"probe_pitches":[3,1,6,3,-2,3,6,1,8,6,3,8],"shifted_pitches":[3,1,6,3,-2,3,5,1,8,6,3,8],"swapped_pitches":[3,1,6,3,-2,6,3,1,8,6,3,8],"shift_direction":-1,"question_num":21,"has_decoy":false},{"rt":226.59999990463257,"stimulus":"[A] option 1, [L] option 2, [G] neither","key_press":76,"name":"choice","trial_type":"html-keyboard-response","trial_index":43,"time_elapsed":75040,"internal_node_id":"0.0-43.0","subject":"S1C1213","sona":"41471","block":6,"time":"2021-09-15T17:51:54.265Z","response":"2nd","certainty":"high","char":"L","transposition":3,"order":["shifted","swapped"],"probe_pitches":[10,7,9,4,0,-1,3,4,-1,5,4,1],"shifted_pitches":[10,7,9,4,0,-1,2,4,-1,5,4,1],"swapped_pitches":[10,7,9,4,0,3,-1,4,-1,5,4,1],"shift_direction":-1,"question_num":31,"has_decoy":false},{"rt":396.69999980926514,"stimulus":"[A] option 1, [L] option 2, [G] neither","key_press":76,"name":"choice","trial_type":"html-keyboard-response","trial_index":54,"time_elapsed":93798,"internal_node_id":"0.0-54.0","subject":"S1C1213","sona":"41471","block":6,"time":"2021-09-15T17:51:54.265Z","response":"2nd","certainty":"high","char":"L","transposition":0,"order":["swapped","shifted"],"probe_pitches":[-2,0,7,5,2,0,7,5,7,10,-2,2],"shifted_pitches":[-2,0,7,5,2,1,7,5,7,10,-2,2],"swapped_pitches":[-2,0,7,5,2,7,0,5,7,10,-2,2],"shift_direction":1,"question_num":41,"has_decoy":false},{"rt":376.89999985694885,"stimulus":"[A] option 1, [L] option 2, [G] neither","key_press":65,"name":"choice","trial_type":"html-keyboard-response","trial_index":65,"time_elapsed":112259,"internal_node_id":"0.0-65.0","subject":"S1C1213","sona":"41471","block":6,"time":"2021-09-15T17:51:54.265Z","response":"1st","certainty":"high","char":"A","transposition":-3,"order":["swapped","shifted"],"probe_pitches":[5,1,8,4,-2,8,-1,-2,5,6,0,-2],"shifted_pitches":[5,1,8,4,-2,7,-1,-2,5,6,0,-2],"swapped_pitches":[5,1,8,4,-2,-1,8,-2,5,6,0,-2],"shift_direction":-1,"question_num":51,"has_decoy":false},{"rt":2584.899999856949,"stimulus":"[A] option 1, [L] option 2, [G] neither","key_press":76,"name":"choice","trial_type":"html-keyboard-response","trial_index":76,"time_elapsed":133158,"internal_node_id":"0.0-76.0","subject":"S1C1213","sona":"41471","block":6,"time":"2021-09-15T17:51:54.265Z","response":"2nd","certainty":"high","char":"L","transposition":-1,"order":["swapped","shifted"],"probe_pitches":[8,3,-2,0,3,10,0,-1,9,7,-2,0],"shifted_pitches":[8,3,-2,0,3,10,1,-1,9,7,-2,0],"swapped_pitches":[8,3,-2,0,3,0,10,-1,9,7,-2,0],"shift_direction":1,"question_num":61,"has_decoy":false},{"rt":449.09999990463257,"stimulus":"[A] option 1, [L] option 2, [G] neither","key_press":76,"name":"choice","trial_type":"html-keyboard-response","trial_index":87,"time_elapsed":153012,"internal_node_id":"0.0-87.0","subject":"S1C1213","sona":"41471","block":6,"time":"2021-09-15T17:51:54.265Z","response":"2nd","certainty":"high","char":"L","transposition":-3,"order":["swapped","shifted"],"probe_pitches":[5,10,7,5,0,3,-2,7,-2,10,3,7],"shifted_pitches":[5,10,7,5,0,4,-2,7,-2,10,3,7],"swapped_pitches":[5,10,7,5,0,-2,3,7,-2,10,3,7],"shift_direction":1,"question_num":71,"has_decoy":false},{"rt":221.59999990463257,"stimulus":"[A] option 1, [L] option 2, [G] neither","key_press":65,"name":"choice","trial_type":"html-keyboard-response","trial_index":98,"time_elapsed":173793,"internal_node_id":"0.0-98.0","subject":"S1C1213","sona":"41471","block":6,"time":"2021-09-15T17:51:54.265Z","response":"1st","certainty":"high","char":"A","transposition":-2,"order":["shifted","swapped"],"probe_pitches":[4,-2,-1,7,4,10,3,0,10,-2,0,10],"shifted_pitches":[4,-2,-1,7,4,9,3,0,10,-2,0,10],"swapped_pitches":[4,-2,-1,7,4,3,10,0,10,-2,0,10],"shift_direction":-1,"question_num":81,"has_decoy":false},{"rt":877.4000000953674,"stimulus":"[A] option 1, [L] option 2, [G] neither","key_press":76,"name":"choice","trial_type":"html-keyboard-response","trial_index":109,"time_elapsed":193430,"internal_node_id":"0.0-109.0","subject":"S1C1213","sona":"41471","block":6,"time":"2021-09-15T17:51:54.265Z","response":"2nd","certainty":"high","char":"L","transposition":0,"order":["swapped","shifted"],"probe_pitches":[3,9,8,9,7,5,2,-2,4,-1,9,3],"shifted_pitches":[3,9,8,9,7,6,2,-2,4,-1,9,3],"swapped_pitches":[3,9,8,9,7,2,5,-2,4,-1,9,3],"shift_direction":1,"question_num":91,"has_decoy":false},{"rt":380,"stimulus":"[A] option 1, [L] option 2, [G] neither","key_press":76,"name":"choice","trial_type":"html-keyboard-response","trial_index":120,"time_elapsed":212722,"internal_node_id":"0.0-120.0","subject":"S1C1213","sona":"41471","block":6,"time":"2021-09-15T17:51:54.265Z","response":"2nd","certainty":"high","char":"L","transposition":-2,"order":["shifted","swapped"],"probe_pitches":[0,-2,-1,2,3,0,4,1,0,-2,10,-2],"shifted_pitches":[0,-2,-1,2,3,0,5,1,0,-2,10,-2],"swapped_pitches":[0,-2,-1,2,3,4,0,1,0,-2,10,-2],"shift_direction":1,"question_num":101,"has_decoy":false},{"rt":133.09999990463257,"stimulus":"[A] option 1, [L] option 2, [G] neither","key_press":76,"name":"choice","trial_type":"html-keyboard-response","trial_index":131,"time_elapsed":231576,"internal_node_id":"0.0-131.0","subject":"S1C1213","sona":"41471","block":6,"time":"2021-09-15T17:51:54.265Z","response":"2nd","certainty":"high","char":"L","transposition":-3,"order":["swapped","shifted"],"probe_pitches":[1,5,-2,3,-2,8,5,-2,3,-2,5,-2],"shifted_pitches":[1,5,-2,3,-2,9,5,-2,3,-2,5,-2],"swapped_pitches":[1,5,-2,3,-2,5,8,-2,3,-2,5,-2],"shift_direction":1,"question_num":111,"has_decoy":false},{"rt":230.20000004768372,"stimulus":"[A] option 1, [L] option 2, [G] neither","key_press":65,"name":"choice","trial_type":"html-keyboard-response","trial_index":142,"time_elapsed":250813,"internal_node_id":"0.0-142.0","subject":"S1C1213","sona":"41471","block":6,"time":"2021-09-15T17:51:54.265Z","response":"1st","certainty":"high","char":"A","transposition":-3,"order":["shifted","swapped"],"probe_pitches":[7,6,9,7,8,-1,3,10,7,5,2,7],"shifted_pitches":[7,6,9,7,8,-1,4,10,7,5,2,7],"swapped_pitches":[7,6,9,7,8,3,-1,10,7,5,2,7],"shift_direction":1,"question_num":121,"has_decoy":false},{"rt":1827.8000001907349,"stimulus":"[A] option 1, [L] option 2, [G] neither","key_press":65,"name":"choice","trial_type":"html-keyboard-response","trial_index":153,"time_elapsed":271141,"internal_node_id":"0.0-153.0","subject":"S1C1213","sona":"41471","block":6,"time":"2021-09-15T17:51:54.265Z","response":"1st","certainty":"high","char":"A","transposition":2,"order":["swapped","shifted"],"probe_pitches":[8,3,4,5,9,5,1,8,5,6,2,7],"shifted_pitches":[8,3,4,5,9,5,0,8,5,6,2,7],"swapped_pitches":[8,3,4,5,9,1,5,8,5,6,2,7],"shift_direction":-1,"question_num":131,"has_decoy":false},{"rt":993.2999999523163,"stimulus":"[A] option 1, [L] option 2, [G] neither","key_press":65,"name":"choice","trial_type":"html-keyboard-response","trial_index":164,"time_elapsed":290276,"internal_node_id":"0.0-164.0","subject":"S1C1213","sona":"41471","block":6,"time":"2021-09-15T17:51:54.265Z","response":"1st","certainty":"high","char":"A","transposition":3,"order":["shifted","swapped"],"probe_pitches":[7,10,5,10,7,0,3,10,5,-2,3,10],"shifted_pitches":[7,10,5,10,7,0,2,10,5,-2,3,10],"swapped_pitches":[7,10,5,10,7,3,0,10,5,-2,3,10],"shift_direction":-1,"question_num":141,"has_decoy":false},{"rt":268.59999990463257,"stimulus":"[A] option 1, [L] option 2, [G] neither","key_press":76,"name":"choice","trial_type":"html-keyboard-response","trial_index":175,"time_elapsed":309211,"internal_node_id":"0.0-175.0","subject":"S1C1213","sona":"41471","block":6,"time":"2021-09-15T17:51:54.265Z","response":"2nd","certainty":"high","char":"L","transposition":1,"order":["swapped","shifted"],"probe_pitches":[3,0,-2,3,-2,8,3,-2,5,-2,5,-2],"shifted_pitches":[3,0,-2,3,-2,8,4,-2,5,-2,5,-2],"swapped_pitches":[3,0,-2,3,-2,3,8,-2,5,-2,5,-2],"shift_direction":1,"question_num":151,"has_decoy":false},{"rt":404.60000014305115,"stimulus":"[A] option 1, [L] option 2, [G] neither","key_press":65,"name":"choice","trial_type":"html-keyboard-response","trial_index":186,"time_elapsed":327937,"internal_node_id":"0.0-186.0","subject":"S1C1213","sona":"41471","block":6,"time":"2021-09-15T17:51:54.265Z","response":"1st","certainty":"high","char":"A","transposition":1,"order":["shifted","swapped"],"probe_pitches":[-1,4,9,3,0,7,5,10,6,2,4,-1],"shifted_pitches":[-1,4,9,3,0,8,5,10,6,2,4,-1],"swapped_pitches":[-1,4,9,3,0,5,7,10,6,2,4,-1],"shift_direction":1,"question_num":161,"has_decoy":false},{"rt":287.7999999523163,"stimulus":"[A] option 1, [L] option 2, [G] neither","key_press":76,"name":"choice","trial_type":"html-keyboard-response","trial_index":197,"time_elapsed":346640,"internal_node_id":"0.0-197.0","subject":"S1C1213","sona":"41471","block":6,"time":"2021-09-15T17:51:54.265Z","response":"2nd","certainty":"high","char":"L","transposition":-1,"order":["swapped","shifted"],"probe_pitches":[6,0,-2,5,7,4,9,0,6,0,8,4],"shifted_pitches":[6,0,-2,5,7,3,9,0,6,0,8,4],"swapped_pitches":[6,0,-2,5,7,9,4,0,6,0,8,4],"shift_direction":-1,"question_num":171,"has_decoy":false},{"rt":1019.4000000953674,"stimulus":"[A] option 1, [L] option 2, [G] neither","key_press":65,"name":"choice","trial_type":"html-keyboard-response","trial_index":208,"time_elapsed":366644,"internal_node_id":"0.0-208.0","subject":"S1C1213","sona":"41471","block":6,"time":"2021-09-15T17:51:54.265Z","response":"1st","certainty":"high","char":"A","transposition":-2,"order":["shifted","swapped"],"probe_pitches":[3,8,3,0,8,5,-2,10,3,8,-2,8],"shifted_pitches":[3,8,3,0,8,6,-2,10,3,8,-2,8],"swapped_pitches":[3,8,3,0,8,-2,5,10,3,8,-2,8],"shift_direction":1,"question_num":181,"has_decoy":false},{"rt":148.59999990463257,"stimulus":"[A] option 1, [L] option 2, [G] neither","key_press":65,"name":"choice","trial_type":"html-keyboard-response","trial_index":219,"time_elapsed":386031,"internal_node_id":"0.0-219.0","subject":"S1C1213","sona":"41471","block":6,"time":"2021-09-15T17:51:54.265Z","response":"1st","certainty":"high","char":"A","transposition":-1,"order":["shifted","swapped"],"probe_pitches":[2,5,2,5,0,7,2,10,7,10,0,7],"shifted_pitches":[2,5,2,5,0,6,2,10,7,10,0,7],"swapped_pitches":[2,5,2,5,0,2,7,10,7,10,0,7],"shift_direction":-1,"question_num":191,"has_decoy":false}]