[{"rt":1255.4000000953674,"stimulus":"[A] option 1, [L] option 2, [G] neither","key_press":65,"name":"choice","trial_type":"html-keyboard-response","trial_index":10,"time_elapsed":21826,"internal_node_id":"0.0-10.0","subject":"S1C1213","sona":"41471","block":2,"time":"2021-09-15T17:25:06.727Z","response":"1st","certainty":"high","char":"A","transposition":-1,"order":["shifted","swapped"],"probe_pitches":[6,9,11,13,4,13,8,5,4,6,11,5],"shifted_pitches":[6,9,11,13,4,13,7,5,4,6,11,5],"swapped_pitches":[6,9,11,13,4,8,13,5,4,6,11,5],"shift_direction":-1,"question_num":1,"has_decoy":false},{"rt":689.7999999523163,"stimulus":"[A] option 1, [L] option 2, [G] neither","key_press":65,"name":"choice","trial_type":"html-keyboard-response","trial_index":21,"time_elapsed":41811,"internal_node_id":"0.0-21.0","subject":"S1C1213","sona":"41471","block":2,"time":"2021-09-15T17:25:06.727Z","response":"1st","certainty":"high","char":"A","transposition":-2,"order":["shifted","swapped"],"probe_pitches":[3,8,3,10,5,10,13,1,3,13,8,13],"shifted_pitches":[3,8,3,10,5,9,13,1,3,13,8,13],"swapped_pitches":[3,8,3,10,5,13,10,1,3,13,8,13],"shift_direction":-1,"question_num":11,"has_decoy":false},{"rt":4095.600000143051,"stimulus":"[A] option 1, [L] option 2, [G] neither","key_press":76,"name":"choice","trial_type":"html-keyboard-response","trial_index":32,"time_elapsed":137686,"internal_node_id":"0.0-32.0","subject":"S1C1213","sona":"41471","block":2,"time":"2021-09-15T17:25:06.727Z","response":"2nd","certainty":"high","char":"L","transposition":3,"order":["swapped","shifted"],"probe_pitches":[10,14,11,6,2,9,5,7,3,2,9,14],"shifted_pitches":[10,14,11,6,2,9,4,7,3,2,9,14],"swapped_pitches":[10,14,11,6,2,5,9,7,3,2,9,14],"shift_direction":-1,"question_num":21,"has_decoy":false},{"rt":4367.599999904633,"stimulus":"[A] option 1, [L] option 2, [G] neither","key_press":76,"name":"choice","trial_type":"html-keyboard-response","trial_index":43,"time_elapsed":161458,"internal_node_id":"0.0-43.0","subject":"S1C1213","sona":"41471","block":2,"time":"2021-09-15T17:25:06.727Z","response":"2nd","certainty":"high","char":"L","transposition":-2,"order":["shifted","swapped"],"probe_pitches":[9,4,6,9,13,3,7,6,12,4,10,7],"shifted_pitches":[9,4,6,9,13,3,8,6,12,4,10,7],"swapped_pitches":[9,4,6,9,13,7,3,6,12,4,10,7],"shift_direction":1,"question_num":31,"has_decoy":false},{"rt":2367.7999999523163,"stimulus":"[A] option 1, [L] option 2, [G] neither","key_press":65,"name":"choice","trial_type":"html-keyboard-response","trial_index":54,"time_elapsed":185776,"internal_node_id":"0.0-54.0","subject":"S1C1213","sona":"41471","block":2,"time":"2021-09-15T17:25:06.727Z","response":"1st","certainty":"high","char":"A","transposition":2,"order":["shifted","swapped"],"probe_pitches":[13,11,4,1,8,6,1,13,8,6,11,1],"shifted_pitches":[13,11,4,1,8,7,1,13,8,6,11,1],"swapped_pitches":[13,11,4,1,8,1,6,13,8,6,11,1],"shift_direction":1,"question_num":41,"has_decoy":false},{"rt":938.7999999523163,"stimulus":"[A] option 1, [L] option 2, [G] neither","key_press":76,"name":"choice","trial_type":"html-keyboard-response","trial_index":65,"time_elapsed":205890,"internal_node_id":"0.0-65.0","subject":"S1C1213","sona":"41471","block":2,"time":"2021-09-15T17:25:06.727Z","response":"2nd","certainty":"high","char":"L","transposition":-3,"order":["swapped","shifted"],"probe_pitches":[6,10,8,10,1,10,13,6,13,3,10,6],"shifted_pitches":[6,10,8,10,1,10,14,6,13,3,10,6],"swapped_pitches":[6,10,8,10,1,13,10,6,13,3,10,6],"shift_direction":1,"question_num":51,"has_decoy":false},{"rt":1087.2000000476837,"stimulus":"[A] option 1, [L] option 2, [G] neither","key_press":76,"name":"choice","trial_type":"html-keyboard-response","trial_index":76,"time_elapsed":225796,"internal_node_id":"0.0-76.0","subject":"S1C1213","sona":"41471","block":2,"time":"2021-09-15T17:25:06.727Z","response":"2nd","certainty":"high","char":"L","transposition":3,"order":["shifted","swapped"],"probe_pitches":[6,8,6,11,13,4,1,8,13,11,6,4],"shifted_pitches":[6,8,6,11,13,3,1,8,13,11,6,4],"swapped_pitches":[6,8,6,11,13,1,4,8,13,11,6,4],"shift_direction":-1,"question_num":61,"has_decoy":false},{"rt":1000.8999998569489,"stimulus":"[A] option 1, [L] option 2, [G] neither","key_press":76,"name":"choice","trial_type":"html-keyboard-response","trial_index":87,"time_elapsed":246343,"internal_node_id":"0.0-87.0","subject":"S1C1213","sona":"41471","block":2,"time":"2021-09-15T17:25:06.727Z","response":"2nd","certainty":"high","char":"L","transposition":-3,"order":["swapped","shifted"],"probe_pitches":[4,9,10,2,6,11,5,9,11,13,8,7],"shifted_pitches":[4,9,10,2,6,12,5,9,11,13,8,7],"swapped_pitches":[4,9,10,2,6,5,11,9,11,13,8,7],"shift_direction":1,"question_num":71,"has_decoy":false},{"rt":522.5999999046326,"stimulus":"[A] option 1, [L] option 2, [G] neither","key_press":76,"name":"choice","trial_type":"html-keyboard-response","trial_index":98,"time_elapsed":265892,"internal_node_id":"0.0-98.0","subject":"S1C1213","sona":"41471","block":2,"time":"2021-09-15T17:25:06.727Z","response":"2nd","certainty":"high","char":"L","transposition":1,"order":["swapped","shifted"],"probe_pitches":[11,6,13,6,11,3,6,8,6,13,3,1],"shifted_pitches":[11,6,13,6,11,3,5,8,6,13,3,1],"swapped_pitches":[11,6,13,6,11,6,3,8,6,13,3,1],"shift_direction":-1,"question_num":81,"has_decoy":false},{"rt":638.9000000953674,"stimulus":"[A] option 1, [L] option 2, [G] neither","key_press":76,"name":"choice","trial_type":"html-keyboard-response","trial_index":109,"time_elapsed":285408,"internal_node_id":"0.0-109.0","subject":"S1C1213","sona":"41471","block":2,"time":"2021-09-15T17:25:06.727Z","response":"2nd","certainty":"high","char":"L","transposition":1,"order":["swapped","shifted"],"probe_pitches":[12,7,11,8,12,9,11,12,7,11,6,4],"shifted_pitches":[12,7,11,8,12,10,11,12,7,11,6,4],"swapped_pitches":[12,7,11,8,12,11,9,12,7,11,6,4],"shift_direction":1,"question_num":91,"has_decoy":false},{"rt":610.0999999046326,"stimulus":"[A] option 1, [L] option 2, [G] neither","key_press":76,"name":"choice","trial_type":"html-keyboard-response","trial_index":120,"time_elapsed":305299,"internal_node_id":"0.0-120.0","subject":"S1C1213","sona":"41471","block":2,"time":"2021-09-15T17:25:06.727Z","response":"2nd","certainty":"high","char":"L","transposition":0,"order":["shifted","swapped"],"probe_pitches":[1,3,10,3,10,8,3,1,8,10,6,13],"shifted_pitches":[1,3,10,3,10,8,2,1,8,10,6,13],"swapped_pitches":[1,3,10,3,10,3,8,1,8,10,6,13],"shift_direction":-1,"question_num":101,"has_decoy":false},{"rt":508.40000009536743,"stimulus":"[A] option 1, [L] option 2, [G] neither","key_press":76,"name":"choice","trial_type":"html-keyboard-response","trial_index":131,"time_elapsed":324778,"internal_node_id":"0.0-131.0","subject":"S1C1213","sona":"41471","block":2,"time":"2021-09-15T17:25:06.727Z","response":"2nd","certainty":"high","char":"L","transposition":-1,"order":["swapped","shifted"],"probe_pitches":[4,1,4,11,9,6,1,11,6,9,13,9],"shifted_pitches":[4,1,4,11,9,7,1,11,6,9,13,9],"swapped_pitches":[4,1,4,11,9,1,6,11,6,9,13,9],"shift_direction":1,"question_num":111,"has_decoy":false},{"rt":3746.399999856949,"stimulus":"[A] option 1, [L] option 2, [G] neither","key_press":65,"name":"choice","trial_type":"html-keyboard-response","trial_index":142,"time_elapsed":347806,"internal_node_id":"0.0-142.0","subject":"S1C1213","sona":"41471","block":2,"time":"2021-09-15T17:25:06.727Z","response":"1st","certainty":"high","char":"A","transposition":0,"order":["shifted","swapped"],"probe_pitches":[4,7,14,12,8,3,7,4,7,11,8,14],"shifted_pitches":[4,7,14,12,8,3,6,4,7,11,8,14],"swapped_pitches":[4,7,14,12,8,7,3,4,7,11,8,14],"shift_direction":-1,"question_num":121,"has_decoy":false},{"rt":960,"stimulus":"[A] option 1, [L] option 2, [G] neither","key_press":76,"name":"choice","trial_type":"html-keyboard-response","trial_index":153,"time_elapsed":367937,"internal_node_id":"0.0-153.0","subject":"S1C1213","sona":"41471","block":2,"time":"2021-09-15T17:25:06.727Z","response":"2nd","certainty":"high","char":"L","transposition":-3,"order":["swapped","shifted"],"probe_pitches":[3,7,6,4,2,6,8,10,13,14,11,14],"shifted_pitches":[3,7,6,4,2,6,9,10,13,14,11,14],"swapped_pitches":[3,7,6,4,2,8,6,10,13,14,11,14],"shift_direction":1,"question_num":131,"has_decoy":false},{"rt":1107,"stimulus":"[A] option 1, [L] option 2, [G] neither","key_press":65,"name":"choice","trial_type":"html-keyboard-response","trial_index":164,"time_elapsed":388636,"internal_node_id":"0.0-164.0","subject":"S1C1213","sona":"41471","block":2,"time":"2021-09-15T17:25:06.727Z","response":"1st","certainty":"high","char":"A","transposition":-2,"order":["shifted","swapped"],"probe_pitches":[13,11,13,11,4,6,11,9,11,13,1,11],"shifted_pitches":[13,11,13,11,4,7,11,9,11,13,1,11],"swapped_pitches":[13,11,13,11,4,11,6,9,11,13,1,11],"shift_direction":1,"question_num":141,"has_decoy":false},{"rt":946.9000000953674,"stimulus":"[A] option 1, [L] option 2, [G] neither","key_press":76,"name":"choice","trial_type":"html-keyboard-response","trial_index":175,"time_elapsed":409536,"internal_node_id":"0.0-175.0","subject":"S1C1213","sona":"41471","block":2,"time":"2021-09-15T17:25:06.727Z","response":"2nd","certainty":"high","char":"L","transposition":2,"order":["swapped","shifted"],"probe_pitches":[2,7,9,5,6,12,5,8,12,10,2,6],"shifted_pitches":[2,7,9,5,6,11,5,8,12,10,2,6],"swapped_pitches":[2,7,9,5,6,5,12,8,12,10,2,6],"shift_direction":-1,"question_num":151,"has_decoy":false},{"rt":1497.0999999046326,"stimulus":"[A] option 1, [L] option 2, [G] neither","key_press":76,"name":"choice","trial_type":"html-keyboard-response","trial_index":186,"time_elapsed":429927,"internal_node_id":"0.0-186.0","subject":"S1C1213","sona":"41471","block":2,"time":"2021-09-15T17:25:06.727Z","response":"2nd","certainty":"high","char":"L","transposition":-1,"order":["swapped","shifted"],"probe_pitches":[13,10,3,8,5,8,10,5,10,5,8,13],"shifted_pitches":[13,10,3,8,5,8,9,5,10,5,8,13],"swapped_pitches":[13,10,3,8,5,10,8,5,10,5,8,13],"shift_direction":-1,"question_num":161,"has_decoy":false},{"rt":1193,"stimulus":"[A] option 1, [L] option 2, [G] neither","key_press":76,"name":"choice","trial_type":"html-keyboard-response","trial_index":197,"time_elapsed":450772,"internal_node_id":"0.0-197.0","subject":"S1C1213","sona":"41471","block":2,"time":"2021-09-15T17:25:06.727Z","response":"2nd","certainty":"high","char":"L","transposition":-3,"order":["swapped","shifted"],"probe_pitches":[3,8,3,6,3,13,8,1,13,11,1,8],"shifted_pitches":[3,8,3,6,3,13,9,1,13,11,1,8],"swapped_pitches":[3,8,3,6,3,8,13,1,13,11,1,8],"shift_direction":1,"question_num":171,"has_decoy":false},{"rt":1436,"stimulus":"[A] option 1, [L] option 2, [G] neither","key_press":76,"name":"choice","trial_type":"html-keyboard-response","trial_index":208,"time_elapsed":473858,"internal_node_id":"0.0-208.0","subject":"S1C1213","sona":"41471","block":2,"time":"2021-09-15T17:25:06.727Z","response":"2nd","certainty":"high","char":"L","transposition":-1,"order":["shifted","swapped"],"probe_pitches":[4,9,11,14,5,12,6,10,6,3,7,4],"shifted_pitches":[4,9,11,14,5,13,6,10,6,3,7,4],"swapped_pitches":[4,9,11,14,5,6,12,10,6,3,7,4],"shift_direction":1,"question_num":181,"has_decoy":false},{"rt":499.39999985694885,"stimulus":"[A] option 1, [L] option 2, [G] neither","key_press":76,"name":"choice","trial_type":"html-keyboard-response","trial_index":219,"time_elapsed":493290,"internal_node_id":"0.0-219.0","subject":"S1C1213","sona":"41471","block":2,"time":"2021-09-15T17:25:06.727Z","response":"2nd","certainty":"high","char":"L","transposition":-2,"order":["shifted","swapped"],"probe_pitches":[14,9,6,14,13,6,12,13,7,12,14,10],"shifted_pitches":[14,9,6,14,13,5,12,13,7,12,14,10],"swapped_pitches":[14,9,6,14,13,12,6,13,7,12,14,10],"shift_direction":-1,"question_num":191,"has_decoy":false}]