[{"rt":680,"stimulus":"[A] option 1, [L] option 2, [G] neither","key_press":76,"name":"choice","trial_type":"html-keyboard-response","trial_index":10,"time_elapsed":27278,"internal_node_id":"0.0-10.0","subject":"S1C1622","sona":"41813","block":2,"time":"2021-09-17T04:55:36.940Z","response":"2nd","certainty":"high","char":"L","transposition":0,"order":["swapped","shifted"],"probe_pitches":[-1,1,4,9,1,4,1,-3,9,1,9,6,9,6,-3,4],"shifted_pitches":[-1,1,4,9,1,4,1,-3,10,1,9,6,9,6,-3,4],"swapped_pitches":[-1,1,4,9,1,4,1,9,-3,1,9,6,9,6,-3,4],"shift_direction":1,"question_num":1,"has_decoy":false},{"rt":531.7999999523163,"stimulus":"[A] option 1, [L] option 2, [G] neither","key_press":76,"name":"choice","trial_type":"html-keyboard-response","trial_index":21,"time_elapsed":59312,"internal_node_id":"0.0-21.0","subject":"S1C1622","sona":"41813","block":2,"time":"2021-09-17T04:55:36.940Z","response":"2nd","certainty":"high","char":"L","transposition":2,"order":["swapped","shifted"],"probe_pitches":[0,-3,2,0,7,5,7,-3,9,2,9,-3,9,2,-3,7],"shifted_pitches":[0,-3,2,0,7,5,7,-3,8,2,9,-3,9,2,-3,7],"swapped_pitches":[0,-3,2,0,7,5,7,9,-3,2,9,-3,9,2,-3,7],"shift_direction":-1,"question_num":11,"has_decoy":false},{"rt":1337.5,"stimulus":"[A] option 1, [L] option 2, [G] neither","key_press":65,"name":"choice","trial_type":"html-keyboard-response","trial_index":32,"time_elapsed":84498,"internal_node_id":"0.0-32.0","subject":"S1C1622","sona":"41813","block":2,"time":"2021-09-17T04:55:36.940Z","response":"1st","certainty":"high","char":"A","transposition":-2,"order":["shifted","swapped"],"probe_pitches":[6,1,-1,-3,1,-3,6,1,4,6,-1,4,6,9,6,-3],"shifted_pitches":[6,1,-1,-3,1,-3,6,0,4,6,-1,4,6,9,6,-3],"swapped_pitches":[6,1,-1,-3,1,-3,6,4,1,6,-1,4,6,9,6,-3],"shift_direction":-1,"question_num":21,"has_decoy":false},{"rt":2069.8000000715256,"stimulus":"[A] option 1, [L] option 2, [G] neither","key_press":71,"name":"choice","trial_type":"html-keyboard-response","trial_index":43,"time_elapsed":111539,"internal_node_id":"0.0-43.0","subject":"S1C1622","sona":"41813","block":2,"time":"2021-09-17T04:55:36.940Z","response":"neither","certainty":"high","char":"G","transposition":-1,"order":["shifted","swapped"],"probe_pitches":[9,13,6,4,3,2,6,14,9,6,10,3,11,5,2,10],"shifted_pitches":[9,13,6,4,3,2,6,14,8,6,10,3,11,5,2,10],"swapped_pitches":[9,13,6,4,3,2,6,9,14,6,10,3,11,5,2,10],"shift_direction":-1,"question_num":31,"has_decoy":false},{"rt":1292.7999999523163,"stimulus":"[A] option 1, [L] option 2, [G] neither","key_press":76,"name":"choice","trial_type":"html-keyboard-response","trial_index":54,"time_elapsed":139445,"internal_node_id":"0.0-54.0","subject":"S1C1622","sona":"41813","block":2,"time":"2021-09-17T04:55:36.940Z","response":"2nd","certainty":"high","char":"L","transposition":-1,"order":["swapped","shifted"],"probe_pitches":[6,4,6,2,9,4,2,6,9,4,2,6,4,2,-1,-3],"shifted_pitches":[6,4,6,2,9,4,2,6,10,4,2,6,4,2,-1,-3],"swapped_pitches":[6,4,6,2,9,4,2,9,6,4,2,6,4,2,-1,-3],"shift_direction":1,"question_num":41,"has_decoy":false},{"rt":2109.399999976158,"stimulus":"[A] option 1, [L] option 2, [G] neither","key_press":65,"name":"choice","trial_type":"html-keyboard-response","trial_index":65,"time_elapsed":163800,"internal_node_id":"0.0-65.0","subject":"S1C1622","sona":"41813","block":2,"time":"2021-09-17T04:55:36.940Z","response":"1st","certainty":"high","char":"A","transposition":-1,"order":["swapped","shifted"],"probe_pitches":[8,14,12,11,12,13,7,3,8,6,2,11,10,12,6,7],"shifted_pitches":[8,14,12,11,12,13,7,4,8,6,2,11,10,12,6,7],"swapped_pitches":[8,14,12,11,12,13,7,8,3,6,2,11,10,12,6,7],"shift_direction":1,"question_num":51,"has_decoy":false},{"rt":853.2000000476837,"stimulus":"[A] option 1, [L] option 2, [G] neither","key_press":76,"name":"choice","trial_type":"html-keyboard-response","trial_index":76,"time_elapsed":187673,"internal_node_id":"0.0-76.0","subject":"S1C1622","sona":"41813","block":2,"time":"2021-09-17T04:55:36.940Z","response":"2nd","certainty":"high","char":"L","transposition":-3,"order":["shifted","swapped"],"probe_pitches":[5,0,-3,5,0,-3,0,7,2,-3,9,0,-3,5,0,7],"shifted_pitches":[5,0,-3,5,0,-3,0,6,2,-3,9,0,-3,5,0,7],"swapped_pitches":[5,0,-3,5,0,-3,0,2,7,-3,9,0,-3,5,0,7],"shift_direction":-1,"question_num":61,"has_decoy":false},{"rt":1087.5,"stimulus":"[A] option 1, [L] option 2, [G] neither","key_press":76,"name":"choice","trial_type":"html-keyboard-response","trial_index":87,"time_elapsed":214915,"internal_node_id":"0.0-87.0","subject":"S1C1622","sona":"41813","block":2,"time":"2021-09-17T04:55:36.940Z","response":"2nd","certainty":"high","char":"L","transposition":-3,"order":["swapped","shifted"],"probe_pitches":[11,5,10,12,14,10,2,5,6,10,6,9,3,8,3,9],"shifted_pitches":[11,5,10,12,14,10,2,5,7,10,6,9,3,8,3,9],"swapped_pitches":[11,5,10,12,14,10,2,6,5,10,6,9,3,8,3,9],"shift_direction":1,"question_num":71,"has_decoy":false},{"rt":1814.7999999523163,"stimulus":"[A] option 1, [L] option 2, [G] neither","key_press":76,"name":"choice","trial_type":"html-keyboard-response","trial_index":98,"time_elapsed":240230,"internal_node_id":"0.0-98.0","subject":"S1C1622","sona":"41813","block":2,"time":"2021-09-17T04:55:36.940Z","response":"2nd","certainty":"high","char":"L","transposition":3,"order":["swapped","shifted"],"probe_pitches":[0,2,7,4,2,7,9,4,-3,9,2,7,2,7,-3,0],"shifted_pitches":[0,2,7,4,2,7,9,3,-3,9,2,7,2,7,-3,0],"swapped_pitches":[0,2,7,4,2,7,9,-3,4,9,2,7,2,7,-3,0],"shift_direction":-1,"question_num":81,"has_decoy":false},{"rt":312,"stimulus":"[A] option 1, [L] option 2, [G] neither","key_press":65,"name":"choice","trial_type":"html-keyboard-response","trial_index":109,"time_elapsed":263565,"internal_node_id":"0.0-109.0","subject":"S1C1622","sona":"41813","block":2,"time":"2021-09-17T04:55:36.940Z","response":"1st","certainty":"high","char":"A","transposition":-2,"order":["swapped","shifted"],"probe_pitches":[14,13,14,10,3,6,3,12,14,9,7,5,3,7,8,14],"shifted_pitches":[14,13,14,10,3,6,3,11,14,9,7,5,3,7,8,14],"swapped_pitches":[14,13,14,10,3,6,3,14,12,9,7,5,3,7,8,14],"shift_direction":-1,"question_num":91,"has_decoy":false},{"rt":4865.100000023842,"stimulus":"[A] option 1, [L] option 2, [G] neither","key_press":76,"name":"choice","trial_type":"html-keyboard-response","trial_index":120,"time_elapsed":290710,"internal_node_id":"0.0-120.0","subject":"S1C1622","sona":"41813","block":2,"time":"2021-09-17T04:55:36.940Z","response":"2nd","certainty":"high","char":"L","transposition":1,"order":["swapped","shifted"],"probe_pitches":[-3,-1,4,9,2,-3,7,-3,4,-1,-3,2,-3,7,2,-3],"shifted_pitches":[-3,-1,4,9,2,-3,7,-4,4,-1,-3,2,-3,7,2,-3],"swapped_pitches":[-3,-1,4,9,2,-3,7,4,-3,-1,-3,2,-3,7,2,-3],"shift_direction":-1,"question_num":101,"has_decoy":false},{"rt":1709.5,"stimulus":"[A] option 1, [L] option 2, [G] neither","key_press":65,"name":"choice","trial_type":"html-keyboard-response","trial_index":131,"time_elapsed":316088,"internal_node_id":"0.0-131.0","subject":"S1C1622","sona":"41813","block":2,"time":"2021-09-17T04:55:36.940Z","response":"1st","certainty":"high","char":"A","transposition":0,"order":["shifted","swapped"],"probe_pitches":[10,13,11,14,7,5,10,3,5,11,9,5,14,13,3,5],"shifted_pitches":[10,13,11,14,7,5,10,3,6,11,9,5,14,13,3,5],"swapped_pitches":[10,13,11,14,7,5,10,5,3,11,9,5,14,13,3,5],"shift_direction":1,"question_num":111,"has_decoy":false},{"rt":969.7000000476837,"stimulus":"[A] option 1, [L] option 2, [G] neither","key_press":76,"name":"choice","trial_type":"html-keyboard-response","trial_index":142,"time_elapsed":344314,"internal_node_id":"0.0-142.0","subject":"S1C1622","sona":"41813","block":2,"time":"2021-09-17T04:55:36.940Z","response":"2nd","certainty":"high","char":"L","transposition":-2,"order":["swapped","shifted"],"probe_pitches":[6,12,14,12,7,5,7,8,10,13,7,2,5,3,10,6],"shifted_pitches":[6,12,14,12,7,5,7,9,10,13,7,2,5,3,10,6],"swapped_pitches":[6,12,14,12,7,5,7,10,8,13,7,2,5,3,10,6],"shift_direction":1,"question_num":121,"has_decoy":false},{"rt":7076.099999904633,"stimulus":"[A] option 1, [L] option 2, [G] neither","key_press":71,"name":"choice","trial_type":"html-keyboard-response","trial_index":153,"time_elapsed":374778,"internal_node_id":"0.0-153.0","subject":"S1C1622","sona":"41813","block":2,"time":"2021-09-17T04:55:36.940Z","response":"neither","certainty":"high","char":"G","transposition":-2,"order":["shifted","swapped"],"probe_pitches":[7,4,7,4,9,7,-3,4,9,-1,2,-1,-3,7,-3,2],"shifted_pitches":[7,4,7,4,9,7,-3,4,10,-1,2,-1,-3,7,-3,2],"swapped_pitches":[7,4,7,4,9,7,-3,9,4,-1,2,-1,-3,7,-3,2],"shift_direction":1,"question_num":131,"has_decoy":false},{"rt":12644.299999952316,"stimulus":"[A] option 1, [L] option 2, [G] neither","key_press":76,"name":"choice","trial_type":"html-keyboard-response","trial_index":164,"time_elapsed":409435,"internal_node_id":"0.0-164.0","subject":"S1C1622","sona":"41813","block":2,"time":"2021-09-17T04:55:36.940Z","response":"2nd","certainty":"high","char":"L","transposition":-3,"order":["shifted","swapped"],"probe_pitches":[10,5,8,10,11,8,2,12,5,3,8,5,4,7,4,3],"shifted_pitches":[10,5,8,10,11,8,2,13,5,3,8,5,4,7,4,3],"swapped_pitches":[10,5,8,10,11,8,2,5,12,3,8,5,4,7,4,3],"shift_direction":1,"question_num":141,"has_decoy":false},{"rt":3946.399999976158,"stimulus":"[A] option 1, [L] option 2, [G] neither","key_press":76,"name":"choice","trial_type":"html-keyboard-response","trial_index":175,"time_elapsed":437687,"internal_node_id":"0.0-175.0","subject":"S1C1622","sona":"41813","block":2,"time":"2021-09-17T04:55:36.940Z","response":"2nd","certainty":"high","char":"L","transposition":-1,"order":["shifted","swapped"],"probe_pitches":[2,4,2,-3,-1,2,6,4,9,6,4,2,9,-1,2,-3],"shifted_pitches":[2,4,2,-3,-1,2,6,5,9,6,4,2,9,-1,2,-3],"swapped_pitches":[2,4,2,-3,-1,2,6,9,4,6,4,2,9,-1,2,-3],"shift_direction":1,"question_num":151,"has_decoy":false},{"rt":1218.5,"stimulus":"[A] option 1, [L] option 2, [G] neither","key_press":76,"name":"choice","trial_type":"html-keyboard-response","trial_index":186,"time_elapsed":462394,"internal_node_id":"0.0-186.0","subject":"S1C1622","sona":"41813","block":2,"time":"2021-09-17T04:55:36.940Z","response":"2nd","certainty":"high","char":"L","transposition":3,"order":["shifted","swapped"],"probe_pitches":[3,9,8,6,7,5,8,13,11,4,9,12,5,11,13,14],"shifted_pitches":[3,9,8,6,7,5,8,13,10,4,9,12,5,11,13,14],"swapped_pitches":[3,9,8,6,7,5,8,11,13,4,9,12,5,11,13,14],"shift_direction":-1,"question_num":161,"has_decoy":false},{"rt":715.2999999523163,"stimulus":"[A] option 1, [L] option 2, [G] neither","key_press":76,"name":"choice","trial_type":"html-keyboard-response","trial_index":197,"time_elapsed":486691,"internal_node_id":"0.0-197.0","subject":"S1C1622","sona":"41813","block":2,"time":"2021-09-17T04:55:36.940Z","response":"2nd","certainty":"high","char":"L","transposition":2,"order":["shifted","swapped"],"probe_pitches":[7,6,8,4,7,4,11,10,13,9,2,4,11,3,11,4],"shifted_pitches":[7,6,8,4,7,4,11,10,12,9,2,4,11,3,11,4],"swapped_pitches":[7,6,8,4,7,4,11,13,10,9,2,4,11,3,11,4],"shift_direction":-1,"question_num":171,"has_decoy":false},{"rt":1722.8999999761581,"stimulus":"[A] option 1, [L] option 2, [G] neither","key_press":71,"name":"choice","trial_type":"html-keyboard-response","trial_index":208,"time_elapsed":510451,"internal_node_id":"0.0-208.0","subject":"S1C1622","sona":"41813","block":2,"time":"2021-09-17T04:55:36.940Z","response":"neither","certainty":"high","char":"G","transposition":1,"order":["swapped","shifted"],"probe_pitches":[9,14,13,11,2,9,2,6,11,2,11,7,3,6,3,11],"shifted_pitches":[9,14,13,11,2,9,2,5,11,2,11,7,3,6,3,11],"swapped_pitches":[9,14,13,11,2,9,2,11,6,2,11,7,3,6,3,11],"shift_direction":-1,"question_num":181,"has_decoy":false},{"rt":1829,"stimulus":"[A] option 1, [L] option 2, [G] neither","key_press":65,"name":"choice","trial_type":"html-keyboard-response","trial_index":219,"time_elapsed":553245,"internal_node_id":"0.0-219.0","subject":"S1C1622","sona":"41813","block":2,"time":"2021-09-17T04:55:36.940Z","response":"1st","certainty":"high","char":"A","transposition":-3,"order":["shifted","swapped"],"probe_pitches":[0,2,9,2,4,-3,0,-3,4,2,-3,9,0,-3,2,7],"shifted_pitches":[0,2,9,2,4,-3,0,-3,5,2,-3,9,0,-3,2,7],"swapped_pitches":[0,2,9,2,4,-3,0,4,-3,2,-3,9,0,-3,2,7],"shift_direction":1,"question_num":191,"has_decoy":false}]