[{"rt":5633.100000023842,"stimulus":"[A] option 1, [L] option 2, [G] neither","key_press":76,"name":"choice","trial_type":"html-keyboard-response","trial_index":15,"time_elapsed":163724,"internal_node_id":"0.0-15.0","response":"2nd","certainty":"high","char":"L","transposition":-2,"order":["swapped","shifted"],"probe_pitches":[9,6,2,6,8,1,-3,3,6,-1,3,0,3,7,9,-2],"shifted_pitches":[9,6,2,6,8,1,-3,4,6,-1,3,0,3,7,9,-2],"swapped_pitches":[9,6,2,6,8,1,-3,6,3,-1,3,0,3,7,9,-2],"shift_direction":1,"question_num":1,"has_decoy":false,"subject":"S1C1622","sona":"41813","block":1,"time":"2021-09-17T04:45:58.907Z"},{"rt":1867.3999999761581,"stimulus":"[A] option 1, [L] option 2, [G] neither","key_press":65,"name":"choice","trial_type":"html-keyboard-response","trial_index":26,"time_elapsed":190092,"internal_node_id":"0.0-26.0","response":"1st","certainty":"high","char":"A","transposition":-1,"order":["shifted","swapped"],"probe_pitches":[-2,3,10,3,5,0,3,-2,7,10,3,-2,5,10,-2,5],"shifted_pitches":[-2,3,10,3,5,0,3,-2,6,10,3,-2,5,10,-2,5],"swapped_pitches":[-2,3,10,3,5,0,3,7,-2,10,3,-2,5,10,-2,5],"shift_direction":-1,"question_num":11,"has_decoy":false,"subject":"S1C1622","sona":"41813","block":1,"time":"2021-09-17T04:45:58.907Z"},{"rt":722.3999999761581,"stimulus":"[A] option 1, [L] option 2, [G] neither","key_press":65,"name":"choice","trial_type":"html-keyboard-response","trial_index":37,"time_elapsed":215278,"internal_node_id":"0.0-37.0","response":"1st","certainty":"high","char":"A","transposition":2,"order":["swapped","shifted"],"probe_pitches":[7,2,4,3,7,-2,1,3,-1,4,3,8,2,7,-3,2],"shifted_pitches":[7,2,4,3,7,-2,1,3,0,4,3,8,2,7,-3,2],"swapped_pitches":[7,2,4,3,7,-2,1,-1,3,4,3,8,2,7,-3,2],"shift_direction":1,"question_num":21,"has_decoy":false,"subject":"S1C1622","sona":"41813","block":1,"time":"2021-09-17T04:45:58.907Z"},{"rt":1218.3000000715256,"stimulus":"[A] option 1, [L] option 2, [G] neither","key_press":76,"name":"choice","trial_type":"html-keyboard-response","trial_index":48,"time_elapsed":240835,"internal_node_id":"0.0-48.0","response":"2nd","certainty":"high","char":"L","transposition":0,"order":["swapped","shifted"],"probe_pitches":[-2,2,-2,2,7,5,-2,7,0,-1,9,8,1,-3,4,5],"shifted_pitches":[-2,2,-2,2,7,5,-2,6,0,-1,9,8,1,-3,4,5],"swapped_pitches":[-2,2,-2,2,7,5,-2,0,7,-1,9,8,1,-3,4,5],"shift_direction":-1,"question_num":31,"has_decoy":false,"subject":"S1C1622","sona":"41813","block":1,"time":"2021-09-17T04:45:58.907Z"},{"rt":1202.7999999523163,"stimulus":"[A] option 1, [L] option 2, [G] neither","key_press":76,"name":"choice","trial_type":"html-keyboard-response","trial_index":59,"time_elapsed":266101,"internal_node_id":"0.0-59.0","response":"2nd","certainty":"high","char":"L","transposition":-3,"order":["shifted","swapped"],"probe_pitches":[8,10,3,8,1,-2,5,10,-2,8,5,10,8,3,10,3],"shifted_pitches":[8,10,3,8,1,-2,5,10,-1,8,5,10,8,3,10,3],"swapped_pitches":[8,10,3,8,1,-2,5,-2,10,8,5,10,8,3,10,3],"shift_direction":1,"question_num":41,"has_decoy":false,"subject":"S1C1622","sona":"41813","block":1,"time":"2021-09-17T04:45:58.907Z"},{"rt":2731.2999999523163,"stimulus":"[A] option 1, [L] option 2, [G] neither","key_press":76,"name":"choice","trial_type":"html-keyboard-response","trial_index":70,"time_elapsed":292092,"internal_node_id":"0.0-70.0","response":"2nd","certainty":"high","char":"L","transposition":3,"order":["shifted","swapped"],"probe_pitches":[10,5,2,0,2,-2,2,0,5,7,10,-2,5,2,10,2],"shifted_pitches":[10,5,2,0,2,-2,2,1,5,7,10,-2,5,2,10,2],"swapped_pitches":[10,5,2,0,2,-2,2,5,0,7,10,-2,5,2,10,2],"shift_direction":1,"question_num":51,"has_decoy":false,"subject":"S1C1622","sona":"41813","block":1,"time":"2021-09-17T04:45:58.907Z"},{"rt":664.1000000238419,"stimulus":"[A] option 1, [L] option 2, [G] neither","key_press":76,"name":"choice","trial_type":"html-keyboard-response","trial_index":81,"time_elapsed":318805,"internal_node_id":"0.0-81.0","response":"2nd","certainty":"high","char":"L","transposition":1,"order":["shifted","swapped"],"probe_pitches":[9,8,3,4,9,8,5,4,0,-3,5,9,0,-2,9,3],"shifted_pitches":[9,8,3,4,9,8,5,4,-1,-3,5,9,0,-2,9,3],"swapped_pitches":[9,8,3,4,9,8,5,0,4,-3,5,9,0,-2,9,3],"shift_direction":-1,"question_num":61,"has_decoy":false,"subject":"S1C1622","sona":"41813","block":1,"time":"2021-09-17T04:45:58.907Z"},{"rt":538.8999999761581,"stimulus":"[A] option 1, [L] option 2, [G] neither","key_press":65,"name":"choice","trial_type":"html-keyboard-response","trial_index":92,"time_elapsed":342296,"internal_node_id":"0.0-92.0","response":"1st","certainty":"high","char":"A","transposition":-3,"order":["swapped","shifted"],"probe_pitches":[0,5,0,-2,0,3,5,0,3,5,-2,8,10,5,0,3],"shifted_pitches":[0,5,0,-2,0,3,5,0,2,5,-2,8,10,5,0,3],"swapped_pitches":[0,5,0,-2,0,3,5,3,0,5,-2,8,10,5,0,3],"shift_direction":-1,"question_num":71,"has_decoy":false,"subject":"S1C1622","sona":"41813","block":1,"time":"2021-09-17T04:45:58.907Z"},{"rt":413.89999997615814,"stimulus":"[A] option 1, [L] option 2, [G] neither","key_press":76,"name":"choice","trial_type":"html-keyboard-response","trial_index":103,"time_elapsed":366123,"internal_node_id":"0.0-103.0","response":"2nd","certainty":"high","char":"L","transposition":2,"order":["shifted","swapped"],"probe_pitches":[8,10,6,10,1,3,1,10,-2,8,-2,3,10,6,-2,10],"shifted_pitches":[8,10,6,10,1,3,1,11,-2,8,-2,3,10,6,-2,10],"swapped_pitches":[8,10,6,10,1,3,1,-2,10,8,-2,3,10,6,-2,10],"shift_direction":1,"question_num":81,"has_decoy":false,"subject":"S1C1622","sona":"41813","block":1,"time":"2021-09-17T04:45:58.907Z"},{"rt":660.4000000953674,"stimulus":"[A] option 1, [L] option 2, [G] neither","key_press":76,"name":"choice","trial_type":"html-keyboard-response","trial_index":114,"time_elapsed":391794,"internal_node_id":"0.0-114.0","response":"2nd","certainty":"high","char":"L","transposition":1,"order":["swapped","shifted"],"probe_pitches":[3,-2,3,6,3,6,3,8,6,10,8,-2,10,1,3,8],"shifted_pitches":[3,-2,3,6,3,6,3,9,6,10,8,-2,10,1,3,8],"swapped_pitches":[3,-2,3,6,3,6,3,6,8,10,8,-2,10,1,3,8],"shift_direction":1,"question_num":91,"has_decoy":false,"subject":"S1C1622","sona":"41813","block":1,"time":"2021-09-17T04:45:58.907Z"},{"rt":256,"stimulus":"[A] option 1, [L] option 2, [G] neither","key_press":71,"name":"choice","trial_type":"html-keyboard-response","trial_index":125,"time_elapsed":415369,"internal_node_id":"0.0-125.0","response":"neither","certainty":"high","char":"G","transposition":0,"order":["swapped","shifted"],"probe_pitches":[1,-2,5,8,10,1,5,1,3,-2,5,1,10,1,5,3],"shifted_pitches":[1,-2,5,8,10,1,5,2,3,-2,5,1,10,1,5,3],"swapped_pitches":[1,-2,5,8,10,1,5,3,1,-2,5,1,10,1,5,3],"shift_direction":1,"question_num":101,"has_decoy":false,"subject":"S1C1622","sona":"41813","block":1,"time":"2021-09-17T04:45:58.907Z"},{"rt":900,"stimulus":"[A] option 1, [L] option 2, [G] neither","key_press":76,"name":"choice","trial_type":"html-keyboard-response","trial_index":136,"time_elapsed":441811,"internal_node_id":"0.0-136.0","response":"2nd","certainty":"high","char":"L","transposition":-2,"order":["swapped","shifted"],"probe_pitches":[10,7,10,3,-2,5,3,10,-2,0,3,10,5,-2,7,5],"shifted_pitches":[10,7,10,3,-2,5,3,9,-2,0,3,10,5,-2,7,5],"swapped_pitches":[10,7,10,3,-2,5,3,-2,10,0,3,10,5,-2,7,5],"shift_direction":-1,"question_num":111,"has_decoy":false,"subject":"S1C1622","sona":"41813","block":1,"time":"2021-09-17T04:45:58.907Z"},{"rt":2274.899999976158,"stimulus":"[A] option 1, [L] option 2, [G] neither","key_press":71,"name":"choice","trial_type":"html-keyboard-response","trial_index":147,"time_elapsed":467533,"internal_node_id":"0.0-147.0","response":"neither","certainty":"high","char":"G","transposition":-3,"order":["shifted","swapped"],"probe_pitches":[9,3,4,0,-1,2,5,3,6,-1,8,3,1,0,3,-2],"shifted_pitches":[9,3,4,0,-1,2,5,3,7,-1,8,3,1,0,3,-2],"swapped_pitches":[9,3,4,0,-1,2,5,6,3,-1,8,3,1,0,3,-2],"shift_direction":1,"question_num":121,"has_decoy":false,"subject":"S1C1622","sona":"41813","block":1,"time":"2021-09-17T04:45:58.907Z"},{"rt":304,"stimulus":"[A] option 1, [L] option 2, [G] neither","key_press":65,"name":"choice","trial_type":"html-keyboard-response","trial_index":158,"time_elapsed":491274,"internal_node_id":"0.0-158.0","response":"1st","certainty":"high","char":"A","transposition":-1,"order":["shifted","swapped"],"probe_pitches":[-2,2,5,0,5,2,5,10,0,7,-2,0,7,5,10,7],"shifted_pitches":[-2,2,5,0,5,2,5,10,-1,7,-2,0,7,5,10,7],"swapped_pitches":[-2,2,5,0,5,2,5,0,10,7,-2,0,7,5,10,7],"shift_direction":-1,"question_num":131,"has_decoy":false,"subject":"S1C1622","sona":"41813","block":1,"time":"2021-09-17T04:45:58.907Z"},{"rt":4692.899999976158,"stimulus":"[A] option 1, [L] option 2, [G] neither","key_press":65,"name":"choice","trial_type":"html-keyboard-response","trial_index":169,"time_elapsed":518725,"internal_node_id":"0.0-169.0","response":"1st","certainty":"high","char":"A","transposition":-2,"order":["swapped","shifted"],"probe_pitches":[-2,3,8,0,3,5,-2,3,8,0,-2,10,8,3,5,0],"shifted_pitches":[-2,3,8,0,3,5,-2,3,7,0,-2,10,8,3,5,0],"swapped_pitches":[-2,3,8,0,3,5,-2,8,3,0,-2,10,8,3,5,0],"shift_direction":-1,"question_num":141,"has_decoy":false,"subject":"S1C1622","sona":"41813","block":1,"time":"2021-09-17T04:45:58.907Z"},{"rt":962.1000000238419,"stimulus":"[A] option 1, [L] option 2, [G] neither","key_press":65,"name":"choice","trial_type":"html-keyboard-response","trial_index":180,"time_elapsed":543346,"internal_node_id":"0.0-180.0","response":"1st","certainty":"high","char":"A","transposition":-1,"order":["swapped","shifted"],"probe_pitches":[-3,1,-1,1,6,7,1,6,8,-3,6,2,6,-3,3,9],"shifted_pitches":[-3,1,-1,1,6,7,1,5,8,-3,6,2,6,-3,3,9],"swapped_pitches":[-3,1,-1,1,6,7,1,8,6,-3,6,2,6,-3,3,9],"shift_direction":-1,"question_num":151,"has_decoy":false,"subject":"S1C1622","sona":"41813","block":1,"time":"2021-09-17T04:45:58.907Z"},{"rt":6997,"stimulus":"[A] option 1, [L] option 2, [G] neither","key_press":76,"name":"choice","trial_type":"html-keyboard-response","trial_index":191,"time_elapsed":580950,"internal_node_id":"0.0-191.0","response":"2nd","certainty":"high","char":"L","transposition":-3,"order":["swapped","shifted"],"probe_pitches":[7,4,9,6,4,6,0,4,7,8,0,-2,6,0,-1,0],"shifted_pitches":[7,4,9,6,4,6,0,3,7,8,0,-2,6,0,-1,0],"swapped_pitches":[7,4,9,6,4,6,0,7,4,8,0,-2,6,0,-1,0],"shift_direction":-1,"question_num":161,"has_decoy":false,"subject":"S1C1622","sona":"41813","block":1,"time":"2021-09-17T04:45:58.907Z"},{"rt":1336.8999999761581,"stimulus":"[A] option 1, [L] option 2, [G] neither","key_press":65,"name":"choice","trial_type":"html-keyboard-response","trial_index":202,"time_elapsed":607935,"internal_node_id":"0.0-202.0","response":"1st","certainty":"high","char":"A","transposition":3,"order":["shifted","swapped"],"probe_pitches":[5,2,4,-1,6,-2,7,0,5,9,-3,-1,3,5,-1,3],"shifted_pitches":[5,2,4,-1,6,-2,7,1,5,9,-3,-1,3,5,-1,3],"swapped_pitches":[5,2,4,-1,6,-2,7,5,0,9,-3,-1,3,5,-1,3],"shift_direction":1,"question_num":171,"has_decoy":false,"subject":"S1C1622","sona":"41813","block":1,"time":"2021-09-17T04:45:58.907Z"},{"rt":1194.6000000238419,"stimulus":"[A] option 1, [L] option 2, [G] neither","key_press":65,"name":"choice","trial_type":"html-keyboard-response","trial_index":213,"time_elapsed":631249,"internal_node_id":"0.0-213.0","response":"1st","certainty":"high","char":"A","transposition":-2,"order":["shifted","swapped"],"probe_pitches":[6,5,1,5,-2,4,-3,-1,1,-3,7,-1,0,6,8,-1],"shifted_pitches":[6,5,1,5,-2,4,-3,-1,2,-3,7,-1,0,6,8,-1],"swapped_pitches":[6,5,1,5,-2,4,-3,1,-1,-3,7,-1,0,6,8,-1],"shift_direction":1,"question_num":181,"has_decoy":false,"subject":"S1C1622","sona":"41813","block":1,"time":"2021-09-17T04:45:58.907Z"},{"rt":2215,"stimulus":"[A] option 1, [L] option 2, [G] neither","key_press":71,"name":"choice","trial_type":"html-keyboard-response","trial_index":224,"time_elapsed":660451,"internal_node_id":"0.0-224.0","response":"neither","certainty":"high","char":"G","transposition":-1,"order":["shifted","swapped"],"probe_pitches":[3,0,7,4,9,2,1,7,9,-1,-2,5,1,-3,7,-2],"shifted_pitches":[3,0,7,4,9,2,1,7,8,-1,-2,5,1,-3,7,-2],"swapped_pitches":[3,0,7,4,9,2,1,9,7,-1,-2,5,1,-3,7,-2],"shift_direction":-1,"question_num":191,"has_decoy":false,"subject":"S1C1622","sona":"41813","block":1,"time":"2021-09-17T04:45:58.907Z"}]