[{"rt":640.5999999046326,"stimulus":"[A] option 1, [L] option 2, [G] neither","key_press":65,"name":"choice","trial_type":"html-keyboard-response","trial_index":10,"time_elapsed":26441,"internal_node_id":"0.0-10.0","subject":"S1C1622","sona":"41813","block":3,"time":"2021-09-17T05:07:59.996Z","response":"1st","certainty":"high","char":"A","transposition":-1,"order":["swapped","shifted"],"probe_pitches":[0,-2,0,8,7,9,2,5,6,2,-1,10,2,8,6,0],"shifted_pitches":[0,-2,0,8,7,9,2,4,6,2,-1,10,2,8,6,0],"swapped_pitches":[0,-2,0,8,7,9,2,6,5,2,-1,10,2,8,6,0],"shift_direction":-1,"question_num":1,"has_decoy":false},{"rt":3178.100000023842,"stimulus":"[A] option 1, [L] option 2, [G] neither","key_press":76,"name":"choice","trial_type":"html-keyboard-response","trial_index":21,"time_elapsed":58265,"internal_node_id":"0.0-21.0","subject":"S1C1622","sona":"41813","block":3,"time":"2021-09-17T05:07:59.996Z","response":"2nd","certainty":"high","char":"L","transposition":3,"order":["swapped","shifted"],"probe_pitches":[2,1,-1,-2,4,-1,9,3,4,7,2,1,9,4,1,-1],"shifted_pitches":[2,1,-1,-2,4,-1,9,3,5,7,2,1,9,4,1,-1],"swapped_pitches":[2,1,-1,-2,4,-1,9,4,3,7,2,1,9,4,1,-1],"shift_direction":1,"question_num":11,"has_decoy":false},{"rt":6549.199999928474,"stimulus":"[A] option 1, [L] option 2, [G] neither","key_press":71,"name":"choice","trial_type":"html-keyboard-response","trial_index":32,"time_elapsed":88346,"internal_node_id":"0.0-32.0","subject":"S1C1622","sona":"41813","block":3,"time":"2021-09-17T05:07:59.996Z","response":"neither","certainty":"high","char":"G","transposition":-2,"order":["swapped","shifted"],"probe_pitches":[9,6,9,2,6,-1,6,11,4,2,9,4,6,2,6,2],"shifted_pitches":[9,6,9,2,6,-1,6,11,3,2,9,4,6,2,6,2],"swapped_pitches":[9,6,9,2,6,-1,6,4,11,2,9,4,6,2,6,2],"shift_direction":-1,"question_num":21,"has_decoy":false},{"rt":4309.799999952316,"stimulus":"[A] option 1, [L] option 2, [G] neither","key_press":71,"name":"choice","trial_type":"html-keyboard-response","trial_index":43,"time_elapsed":115222,"internal_node_id":"0.0-43.0","subject":"S1C1622","sona":"41813","block":3,"time":"2021-09-17T05:07:59.996Z","response":"neither","certainty":"high","char":"G","transposition":-3,"order":["shifted","swapped"],"probe_pitches":[6,11,8,6,8,4,11,1,4,6,4,11,-1,1,6,8],"shifted_pitches":[6,11,8,6,8,4,11,0,4,6,4,11,-1,1,6,8],"swapped_pitches":[6,11,8,6,8,4,11,4,1,6,4,11,-1,1,6,8],"shift_direction":-1,"question_num":31,"has_decoy":false},{"rt":319.10000002384186,"stimulus":"[A] option 1, [L] option 2, [G] neither","key_press":76,"name":"choice","trial_type":"html-keyboard-response","trial_index":54,"time_elapsed":168406,"internal_node_id":"0.0-54.0","subject":"S1C1622","sona":"41813","block":3,"time":"2021-09-17T05:07:59.996Z","response":"2nd","certainty":"high","char":"L","transposition":-2,"order":["shifted","swapped"],"probe_pitches":[0,2,8,1,8,5,6,4,1,9,1,7,-2,6,1,6],"shifted_pitches":[0,2,8,1,8,5,6,3,1,9,1,7,-2,6,1,6],"swapped_pitches":[0,2,8,1,8,5,6,1,4,9,1,7,-2,6,1,6],"shift_direction":-1,"question_num":41,"has_decoy":false},{"rt":2704.3000000715256,"stimulus":"[A] option 1, [L] option 2, [G] neither","key_press":71,"name":"choice","trial_type":"html-keyboard-response","trial_index":65,"time_elapsed":193864,"internal_node_id":"0.0-65.0","subject":"S1C1622","sona":"41813","block":3,"time":"2021-09-17T05:07:59.996Z","response":"neither","certainty":"high","char":"G","transposition":3,"order":["swapped","shifted"],"probe_pitches":[9,11,6,11,4,1,9,-1,11,4,9,11,1,6,1,9],"shifted_pitches":[9,11,6,11,4,1,9,0,11,4,9,11,1,6,1,9],"swapped_pitches":[9,11,6,11,4,1,9,11,-1,4,9,11,1,6,1,9],"shift_direction":1,"question_num":51,"has_decoy":false},{"rt":3272,"stimulus":"[A] option 1, [L] option 2, [G] neither","key_press":71,"name":"choice","trial_type":"html-keyboard-response","trial_index":76,"time_elapsed":222870,"internal_node_id":"0.0-76.0","subject":"S1C1622","sona":"41813","block":3,"time":"2021-09-17T05:07:59.996Z","response":"neither","certainty":"high","char":"G","transposition":-3,"order":["shifted","swapped"],"probe_pitches":[6,4,10,4,8,0,6,9,1,0,1,5,3,-1,-2,-1],"shifted_pitches":[6,4,10,4,8,0,6,9,2,0,1,5,3,-1,-2,-1],"swapped_pitches":[6,4,10,4,8,0,6,1,9,0,1,5,3,-1,-2,-1],"shift_direction":1,"question_num":61,"has_decoy":false},{"rt":2370.4000000953674,"stimulus":"[A] option 1, [L] option 2, [G] neither","key_press":71,"name":"choice","trial_type":"html-keyboard-response","trial_index":87,"time_elapsed":248070,"internal_node_id":"0.0-87.0","subject":"S1C1622","sona":"41813","block":3,"time":"2021-09-17T05:07:59.996Z","response":"neither","certainty":"high","char":"G","transposition":1,"order":["swapped","shifted"],"probe_pitches":[6,2,9,4,2,-1,9,11,-1,9,6,-1,4,2,9,4],"shifted_pitches":[6,2,9,4,2,-1,9,11,0,9,6,-1,4,2,9,4],"swapped_pitches":[6,2,9,4,2,-1,9,-1,11,9,6,-1,4,2,9,4],"shift_direction":1,"question_num":71,"has_decoy":false},{"rt":1703.3999999761581,"stimulus":"[A] option 1, [L] option 2, [G] neither","key_press":65,"name":"choice","trial_type":"html-keyboard-response","trial_index":98,"time_elapsed":280236,"internal_node_id":"0.0-98.0","subject":"S1C1622","sona":"41813","block":3,"time":"2021-09-17T05:07:59.996Z","response":"1st","certainty":"high","char":"A","transposition":2,"order":["swapped","shifted"],"probe_pitches":[9,11,6,11,9,11,6,1,11,9,11,6,4,9,1,6],"shifted_pitches":[9,11,6,11,9,11,6,1,10,9,11,6,4,9,1,6],"swapped_pitches":[9,11,6,11,9,11,6,11,1,9,11,6,4,9,1,6],"shift_direction":-1,"question_num":81,"has_decoy":false},{"rt":6923.900000095367,"stimulus":"[A] option 1, [L] option 2, [G] neither","key_press":76,"name":"choice","trial_type":"html-keyboard-response","trial_index":109,"time_elapsed":310236,"internal_node_id":"0.0-109.0","subject":"S1C1622","sona":"41813","block":3,"time":"2021-09-17T05:07:59.996Z","response":"2nd","certainty":"high","char":"L","transposition":1,"order":["shifted","swapped"],"probe_pitches":[5,0,7,6,-1,4,1,7,-1,10,1,3,7,10,9,-2],"shifted_pitches":[5,0,7,6,-1,4,1,8,-1,10,1,3,7,10,9,-2],"swapped_pitches":[5,0,7,6,-1,4,1,-1,7,10,1,3,7,10,9,-2],"shift_direction":1,"question_num":91,"has_decoy":false},{"rt":1530.2000000476837,"stimulus":"[A] option 1, [L] option 2, [G] neither","key_press":71,"name":"choice","trial_type":"html-keyboard-response","trial_index":120,"time_elapsed":337280,"internal_node_id":"0.0-120.0","subject":"S1C1622","sona":"41813","block":3,"time":"2021-09-17T05:07:59.996Z","response":"neither","certainty":"high","char":"G","transposition":-1,"order":["shifted","swapped"],"probe_pitches":[-1,1,-1,1,4,11,8,-1,11,6,4,8,11,8,4,11],"shifted_pitches":[-1,1,-1,1,4,11,8,-1,12,6,4,8,11,8,4,11],"swapped_pitches":[-1,1,-1,1,4,11,8,11,-1,6,4,8,11,8,4,11],"shift_direction":1,"question_num":101,"has_decoy":false},{"rt":2933.5,"stimulus":"[A] option 1, [L] option 2, [G] neither","key_press":65,"name":"choice","trial_type":"html-keyboard-response","trial_index":131,"time_elapsed":363223,"internal_node_id":"0.0-131.0","subject":"S1C1622","sona":"41813","block":3,"time":"2021-09-17T05:07:59.996Z","response":"1st","certainty":"high","char":"A","transposition":-2,"order":["swapped","shifted"],"probe_pitches":[7,5,-1,0,-2,-1,0,2,5,-2,8,4,2,7,4,3],"shifted_pitches":[7,5,-1,0,-2,-1,0,2,6,-2,8,4,2,7,4,3],"swapped_pitches":[7,5,-1,0,-2,-1,0,5,2,-2,8,4,2,7,4,3],"shift_direction":1,"question_num":111,"has_decoy":false},{"rt":1098.2000000476837,"stimulus":"[A] option 1, [L] option 2, [G] neither","key_press":76,"name":"choice","trial_type":"html-keyboard-response","trial_index":142,"time_elapsed":478753,"internal_node_id":"0.0-142.0","subject":"S1C1622","sona":"41813","block":3,"time":"2021-09-17T05:07:59.996Z","response":"2nd","certainty":"high","char":"L","transposition":-3,"order":["shifted","swapped"],"probe_pitches":[-1,3,8,1,3,1,8,11,1,8,6,8,-1,1,6,3],"shifted_pitches":[-1,3,8,1,3,1,8,10,1,8,6,8,-1,1,6,3],"swapped_pitches":[-1,3,8,1,3,1,8,1,11,8,6,8,-1,1,6,3],"shift_direction":-1,"question_num":121,"has_decoy":false},{"rt":1215.2000000476837,"stimulus":"[A] option 1, [L] option 2, [G] neither","key_press":76,"name":"choice","trial_type":"html-keyboard-response","trial_index":153,"time_elapsed":515743,"internal_node_id":"0.0-153.0","subject":"S1C1622","sona":"41813","block":3,"time":"2021-09-17T05:07:59.996Z","response":"2nd","certainty":"high","char":"L","transposition":-2,"order":["shifted","swapped"],"probe_pitches":[1,6,3,8,6,11,6,1,-1,3,-1,6,1,8,6,3],"shifted_pitches":[1,6,3,8,6,11,6,1,-2,3,-1,6,1,8,6,3],"swapped_pitches":[1,6,3,8,6,11,6,-1,1,3,-1,6,1,8,6,3],"shift_direction":-1,"question_num":131,"has_decoy":false},{"rt":7070.800000071526,"stimulus":"[A] option 1, [L] option 2, [G] neither","key_press":76,"name":"choice","trial_type":"html-keyboard-response","trial_index":164,"time_elapsed":551285,"internal_node_id":"0.0-164.0","subject":"S1C1622","sona":"41813","block":3,"time":"2021-09-17T05:07:59.996Z","response":"2nd","certainty":"high","char":"L","transposition":-3,"order":["swapped","shifted"],"probe_pitches":[3,0,-2,-1,6,-2,7,0,10,2,5,10,-1,2,4,5],"shifted_pitches":[3,0,-2,-1,6,-2,7,1,10,2,5,10,-1,2,4,5],"swapped_pitches":[3,0,-2,-1,6,-2,7,10,0,2,5,10,-1,2,4,5],"shift_direction":1,"question_num":141,"has_decoy":false},{"rt":6202.700000047684,"stimulus":"[A] option 1, [L] option 2, [G] neither","key_press":65,"name":"choice","trial_type":"html-keyboard-response","trial_index":175,"time_elapsed":582983,"internal_node_id":"0.0-175.0","subject":"S1C1622","sona":"41813","block":3,"time":"2021-09-17T05:07:59.996Z","response":"1st","certainty":"high","char":"A","transposition":-1,"order":["swapped","shifted"],"probe_pitches":[2,7,4,11,9,4,7,-1,9,4,9,7,11,9,-1,9],"shifted_pitches":[2,7,4,11,9,4,7,0,9,4,9,7,11,9,-1,9],"swapped_pitches":[2,7,4,11,9,4,7,9,-1,4,9,7,11,9,-1,9],"shift_direction":1,"question_num":151,"has_decoy":false},{"rt":12979.099999904633,"stimulus":"[A] option 1, [L] option 2, [G] neither","key_press":76,"name":"choice","trial_type":"html-keyboard-response","trial_index":186,"time_elapsed":619014,"internal_node_id":"0.0-186.0","subject":"S1C1622","sona":"41813","block":3,"time":"2021-09-17T05:07:59.996Z","response":"2nd","certainty":"high","char":"L","transposition":-1,"order":["shifted","swapped"],"probe_pitches":[2,6,5,4,1,8,10,0,-2,8,-1,7,6,-2,6,3],"shifted_pitches":[2,6,5,4,1,8,10,0,-3,8,-1,7,6,-2,6,3],"swapped_pitches":[2,6,5,4,1,8,10,-2,0,8,-1,7,6,-2,6,3],"shift_direction":-1,"question_num":161,"has_decoy":false},{"rt":939.0999999046326,"stimulus":"[A] option 1, [L] option 2, [G] neither","key_press":65,"name":"choice","trial_type":"html-keyboard-response","trial_index":197,"time_elapsed":652649,"internal_node_id":"0.0-197.0","subject":"S1C1622","sona":"41813","block":3,"time":"2021-09-17T05:07:59.996Z","response":"1st","certainty":"high","char":"A","transposition":2,"order":["shifted","swapped"],"probe_pitches":[9,5,9,8,1,4,9,1,-1,4,7,9,-1,6,-2,4],"shifted_pitches":[9,5,9,8,1,4,9,0,-1,4,7,9,-1,6,-2,4],"swapped_pitches":[9,5,9,8,1,4,9,-1,1,4,7,9,-1,6,-2,4],"shift_direction":-1,"question_num":171,"has_decoy":false},{"rt":1328.1000000238419,"stimulus":"[A] option 1, [L] option 2, [G] neither","key_press":76,"name":"choice","trial_type":"html-keyboard-response","trial_index":208,"time_elapsed":688207,"internal_node_id":"0.0-208.0","subject":"S1C1622","sona":"41813","block":3,"time":"2021-09-17T05:07:59.996Z","response":"2nd","certainty":"high","char":"L","transposition":0,"order":["swapped","shifted"],"probe_pitches":[10,8,6,1,8,4,10,-2,8,4,1,0,1,9,10,5],"shifted_pitches":[10,8,6,1,8,4,10,-2,7,4,1,0,1,9,10,5],"swapped_pitches":[10,8,6,1,8,4,10,8,-2,4,1,0,1,9,10,5],"shift_direction":-1,"question_num":181,"has_decoy":false},{"rt":6995.899999976158,"stimulus":"[A] option 1, [L] option 2, [G] neither","key_press":65,"name":"choice","trial_type":"html-keyboard-response","trial_index":219,"time_elapsed":729545,"internal_node_id":"0.0-219.0","subject":"S1C1622","sona":"41813","block":3,"time":"2021-09-17T05:07:59.996Z","response":"1st","certainty":"high","char":"A","transposition":0,"order":["shifted","swapped"],"probe_pitches":[11,7,9,4,-1,9,11,9,2,-1,7,2,4,9,4,2],"shifted_pitches":[11,7,9,4,-1,9,11,10,2,-1,7,2,4,9,4,2],"swapped_pitches":[11,7,9,4,-1,9,11,2,9,-1,7,2,4,9,4,2],"shift_direction":1,"question_num":191,"has_decoy":false}]