[{"rt":8045.199999928474,"stimulus":"[A] option 1, [L] option 2, [G] neither","key_press":71,"name":"choice","trial_type":"html-keyboard-response","trial_index":10,"time_elapsed":33831,"internal_node_id":"0.0-10.0","subject":"S1C1622","sona":"41813","block":4,"time":"2021-09-17T05:29:46.087Z","response":"neither","certainty":"high","char":"G","transposition":0,"order":["swapped","shifted"],"probe_pitches":[6,10,3,6,10,0,6,3,1,12,10,8,0,3,1,8],"shifted_pitches":[6,10,3,6,10,0,6,3,2,12,10,8,0,3,1,8],"swapped_pitches":[6,10,3,6,10,0,6,1,3,12,10,8,0,3,1,8],"shift_direction":1,"question_num":1,"has_decoy":false},{"rt":6810.5,"stimulus":"[A] option 1, [L] option 2, [G] neither","key_press":76,"name":"choice","trial_type":"html-keyboard-response","trial_index":21,"time_elapsed":115303,"internal_node_id":"0.0-21.0","subject":"S1C1622","sona":"41813","block":4,"time":"2021-09-17T05:29:46.087Z","response":"2nd","certainty":"high","char":"L","transposition":2,"order":["swapped","shifted"],"probe_pitches":[0,2,5,4,3,0,5,11,1,9,0,5,9,5,12,7],"shifted_pitches":[0,2,5,4,3,0,5,10,1,9,0,5,9,5,12,7],"swapped_pitches":[0,2,5,4,3,0,5,1,11,9,0,5,9,5,12,7],"shift_direction":-1,"question_num":11,"has_decoy":false},{"rt":287.10000002384186,"stimulus":"[A] option 1, [L] option 2, [G] neither","key_press":76,"name":"choice","trial_type":"html-keyboard-response","trial_index":32,"time_elapsed":269003,"internal_node_id":"0.0-32.0","subject":"S1C1622","sona":"41813","block":4,"time":"2021-09-17T05:29:46.087Z","response":"2nd","certainty":"high","char":"L","transposition":-2,"order":["swapped","shifted"],"probe_pitches":[7,4,10,6,2,12,4,2,7,6,4,9,4,11,6,7],"shifted_pitches":[7,4,10,6,2,12,4,2,8,6,4,9,4,11,6,7],"swapped_pitches":[7,4,10,6,2,12,4,7,2,6,4,9,4,11,6,7],"shift_direction":1,"question_num":21,"has_decoy":false},{"rt":882.2999999523163,"stimulus":"[A] option 1, [L] option 2, [G] neither","key_press":76,"name":"choice","trial_type":"html-keyboard-response","trial_index":43,"time_elapsed":292408,"internal_node_id":"0.0-43.0","subject":"S1C1622","sona":"41813","block":4,"time":"2021-09-17T05:29:46.087Z","response":"2nd","certainty":"high","char":"L","transposition":2,"order":["shifted","swapped"],"probe_pitches":[4,-1,4,-1,6,-1,6,-1,4,-3,4,1,9,-3,1,-1],"shifted_pitches":[4,-1,4,-1,6,-1,6,-2,4,-3,4,1,9,-3,1,-1],"swapped_pitches":[4,-1,4,-1,6,-1,6,4,-1,-3,4,1,9,-3,1,-1],"shift_direction":-1,"question_num":31,"has_decoy":false},{"rt":1557,"stimulus":"[A] option 1, [L] option 2, [G] neither","key_press":76,"name":"choice","trial_type":"html-keyboard-response","trial_index":54,"time_elapsed":474400,"internal_node_id":"0.0-54.0","subject":"S1C1622","sona":"41813","block":4,"time":"2021-09-17T05:29:46.087Z","response":"2nd","certainty":"high","char":"L","transposition":1,"order":["swapped","shifted"],"probe_pitches":[-3,0,2,9,0,4,-3,2,4,-3,9,-3,7,9,-3,7],"shifted_pitches":[-3,0,2,9,0,4,-3,2,5,-3,9,-3,7,9,-3,7],"swapped_pitches":[-3,0,2,9,0,4,-3,4,2,-3,9,-3,7,9,-3,7],"shift_direction":1,"question_num":41,"has_decoy":false},{"rt":8908.299999952316,"stimulus":"[A] option 1, [L] option 2, [G] neither","key_press":76,"name":"choice","trial_type":"html-keyboard-response","trial_index":65,"time_elapsed":507688,"internal_node_id":"0.0-65.0","subject":"S1C1622","sona":"41813","block":4,"time":"2021-09-17T05:29:46.087Z","response":"2nd","certainty":"high","char":"L","transposition":-1,"order":["shifted","swapped"],"probe_pitches":[2,4,1,7,11,12,2,4,9,7,8,7,2,10,9,11],"shifted_pitches":[2,4,1,7,11,12,2,3,9,7,8,7,2,10,9,11],"swapped_pitches":[2,4,1,7,11,12,2,9,4,7,8,7,2,10,9,11],"shift_direction":-1,"question_num":51,"has_decoy":false},{"rt":235.5,"stimulus":"[A] option 1, [L] option 2, [G] neither","key_press":65,"name":"choice","trial_type":"html-keyboard-response","trial_index":76,"time_elapsed":534397,"internal_node_id":"0.0-76.0","subject":"S1C1622","sona":"41813","block":4,"time":"2021-09-17T05:29:46.087Z","response":"1st","certainty":"high","char":"A","transposition":3,"order":["swapped","shifted"],"probe_pitches":[9,5,7,0,5,2,-3,7,0,2,5,-3,0,-3,0,-3],"shifted_pitches":[9,5,7,0,5,2,-3,6,0,2,5,-3,0,-3,0,-3],"swapped_pitches":[9,5,7,0,5,2,-3,0,7,2,5,-3,0,-3,0,-3],"shift_direction":-1,"question_num":61,"has_decoy":false},{"rt":321251,"stimulus":"[A] option 1, [L] option 2, [G] neither","key_press":71,"name":"choice","trial_type":"html-keyboard-response","trial_index":87,"time_elapsed":877664,"internal_node_id":"0.0-87.0","subject":"S1C1622","sona":"41813","block":4,"time":"2021-09-17T05:29:46.087Z","response":"neither","certainty":"high","char":"G","transposition":-3,"order":["shifted","swapped"],"probe_pitches":[0,2,9,7,9,7,4,9,0,4,0,9,0,4,0,9],"shifted_pitches":[0,2,9,7,9,7,4,9,-1,4,0,9,0,4,0,9],"swapped_pitches":[0,2,9,7,9,7,4,0,9,4,0,9,0,4,0,9],"shift_direction":-1,"question_num":71,"has_decoy":false},{"rt":8609.600000023842,"stimulus":"[A] option 1, [L] option 2, [G] neither","key_press":76,"name":"choice","trial_type":"html-keyboard-response","trial_index":98,"time_elapsed":915024,"internal_node_id":"0.0-98.0","subject":"S1C1622","sona":"41813","block":4,"time":"2021-09-17T05:29:46.087Z","response":"2nd","certainty":"high","char":"L","transposition":3,"order":["swapped","shifted"],"probe_pitches":[0,3,10,12,5,9,12,8,7,1,0,1,3,7,3,9],"shifted_pitches":[0,3,10,12,5,9,12,8,6,1,0,1,3,7,3,9],"swapped_pitches":[0,3,10,12,5,9,12,7,8,1,0,1,3,7,3,9],"shift_direction":-1,"question_num":81,"has_decoy":false},{"rt":1327.7999999523163,"stimulus":"[A] option 1, [L] option 2, [G] neither","key_press":76,"name":"choice","trial_type":"html-keyboard-response","trial_index":109,"time_elapsed":939651,"internal_node_id":"0.0-109.0","subject":"S1C1622","sona":"41813","block":4,"time":"2021-09-17T05:29:46.087Z","response":"2nd","certainty":"high","char":"L","transposition":-1,"order":["swapped","shifted"],"probe_pitches":[-3,-1,-3,4,2,9,-1,2,6,-3,6,9,4,9,6,-3],"shifted_pitches":[-3,-1,-3,4,2,9,-1,3,6,-3,6,9,4,9,6,-3],"swapped_pitches":[-3,-1,-3,4,2,9,-1,6,2,-3,6,9,4,9,6,-3],"shift_direction":1,"question_num":91,"has_decoy":false},{"rt":391.8000000715256,"stimulus":"[A] option 1, [L] option 2, [G] neither","key_press":76,"name":"choice","trial_type":"html-keyboard-response","trial_index":120,"time_elapsed":962939,"internal_node_id":"0.0-120.0","subject":"S1C1622","sona":"41813","block":4,"time":"2021-09-17T05:29:46.087Z","response":"2nd","certainty":"high","char":"L","transposition":-3,"order":["shifted","swapped"],"probe_pitches":[0,5,12,4,0,5,12,10,6,2,3,5,1,0,12,10],"shifted_pitches":[0,5,12,4,0,5,12,11,6,2,3,5,1,0,12,10],"swapped_pitches":[0,5,12,4,0,5,12,6,10,2,3,5,1,0,12,10],"shift_direction":1,"question_num":101,"has_decoy":false},{"rt":3328.7000000476837,"stimulus":"[A] option 1, [L] option 2, [G] neither","key_press":65,"name":"choice","trial_type":"html-keyboard-response","trial_index":131,"time_elapsed":990815,"internal_node_id":"0.0-131.0","subject":"S1C1622","sona":"41813","block":4,"time":"2021-09-17T05:29:46.087Z","response":"1st","certainty":"high","char":"A","transposition":-2,"order":["swapped","shifted"],"probe_pitches":[12,6,11,8,9,10,5,12,6,2,10,9,6,12,9,4],"shifted_pitches":[12,6,11,8,9,10,5,12,7,2,10,9,6,12,9,4],"swapped_pitches":[12,6,11,8,9,10,5,6,12,2,10,9,6,12,9,4],"shift_direction":1,"question_num":111,"has_decoy":false},{"rt":1789.2999999523163,"stimulus":"[A] option 1, [L] option 2, [G] neither","key_press":65,"name":"choice","trial_type":"html-keyboard-response","trial_index":142,"time_elapsed":1015378,"internal_node_id":"0.0-142.0","subject":"S1C1622","sona":"41813","block":4,"time":"2021-09-17T05:29:46.087Z","response":"1st","certainty":"high","char":"A","transposition":-3,"order":["swapped","shifted"],"probe_pitches":[6,1,-1,-3,1,9,6,9,-1,4,-3,-1,9,-3,-1,4],"shifted_pitches":[6,1,-1,-3,1,9,6,9,-2,4,-3,-1,9,-3,-1,4],"swapped_pitches":[6,1,-1,-3,1,9,6,-1,9,4,-3,-1,9,-3,-1,4],"shift_direction":-1,"question_num":121,"has_decoy":false},{"rt":6243.600000023842,"stimulus":"[A] option 1, [L] option 2, [G] neither","key_press":76,"name":"choice","trial_type":"html-keyboard-response","trial_index":153,"time_elapsed":1048969,"internal_node_id":"0.0-153.0","subject":"S1C1622","sona":"41813","block":4,"time":"2021-09-17T05:29:46.087Z","response":"2nd","certainty":"high","char":"L","transposition":-3,"order":["shifted","swapped"],"probe_pitches":[12,8,10,7,12,4,6,4,12,8,0,1,9,2,10,7],"shifted_pitches":[12,8,10,7,12,4,6,5,12,8,0,1,9,2,10,7],"swapped_pitches":[12,8,10,7,12,4,6,12,4,8,0,1,9,2,10,7],"shift_direction":1,"question_num":131,"has_decoy":false},{"rt":2631.9000000953674,"stimulus":"[A] option 1, [L] option 2, [G] neither","key_press":71,"name":"choice","trial_type":"html-keyboard-response","trial_index":164,"time_elapsed":1074338,"internal_node_id":"0.0-164.0","subject":"S1C1622","sona":"41813","block":4,"time":"2021-09-17T05:29:46.087Z","response":"neither","certainty":"high","char":"G","transposition":1,"order":["shifted","swapped"],"probe_pitches":[6,1,6,7,12,4,11,10,0,2,6,2,10,7,12,8],"shifted_pitches":[6,1,6,7,12,4,11,9,0,2,6,2,10,7,12,8],"swapped_pitches":[6,1,6,7,12,4,11,0,10,2,6,2,10,7,12,8],"shift_direction":-1,"question_num":141,"has_decoy":false},{"rt":1780.3000000715256,"stimulus":"[A] option 1, [L] option 2, [G] neither","key_press":65,"name":"choice","trial_type":"html-keyboard-response","trial_index":175,"time_elapsed":1100858,"internal_node_id":"0.0-175.0","subject":"S1C1622","sona":"41813","block":4,"time":"2021-09-17T05:29:46.087Z","response":"1st","certainty":"high","char":"A","transposition":-1,"order":["shifted","swapped"],"probe_pitches":[9,11,8,3,2,10,8,6,5,7,10,7,2,10,5,8],"shifted_pitches":[9,11,8,3,2,10,8,6,4,7,10,7,2,10,5,8],"swapped_pitches":[9,11,8,3,2,10,8,5,6,7,10,7,2,10,5,8],"shift_direction":-1,"question_num":151,"has_decoy":false},{"rt":3468.600000023842,"stimulus":"[A] option 1, [L] option 2, [G] neither","key_press":71,"name":"choice","trial_type":"html-keyboard-response","trial_index":186,"time_elapsed":1141048,"internal_node_id":"0.0-186.0","subject":"S1C1622","sona":"41813","block":4,"time":"2021-09-17T05:29:46.087Z","response":"neither","certainty":"high","char":"G","transposition":0,"order":["shifted","swapped"],"probe_pitches":[9,5,0,-3,2,5,-3,5,0,-3,5,9,7,9,2,0],"shifted_pitches":[9,5,0,-3,2,5,-3,4,0,-3,5,9,7,9,2,0],"swapped_pitches":[9,5,0,-3,2,5,-3,0,5,-3,5,9,7,9,2,0],"shift_direction":-1,"question_num":161,"has_decoy":false},{"rt":11678.899999976158,"stimulus":"[A] option 1, [L] option 2, [G] neither","key_press":71,"name":"choice","trial_type":"html-keyboard-response","trial_index":197,"time_elapsed":1177286,"internal_node_id":"0.0-197.0","subject":"S1C1622","sona":"41813","block":4,"time":"2021-09-17T05:29:46.087Z","response":"neither","certainty":"high","char":"G","transposition":-2,"order":["swapped","shifted"],"probe_pitches":[2,-3,-1,4,2,9,-1,2,4,9,-1,2,-3,7,-1,2],"shifted_pitches":[2,-3,-1,4,2,9,-1,2,5,9,-1,2,-3,7,-1,2],"swapped_pitches":[2,-3,-1,4,2,9,-1,4,2,9,-1,2,-3,7,-1,2],"shift_direction":1,"question_num":171,"has_decoy":false},{"rt":1921.4000000953674,"stimulus":"[A] option 1, [L] option 2, [G] neither","key_press":76,"name":"choice","trial_type":"html-keyboard-response","trial_index":208,"time_elapsed":1211326,"internal_node_id":"0.0-208.0","subject":"S1C1622","sona":"41813","block":4,"time":"2021-09-17T05:29:46.087Z","response":"2nd","certainty":"high","char":"L","transposition":-2,"order":["shifted","swapped"],"probe_pitches":[4,9,2,7,9,7,-1,-3,4,2,-1,9,4,9,-1,7],"shifted_pitches":[4,9,2,7,9,7,-1,-2,4,2,-1,9,4,9,-1,7],"swapped_pitches":[4,9,2,7,9,7,-1,4,-3,2,-1,9,4,9,-1,7],"shift_direction":1,"question_num":181,"has_decoy":false},{"rt":8821.299999952316,"stimulus":"[A] option 1, [L] option 2, [G] neither","key_press":71,"name":"choice","trial_type":"html-keyboard-response","trial_index":219,"time_elapsed":1251928,"internal_node_id":"0.0-219.0","subject":"S1C1622","sona":"41813","block":4,"time":"2021-09-17T05:29:46.087Z","response":"neither","certainty":"high","char":"G","transposition":-1,"order":["shifted","swapped"],"probe_pitches":[2,4,-1,4,2,6,9,-3,4,6,-1,2,-3,-1,6,2],"shifted_pitches":[2,4,-1,4,2,6,9,-3,5,6,-1,2,-3,-1,6,2],"swapped_pitches":[2,4,-1,4,2,6,9,4,-3,6,-1,2,-3,-1,6,2],"shift_direction":1,"question_num":191,"has_decoy":false}]