[{"rt":320.3000000715256,"stimulus":"[A] option 1, [L] option 2, [G] neither","key_press":76,"name":"choice","trial_type":"html-keyboard-response","trial_index":10,"time_elapsed":47448,"internal_node_id":"0.0-10.0","subject":"S1C1622","sona":"41813","block":5,"time":"2021-09-17T05:41:26.349Z","response":"2nd","certainty":"high","char":"L","transposition":0,"order":["swapped","shifted"],"probe_pitches":[8,6,4,7,5,2,5,2,14,11,10,6,8,10,11,10],"shifted_pitches":[8,6,4,7,5,2,5,2,13,11,10,6,8,10,11,10],"swapped_pitches":[8,6,4,7,5,2,5,14,2,11,10,6,8,10,11,10],"shift_direction":-1,"question_num":1,"has_decoy":false},{"rt":9898.200000047684,"stimulus":"[A] option 1, [L] option 2, [G] neither","key_press":76,"name":"choice","trial_type":"html-keyboard-response","trial_index":21,"time_elapsed":81565,"internal_node_id":"0.0-21.0","subject":"S1C1622","sona":"41813","block":5,"time":"2021-09-17T05:41:26.349Z","response":"2nd","certainty":"high","char":"L","transposition":-3,"order":["shifted","swapped"],"probe_pitches":[8,10,8,10,6,13,6,8,3,13,1,8,6,10,6,3],"shifted_pitches":[8,10,8,10,6,13,6,7,3,13,1,8,6,10,6,3],"swapped_pitches":[8,10,8,10,6,13,6,3,8,13,1,8,6,10,6,3],"shift_direction":-1,"question_num":11,"has_decoy":false},{"rt":3882.5,"stimulus":"[A] option 1, [L] option 2, [G] neither","key_press":76,"name":"choice","trial_type":"html-keyboard-response","trial_index":32,"time_elapsed":115694,"internal_node_id":"0.0-32.0","subject":"S1C1622","sona":"41813","block":5,"time":"2021-09-17T05:41:26.349Z","response":"2nd","certainty":"high","char":"L","transposition":-3,"order":["shifted","swapped"],"probe_pitches":[3,9,4,9,2,12,4,8,2,11,10,2,3,12,6,14],"shifted_pitches":[3,9,4,9,2,12,4,7,2,11,10,2,3,12,6,14],"swapped_pitches":[3,9,4,9,2,12,4,2,8,11,10,2,3,12,6,14],"shift_direction":-1,"question_num":21,"has_decoy":false},{"rt":3252.0999999046326,"stimulus":"[A] option 1, [L] option 2, [G] neither","key_press":76,"name":"choice","trial_type":"html-keyboard-response","trial_index":43,"time_elapsed":143352,"internal_node_id":"0.0-43.0","subject":"S1C1622","sona":"41813","block":5,"time":"2021-09-17T05:41:26.349Z","response":"2nd","certainty":"high","char":"L","transposition":-1,"order":["shifted","swapped"],"probe_pitches":[2,5,8,13,7,2,3,10,7,3,11,3,11,3,13,10],"shifted_pitches":[2,5,8,13,7,2,3,9,7,3,11,3,11,3,13,10],"swapped_pitches":[2,5,8,13,7,2,3,7,10,3,11,3,11,3,13,10],"shift_direction":-1,"question_num":31,"has_decoy":false},{"rt":562.5,"stimulus":"[A] option 1, [L] option 2, [G] neither","key_press":76,"name":"choice","trial_type":"html-keyboard-response","trial_index":54,"time_elapsed":167703,"internal_node_id":"0.0-54.0","subject":"S1C1622","sona":"41813","block":5,"time":"2021-09-17T05:41:26.349Z","response":"2nd","certainty":"high","char":"L","transposition":2,"order":["shifted","swapped"],"probe_pitches":[9,4,3,5,2,5,13,4,12,5,2,12,10,14,6,10],"shifted_pitches":[9,4,3,5,2,5,13,4,11,5,2,12,10,14,6,10],"swapped_pitches":[9,4,3,5,2,5,13,12,4,5,2,12,10,14,6,10],"shift_direction":-1,"question_num":41,"has_decoy":false},{"rt":308.09999990463257,"stimulus":"[A] option 1, [L] option 2, [G] neither","key_press":76,"name":"choice","trial_type":"html-keyboard-response","trial_index":65,"time_elapsed":190755,"internal_node_id":"0.0-65.0","subject":"S1C1622","sona":"41813","block":5,"time":"2021-09-17T05:41:26.349Z","response":"2nd","certainty":"high","char":"L","transposition":-3,"order":["swapped","shifted"],"probe_pitches":[6,1,6,13,11,3,11,1,3,13,8,3,8,11,6,3],"shifted_pitches":[6,1,6,13,11,3,11,1,2,13,8,3,8,11,6,3],"swapped_pitches":[6,1,6,13,11,3,11,3,1,13,8,3,8,11,6,3],"shift_direction":-1,"question_num":51,"has_decoy":false},{"rt":1393.2999999523163,"stimulus":"[A] option 1, [L] option 2, [G] neither","key_press":71,"name":"choice","trial_type":"html-keyboard-response","trial_index":76,"time_elapsed":216214,"internal_node_id":"0.0-76.0","subject":"S1C1622","sona":"41813","block":5,"time":"2021-09-17T05:41:26.349Z","response":"neither","certainty":"high","char":"G","transposition":-3,"order":["swapped","shifted"],"probe_pitches":[8,2,6,8,4,7,4,9,7,3,11,6,4,14,9,4],"shifted_pitches":[8,2,6,8,4,7,4,10,7,3,11,6,4,14,9,4],"swapped_pitches":[8,2,6,8,4,7,4,7,9,3,11,6,4,14,9,4],"shift_direction":1,"question_num":61,"has_decoy":false},{"rt":3068.600000023842,"stimulus":"[A] option 1, [L] option 2, [G] neither","key_press":71,"name":"choice","trial_type":"html-keyboard-response","trial_index":87,"time_elapsed":318633,"internal_node_id":"0.0-87.0","subject":"S1C1622","sona":"41813","block":5,"time":"2021-09-17T05:41:26.349Z","response":"neither","certainty":"high","char":"G","transposition":0,"order":["shifted","swapped"],"probe_pitches":[11,13,6,13,9,4,1,9,13,4,6,4,11,6,11,9],"shifted_pitches":[11,13,6,13,9,4,1,9,14,4,6,4,11,6,11,9],"swapped_pitches":[11,13,6,13,9,4,1,13,9,4,6,4,11,6,11,9],"shift_direction":1,"question_num":71,"has_decoy":false},{"rt":2465.1999999284744,"stimulus":"[A] option 1, [L] option 2, [G] neither","key_press":76,"name":"choice","trial_type":"html-keyboard-response","trial_index":98,"time_elapsed":343945,"internal_node_id":"0.0-98.0","subject":"S1C1622","sona":"41813","block":5,"time":"2021-09-17T05:41:26.349Z","response":"2nd","certainty":"high","char":"L","transposition":-2,"order":["shifted","swapped"],"probe_pitches":[10,6,10,6,8,13,6,13,3,10,3,1,8,3,1,8],"shifted_pitches":[10,6,10,6,8,13,6,12,3,10,3,1,8,3,1,8],"swapped_pitches":[10,6,10,6,8,13,6,3,13,10,3,1,8,3,1,8],"shift_direction":-1,"question_num":81,"has_decoy":false},{"rt":4320.899999976158,"stimulus":"[A] option 1, [L] option 2, [G] neither","key_press":65,"name":"choice","trial_type":"html-keyboard-response","trial_index":109,"time_elapsed":372030,"internal_node_id":"0.0-109.0","subject":"S1C1622","sona":"41813","block":5,"time":"2021-09-17T05:41:26.349Z","response":"1st","certainty":"high","char":"A","transposition":3,"order":["swapped","shifted"],"probe_pitches":[8,12,7,12,10,2,6,2,5,6,12,7,13,2,13,5],"shifted_pitches":[8,12,7,12,10,2,6,2,4,6,12,7,13,2,13,5],"swapped_pitches":[8,12,7,12,10,2,6,5,2,6,12,7,13,2,13,5],"shift_direction":-1,"question_num":91,"has_decoy":false},{"rt":530.6000000238419,"stimulus":"[A] option 1, [L] option 2, [G] neither","key_press":65,"name":"choice","trial_type":"html-keyboard-response","trial_index":120,"time_elapsed":395339,"internal_node_id":"0.0-120.0","subject":"S1C1622","sona":"41813","block":5,"time":"2021-09-17T05:41:26.349Z","response":"1st","certainty":"high","char":"A","transposition":-2,"order":["shifted","swapped"],"probe_pitches":[6,4,1,9,1,9,13,9,11,6,9,1,11,1,4,1],"shifted_pitches":[6,4,1,9,1,9,13,9,10,6,9,1,11,1,4,1],"swapped_pitches":[6,4,1,9,1,9,13,11,9,6,9,1,11,1,4,1],"shift_direction":-1,"question_num":101,"has_decoy":false},{"rt":3878,"stimulus":"[A] option 1, [L] option 2, [G] neither","key_press":76,"name":"choice","trial_type":"html-keyboard-response","trial_index":131,"time_elapsed":424793,"internal_node_id":"0.0-131.0","subject":"S1C1622","sona":"41813","block":5,"time":"2021-09-17T05:41:26.349Z","response":"2nd","certainty":"high","char":"L","transposition":-2,"order":["shifted","swapped"],"probe_pitches":[11,13,9,10,4,6,2,11,7,13,8,3,6,8,7,5],"shifted_pitches":[11,13,9,10,4,6,2,12,7,13,8,3,6,8,7,5],"swapped_pitches":[11,13,9,10,4,6,2,7,11,13,8,3,6,8,7,5],"shift_direction":1,"question_num":111,"has_decoy":false},{"rt":5098.700000047684,"stimulus":"[A] option 1, [L] option 2, [G] neither","key_press":76,"name":"choice","trial_type":"html-keyboard-response","trial_index":142,"time_elapsed":455305,"internal_node_id":"0.0-142.0","subject":"S1C1622","sona":"41813","block":5,"time":"2021-09-17T05:41:26.349Z","response":"2nd","certainty":"high","char":"L","transposition":-1,"order":["swapped","shifted"],"probe_pitches":[8,13,8,1,6,1,6,4,13,11,4,1,11,13,11,1],"shifted_pitches":[8,13,8,1,6,1,6,5,13,11,4,1,11,13,11,1],"swapped_pitches":[8,13,8,1,6,1,6,13,4,11,4,1,11,13,11,1],"shift_direction":1,"question_num":121,"has_decoy":false},{"rt":1401.6000000238419,"stimulus":"[A] option 1, [L] option 2, [G] neither","key_press":65,"name":"choice","trial_type":"html-keyboard-response","trial_index":153,"time_elapsed":479875,"internal_node_id":"0.0-153.0","subject":"S1C1622","sona":"41813","block":5,"time":"2021-09-17T05:41:26.349Z","response":"1st","certainty":"high","char":"A","transposition":-2,"order":["shifted","swapped"],"probe_pitches":[13,14,11,9,7,6,11,7,9,2,14,13,2,9,5,4],"shifted_pitches":[13,14,11,9,7,6,11,8,9,2,14,13,2,9,5,4],"swapped_pitches":[13,14,11,9,7,6,11,9,7,2,14,13,2,9,5,4],"shift_direction":1,"question_num":131,"has_decoy":false},{"rt":8547.700000047684,"stimulus":"[A] option 1, [L] option 2, [G] neither","key_press":71,"name":"choice","trial_type":"html-keyboard-response","trial_index":164,"time_elapsed":513086,"internal_node_id":"0.0-164.0","subject":"S1C1622","sona":"41813","block":5,"time":"2021-09-17T05:41:26.349Z","response":"neither","certainty":"high","char":"G","transposition":3,"order":["swapped","shifted"],"probe_pitches":[10,5,10,3,8,1,10,13,5,8,10,1,5,1,5,3],"shifted_pitches":[10,5,10,3,8,1,10,13,6,8,10,1,5,1,5,3],"swapped_pitches":[10,5,10,3,8,1,10,5,13,8,10,1,5,1,5,3],"shift_direction":1,"question_num":141,"has_decoy":false},{"rt":6203.699999928474,"stimulus":"[A] option 1, [L] option 2, [G] neither","key_press":76,"name":"choice","trial_type":"html-keyboard-response","trial_index":175,"time_elapsed":541318,"internal_node_id":"0.0-175.0","subject":"S1C1622","sona":"41813","block":5,"time":"2021-09-17T05:41:26.349Z","response":"2nd","certainty":"high","char":"L","transposition":1,"order":["shifted","swapped"],"probe_pitches":[13,8,13,8,6,4,6,11,1,6,11,6,1,8,1,13],"shifted_pitches":[13,8,13,8,6,4,6,12,1,6,11,6,1,8,1,13],"swapped_pitches":[13,8,13,8,6,4,6,1,11,6,11,6,1,8,1,13],"shift_direction":1,"question_num":151,"has_decoy":false},{"rt":7331.700000047684,"stimulus":"[A] option 1, [L] option 2, [G] neither","key_press":76,"name":"choice","trial_type":"html-keyboard-response","trial_index":186,"time_elapsed":571145,"internal_node_id":"0.0-186.0","subject":"S1C1622","sona":"41813","block":5,"time":"2021-09-17T05:41:26.349Z","response":"2nd","certainty":"high","char":"L","transposition":1,"order":["swapped","shifted"],"probe_pitches":[14,12,13,7,9,8,10,6,4,14,8,14,2,6,7,11],"shifted_pitches":[14,12,13,7,9,8,10,6,5,14,8,14,2,6,7,11],"swapped_pitches":[14,12,13,7,9,8,10,4,6,14,8,14,2,6,7,11],"shift_direction":1,"question_num":161,"has_decoy":false},{"rt":9181.100000023842,"stimulus":"[A] option 1, [L] option 2, [G] neither","key_press":76,"name":"choice","trial_type":"html-keyboard-response","trial_index":197,"time_elapsed":605390,"internal_node_id":"0.0-197.0","subject":"S1C1622","sona":"41813","block":5,"time":"2021-09-17T05:41:26.349Z","response":"2nd","certainty":"high","char":"L","transposition":-1,"order":["swapped","shifted"],"probe_pitches":[14,9,4,10,7,11,7,3,5,14,3,13,12,5,4,9],"shifted_pitches":[14,9,4,10,7,11,7,3,6,14,3,13,12,5,4,9],"swapped_pitches":[14,9,4,10,7,11,7,5,3,14,3,13,12,5,4,9],"shift_direction":1,"question_num":171,"has_decoy":false},{"rt":8696.299999952316,"stimulus":"[A] option 1, [L] option 2, [G] neither","key_press":76,"name":"choice","trial_type":"html-keyboard-response","trial_index":208,"time_elapsed":650410,"internal_node_id":"0.0-208.0","subject":"S1C1622","sona":"41813","block":5,"time":"2021-09-17T05:41:26.349Z","response":"2nd","certainty":"high","char":"L","transposition":-1,"order":["swapped","shifted"],"probe_pitches":[3,1,8,13,11,13,11,1,3,11,8,11,1,3,6,13],"shifted_pitches":[3,1,8,13,11,13,11,2,3,11,8,11,1,3,6,13],"swapped_pitches":[3,1,8,13,11,13,11,3,1,11,8,11,1,3,6,13],"shift_direction":1,"question_num":181,"has_decoy":false},{"rt":8675.100000023842,"stimulus":"[A] option 1, [L] option 2, [G] neither","key_press":71,"name":"choice","trial_type":"html-keyboard-response","trial_index":219,"time_elapsed":688805,"internal_node_id":"0.0-219.0","subject":"S1C1622","sona":"41813","block":5,"time":"2021-09-17T05:41:26.349Z","response":"neither","certainty":"high","char":"G","transposition":2,"order":["swapped","shifted"],"probe_pitches":[3,8,5,3,8,5,10,13,5,3,13,5,13,8,13,10],"shifted_pitches":[3,8,5,3,8,5,10,13,4,3,13,5,13,8,13,10],"swapped_pitches":[3,8,5,3,8,5,10,5,13,3,13,5,13,8,13,10],"shift_direction":-1,"question_num":191,"has_decoy":false}]