[{"rt":1668.7000000476837,"stimulus":"[A] option 1, [L] option 2, [G] neither","key_press":76,"name":"choice","trial_type":"html-keyboard-response","trial_index":10,"time_elapsed":28369,"internal_node_id":"0.0-10.0","subject":"S1C1622","sona":"41813","block":6,"time":"2021-09-17T05:52:01.200Z","response":"2nd","certainty":"high","char":"L","transposition":-2,"order":["swapped","shifted"],"probe_pitches":[4,7,3,10,8,7,14,11,4,13,11,12,6,7,3,10],"shifted_pitches":[4,7,3,10,8,7,14,11,5,13,11,12,6,7,3,10],"swapped_pitches":[4,7,3,10,8,7,14,4,11,13,11,12,6,7,3,10],"shift_direction":1,"question_num":1,"has_decoy":false},{"rt":1453.7000000476837,"stimulus":"[A] option 1, [L] option 2, [G] neither","key_press":76,"name":"choice","trial_type":"html-keyboard-response","trial_index":21,"time_elapsed":53829,"internal_node_id":"0.0-21.0","subject":"S1C1622","sona":"41813","block":6,"time":"2021-09-17T05:52:01.200Z","response":"2nd","certainty":"high","char":"L","transposition":-1,"order":["shifted","swapped"],"probe_pitches":[13,9,10,7,8,10,9,14,10,5,7,3,8,7,6,9],"shifted_pitches":[13,9,10,7,8,10,9,14,11,5,7,3,8,7,6,9],"swapped_pitches":[13,9,10,7,8,10,9,10,14,5,7,3,8,7,6,9],"shift_direction":1,"question_num":11,"has_decoy":false},{"rt":18594.5,"stimulus":"[A] option 1, [L] option 2, [G] neither","key_press":76,"name":"choice","trial_type":"html-keyboard-response","trial_index":32,"time_elapsed":98666,"internal_node_id":"0.0-32.0","subject":"S1C1622","sona":"41813","block":6,"time":"2021-09-17T05:52:01.200Z","response":"2nd","certainty":"high","char":"L","transposition":1,"order":["shifted","swapped"],"probe_pitches":[1,6,4,9,6,1,6,4,1,9,1,-3,9,1,4,-1],"shifted_pitches":[1,6,4,9,6,1,6,5,1,9,1,-3,9,1,4,-1],"swapped_pitches":[1,6,4,9,6,1,6,1,4,9,1,-3,9,1,4,-1],"shift_direction":1,"question_num":21,"has_decoy":false},{"rt":27190.100000023842,"stimulus":"[A] option 1, [L] option 2, [G] neither","key_press":65,"name":"choice","trial_type":"html-keyboard-response","trial_index":43,"time_elapsed":147924,"internal_node_id":"0.0-43.0","subject":"S1C1622","sona":"41813","block":6,"time":"2021-09-17T05:52:01.200Z","response":"1st","certainty":"high","char":"A","transposition":3,"order":["shifted","swapped"],"probe_pitches":[1,-1,4,1,4,9,-1,-3,6,-1,1,6,-1,-3,-1,-3],"shifted_pitches":[1,-1,4,1,4,9,-1,-3,7,-1,1,6,-1,-3,-1,-3],"swapped_pitches":[1,-1,4,1,4,9,-1,6,-3,-1,1,6,-1,-3,-1,-3],"shift_direction":1,"question_num":31,"has_decoy":false},{"rt":1077.2999999523163,"stimulus":"[A] option 1, [L] option 2, [G] neither","key_press":76,"name":"choice","trial_type":"html-keyboard-response","trial_index":54,"time_elapsed":175166,"internal_node_id":"0.0-54.0","subject":"S1C1622","sona":"41813","block":6,"time":"2021-09-17T05:52:01.200Z","response":"2nd","certainty":"high","char":"L","transposition":-3,"order":["swapped","shifted"],"probe_pitches":[2,-1,-3,2,-3,2,-1,-3,2,-1,6,-3,4,6,-1,4],"shifted_pitches":[2,-1,-3,2,-3,2,-1,-4,2,-1,6,-3,4,6,-1,4],"swapped_pitches":[2,-1,-3,2,-3,2,-1,2,-3,-1,6,-3,4,6,-1,4],"shift_direction":-1,"question_num":41,"has_decoy":false},{"rt":12355,"stimulus":"[A] option 1, [L] option 2, [G] neither","key_press":76,"name":"choice","trial_type":"html-keyboard-response","trial_index":65,"time_elapsed":209650,"internal_node_id":"0.0-65.0","subject":"S1C1622","sona":"41813","block":6,"time":"2021-09-17T05:52:01.200Z","response":"2nd","certainty":"high","char":"L","transposition":1,"order":["shifted","swapped"],"probe_pitches":[7,5,8,10,8,10,9,10,12,14,8,11,3,7,15,12],"shifted_pitches":[7,5,8,10,8,10,9,10,13,14,8,11,3,7,15,12],"swapped_pitches":[7,5,8,10,8,10,9,12,10,14,8,11,3,7,15,12],"shift_direction":1,"question_num":51,"has_decoy":false},{"rt":8742.199999928474,"stimulus":"[A] option 1, [L] option 2, [G] neither","key_press":71,"name":"choice","trial_type":"html-keyboard-response","trial_index":76,"time_elapsed":244099,"internal_node_id":"0.0-76.0","subject":"S1C1622","sona":"41813","block":6,"time":"2021-09-17T05:52:01.200Z","response":"neither","certainty":"high","char":"G","transposition":3,"order":["shifted","swapped"],"probe_pitches":[9,14,9,12,4,3,6,11,3,8,13,3,6,11,5,4],"shifted_pitches":[9,14,9,12,4,3,6,10,3,8,13,3,6,11,5,4],"swapped_pitches":[9,14,9,12,4,3,6,3,11,8,13,3,6,11,5,4],"shift_direction":-1,"question_num":61,"has_decoy":false},{"rt":2795.8000000715256,"stimulus":"[A] option 1, [L] option 2, [G] neither","key_press":76,"name":"choice","trial_type":"html-keyboard-response","trial_index":87,"time_elapsed":271227,"internal_node_id":"0.0-87.0","subject":"S1C1622","sona":"41813","block":6,"time":"2021-09-17T05:52:01.200Z","response":"2nd","certainty":"high","char":"L","transposition":-1,"order":["shifted","swapped"],"probe_pitches":[12,15,12,13,7,5,9,15,4,12,4,7,10,8,10,11],"shifted_pitches":[12,15,12,13,7,5,9,14,4,12,4,7,10,8,10,11],"swapped_pitches":[12,15,12,13,7,5,9,4,15,12,4,7,10,8,10,11],"shift_direction":-1,"question_num":71,"has_decoy":false},{"rt":4173.900000095367,"stimulus":"[A] option 1, [L] option 2, [G] neither","key_press":71,"name":"choice","trial_type":"html-keyboard-response","trial_index":98,"time_elapsed":303136,"internal_node_id":"0.0-98.0","subject":"S1C1622","sona":"41813","block":6,"time":"2021-09-17T05:52:01.200Z","response":"neither","certainty":"high","char":"G","transposition":-3,"order":["shifted","swapped"],"probe_pitches":[2,4,7,4,2,7,0,2,7,0,7,9,-3,0,-3,9],"shifted_pitches":[2,4,7,4,2,7,0,2,8,0,7,9,-3,0,-3,9],"swapped_pitches":[2,4,7,4,2,7,0,7,2,0,7,9,-3,0,-3,9],"shift_direction":1,"question_num":81,"has_decoy":false},{"rt":5404.699999928474,"stimulus":"[A] option 1, [L] option 2, [G] neither","key_press":71,"name":"choice","trial_type":"html-keyboard-response","trial_index":109,"time_elapsed":333855,"internal_node_id":"0.0-109.0","subject":"S1C1622","sona":"41813","block":6,"time":"2021-09-17T05:52:01.200Z","response":"neither","certainty":"high","char":"G","transposition":-2,"order":["swapped","shifted"],"probe_pitches":[7,4,-1,7,9,-1,7,-1,4,-3,-1,2,-1,-3,7,2],"shifted_pitches":[7,4,-1,7,9,-1,7,-1,5,-3,-1,2,-1,-3,7,2],"swapped_pitches":[7,4,-1,7,9,-1,7,4,-1,-3,-1,2,-1,-3,7,2],"shift_direction":1,"question_num":91,"has_decoy":false},{"rt":590.8000000715256,"stimulus":"[A] option 1, [L] option 2, [G] neither","key_press":65,"name":"choice","trial_type":"html-keyboard-response","trial_index":120,"time_elapsed":356988,"internal_node_id":"0.0-120.0","subject":"S1C1622","sona":"41813","block":6,"time":"2021-09-17T05:52:01.200Z","response":"1st","certainty":"high","char":"A","transposition":-3,"order":["swapped","shifted"],"probe_pitches":[3,4,11,13,5,15,12,6,10,15,10,12,8,13,4,15],"shifted_pitches":[3,4,11,13,5,15,12,7,10,15,10,12,8,13,4,15],"swapped_pitches":[3,4,11,13,5,15,12,10,6,15,10,12,8,13,4,15],"shift_direction":1,"question_num":101,"has_decoy":false},{"rt":1337.8000000715256,"stimulus":"[A] option 1, [L] option 2, [G] neither","key_press":65,"name":"choice","trial_type":"html-keyboard-response","trial_index":131,"time_elapsed":382402,"internal_node_id":"0.0-131.0","subject":"S1C1622","sona":"41813","block":6,"time":"2021-09-17T05:52:01.200Z","response":"1st","certainty":"high","char":"A","transposition":0,"order":["shifted","swapped"],"probe_pitches":[13,15,9,14,13,5,13,7,15,11,10,11,12,4,3,7],"shifted_pitches":[13,15,9,14,13,5,13,6,15,11,10,11,12,4,3,7],"swapped_pitches":[13,15,9,14,13,5,13,15,7,11,10,11,12,4,3,7],"shift_direction":-1,"question_num":111,"has_decoy":false},{"rt":9256,"stimulus":"[A] option 1, [L] option 2, [G] neither","key_press":71,"name":"choice","trial_type":"html-keyboard-response","trial_index":142,"time_elapsed":418646,"internal_node_id":"0.0-142.0","subject":"S1C1622","sona":"41813","block":6,"time":"2021-09-17T05:52:01.200Z","response":"neither","certainty":"high","char":"G","transposition":-2,"order":["shifted","swapped"],"probe_pitches":[7,9,5,0,-3,0,5,7,0,9,-3,7,5,2,5,2],"shifted_pitches":[7,9,5,0,-3,0,5,6,0,9,-3,7,5,2,5,2],"swapped_pitches":[7,9,5,0,-3,0,5,0,7,9,-3,7,5,2,5,2],"shift_direction":-1,"question_num":121,"has_decoy":false},{"rt":8235.5,"stimulus":"[A] option 1, [L] option 2, [G] neither","key_press":76,"name":"choice","trial_type":"html-keyboard-response","trial_index":153,"time_elapsed":453322,"internal_node_id":"0.0-153.0","subject":"S1C1622","sona":"41813","block":6,"time":"2021-09-17T05:52:01.200Z","response":"2nd","certainty":"high","char":"L","transposition":-3,"order":["swapped","shifted"],"probe_pitches":[6,10,7,3,6,15,8,4,10,6,14,11,8,11,10,3],"shifted_pitches":[6,10,7,3,6,15,8,4,9,6,14,11,8,11,10,3],"swapped_pitches":[6,10,7,3,6,15,8,10,4,6,14,11,8,11,10,3],"shift_direction":-1,"question_num":131,"has_decoy":false},{"rt":5243,"stimulus":"[A] option 1, [L] option 2, [G] neither","key_press":71,"name":"choice","trial_type":"html-keyboard-response","trial_index":164,"time_elapsed":484863,"internal_node_id":"0.0-164.0","subject":"S1C1622","sona":"41813","block":6,"time":"2021-09-17T05:52:01.200Z","response":"neither","certainty":"high","char":"G","transposition":0,"order":["shifted","swapped"],"probe_pitches":[4,2,-3,-1,2,-3,-1,9,2,4,9,4,-1,4,6,9],"shifted_pitches":[4,2,-3,-1,2,-3,-1,9,3,4,9,4,-1,4,6,9],"swapped_pitches":[4,2,-3,-1,2,-3,-1,2,9,4,9,4,-1,4,6,9],"shift_direction":1,"question_num":141,"has_decoy":false},{"rt":2426.100000023842,"stimulus":"[A] option 1, [L] option 2, [G] neither","key_press":71,"name":"choice","trial_type":"html-keyboard-response","trial_index":175,"time_elapsed":511012,"internal_node_id":"0.0-175.0","subject":"S1C1622","sona":"41813","block":6,"time":"2021-09-17T05:52:01.200Z","response":"neither","certainty":"high","char":"G","transposition":-1,"order":["swapped","shifted"],"probe_pitches":[2,7,5,9,5,-3,5,-3,0,5,7,-3,2,0,9,0],"shifted_pitches":[2,7,5,9,5,-3,5,-4,0,5,7,-3,2,0,9,0],"swapped_pitches":[2,7,5,9,5,-3,5,0,-3,5,7,-3,2,0,9,0],"shift_direction":-1,"question_num":151,"has_decoy":false},{"rt":10756.100000023842,"stimulus":"[A] option 1, [L] option 2, [G] neither","key_press":76,"name":"choice","trial_type":"html-keyboard-response","trial_index":186,"time_elapsed":546441,"internal_node_id":"0.0-186.0","subject":"S1C1622","sona":"41813","block":6,"time":"2021-09-17T05:52:01.200Z","response":"2nd","certainty":"high","char":"L","transposition":2,"order":["swapped","shifted"],"probe_pitches":[10,13,11,3,10,5,9,7,3,15,11,15,5,7,11,12],"shifted_pitches":[10,13,11,3,10,5,9,8,3,15,11,15,5,7,11,12],"swapped_pitches":[10,13,11,3,10,5,9,3,7,15,11,15,5,7,11,12],"shift_direction":1,"question_num":161,"has_decoy":false},{"rt":4389.800000071526,"stimulus":"[A] option 1, [L] option 2, [G] neither","key_press":71,"name":"choice","trial_type":"html-keyboard-response","trial_index":197,"time_elapsed":574723,"internal_node_id":"0.0-197.0","subject":"S1C1622","sona":"41813","block":6,"time":"2021-09-17T05:52:01.200Z","response":"neither","certainty":"high","char":"G","transposition":2,"order":["swapped","shifted"],"probe_pitches":[2,4,9,7,2,7,2,9,-3,7,-1,2,4,2,-3,2],"shifted_pitches":[2,4,9,7,2,7,2,9,-4,7,-1,2,4,2,-3,2],"swapped_pitches":[2,4,9,7,2,7,2,-3,9,7,-1,2,4,2,-3,2],"shift_direction":-1,"question_num":171,"has_decoy":false},{"rt":2050.4000000953674,"stimulus":"[A] option 1, [L] option 2, [G] neither","key_press":76,"name":"choice","trial_type":"html-keyboard-response","trial_index":208,"time_elapsed":602136,"internal_node_id":"0.0-208.0","subject":"S1C1622","sona":"41813","block":6,"time":"2021-09-17T05:52:01.200Z","response":"2nd","certainty":"high","char":"L","transposition":-1,"order":["swapped","shifted"],"probe_pitches":[4,7,9,4,7,-3,4,0,-3,4,2,4,-3,0,9,2],"shifted_pitches":[4,7,9,4,7,-3,4,-1,-3,4,2,4,-3,0,9,2],"swapped_pitches":[4,7,9,4,7,-3,4,-3,0,4,2,4,-3,0,9,2],"shift_direction":-1,"question_num":181,"has_decoy":false},{"rt":857.7999999523163,"stimulus":"[A] option 1, [L] option 2, [G] neither","key_press":76,"name":"choice","trial_type":"html-keyboard-response","trial_index":219,"time_elapsed":627407,"internal_node_id":"0.0-219.0","subject":"S1C1622","sona":"41813","block":6,"time":"2021-09-17T05:52:01.200Z","response":"2nd","certainty":"high","char":"L","transposition":-2,"order":["swapped","shifted"],"probe_pitches":[6,10,11,3,10,9,3,14,13,3,15,3,10,6,3,11],"shifted_pitches":[6,10,11,3,10,9,3,14,12,3,15,3,10,6,3,11],"swapped_pitches":[6,10,11,3,10,9,3,13,14,3,15,3,10,6,3,11],"shift_direction":-1,"question_num":191,"has_decoy":false}]