[{"rt":5500.29999999702,"stimulus":"[A] option 1, [L] option 2, [G] neither","key_press":76,"name":"choice","trial_type":"html-keyboard-response","trial_index":10,"time_elapsed":28815,"internal_node_id":"0.0-10.0","subject":"S1C1658","sona":"41590","block":6,"time":"2021-09-23T22:01:36.880Z","response":"2nd","certainty":"high","char":"L","transposition":1,"order":["shifted","swapped"],"probe_pitches":[12,6,11,8,9,13,12,8,5,11,13,6,12,3,6,3],"shifted_pitches":[12,6,11,8,9,13,12,7,5,11,13,6,12,3,6,3],"swapped_pitches":[12,6,11,8,9,13,12,5,8,11,13,6,12,3,6,3],"shift_direction":-1,"question_num":1,"has_decoy":false},{"rt":7112.899999991059,"stimulus":"[A] option 1, [L] option 2, [G] neither","key_press":65,"name":"choice","trial_type":"html-keyboard-response","trial_index":21,"time_elapsed":67595,"internal_node_id":"0.0-21.0","subject":"S1C1658","sona":"41590","block":6,"time":"2021-09-23T22:01:36.880Z","response":"1st","certainty":"high","char":"A","transposition":-2,"order":["swapped","shifted"],"probe_pitches":[3,0,5,10,3,5,10,5,12,0,10,7,10,0,7,5],"shifted_pitches":[3,0,5,10,3,5,10,5,11,0,10,7,10,0,7,5],"swapped_pitches":[3,0,5,10,3,5,10,12,5,0,10,7,10,0,7,5],"shift_direction":-1,"question_num":11,"has_decoy":false},{"rt":4556.4000000059605,"stimulus":"[A] option 1, [L] option 2, [G] neither","key_press":76,"name":"choice","trial_type":"html-keyboard-response","trial_index":32,"time_elapsed":109923,"internal_node_id":"0.0-32.0","subject":"S1C1658","sona":"41590","block":6,"time":"2021-09-23T22:01:36.880Z","response":"2nd","certainty":"high","char":"L","transposition":2,"order":["shifted","swapped"],"probe_pitches":[8,4,5,7,14,4,14,12,9,11,12,2,7,9,4,9],"shifted_pitches":[8,4,5,7,14,4,14,13,9,11,12,2,7,9,4,9],"swapped_pitches":[8,4,5,7,14,4,14,9,12,11,12,2,7,9,4,9],"shift_direction":1,"question_num":21,"has_decoy":false},{"rt":4809,"stimulus":"[A] option 1, [L] option 2, [G] neither","key_press":76,"name":"choice","trial_type":"html-keyboard-response","trial_index":43,"time_elapsed":146351,"internal_node_id":"0.0-43.0","subject":"S1C1658","sona":"41590","block":6,"time":"2021-09-23T22:01:36.880Z","response":"2nd","certainty":"high","char":"L","transposition":-3,"order":["swapped","shifted"],"probe_pitches":[13,7,11,12,14,8,7,14,8,5,7,5,4,12,14,10],"shifted_pitches":[13,7,11,12,14,8,7,14,9,5,7,5,4,12,14,10],"swapped_pitches":[13,7,11,12,14,8,7,8,14,5,7,5,4,12,14,10],"shift_direction":1,"question_num":31,"has_decoy":false},{"rt":3477.300000011921,"stimulus":"[A] option 1, [L] option 2, [G] neither","key_press":65,"name":"choice","trial_type":"html-keyboard-response","trial_index":54,"time_elapsed":178080,"internal_node_id":"0.0-54.0","subject":"S1C1658","sona":"41590","block":6,"time":"2021-09-23T22:01:36.880Z","response":"1st","certainty":"high","char":"A","transposition":3,"order":["shifted","swapped"],"probe_pitches":[10,9,5,9,14,8,4,7,14,11,13,2,14,5,3,13],"shifted_pitches":[10,9,5,9,14,8,4,6,14,11,13,2,14,5,3,13],"swapped_pitches":[10,9,5,9,14,8,4,14,7,11,13,2,14,5,3,13],"shift_direction":-1,"question_num":41,"has_decoy":false},{"rt":3556.5999999940395,"stimulus":"[A] option 1, [L] option 2, [G] neither","key_press":76,"name":"choice","trial_type":"html-keyboard-response","trial_index":65,"time_elapsed":204207,"internal_node_id":"0.0-65.0","subject":"S1C1658","sona":"41590","block":6,"time":"2021-09-23T22:01:36.880Z","response":"2nd","certainty":"high","char":"L","transposition":-2,"order":["shifted","swapped"],"probe_pitches":[6,3,9,7,2,5,13,3,11,9,8,2,4,5,2,11],"shifted_pitches":[6,3,9,7,2,5,13,3,10,9,8,2,4,5,2,11],"swapped_pitches":[6,3,9,7,2,5,13,11,3,9,8,2,4,5,2,11],"shift_direction":-1,"question_num":51,"has_decoy":false},{"rt":1437.0999999940395,"stimulus":"[A] option 1, [L] option 2, [G] neither","key_press":65,"name":"choice","trial_type":"html-keyboard-response","trial_index":76,"time_elapsed":229351,"internal_node_id":"0.0-76.0","subject":"S1C1658","sona":"41590","block":6,"time":"2021-09-23T22:01:36.880Z","response":"1st","certainty":"high","char":"A","transposition":-1,"order":["shifted","swapped"],"probe_pitches":[5,2,7,2,0,10,7,12,5,2,5,10,7,5,12,10],"shifted_pitches":[5,2,7,2,0,10,7,12,6,2,5,10,7,5,12,10],"swapped_pitches":[5,2,7,2,0,10,7,5,12,2,5,10,7,5,12,10],"shift_direction":1,"question_num":61,"has_decoy":false},{"rt":361,"stimulus":"[A] option 1, [L] option 2, [G] neither","key_press":76,"name":"choice","trial_type":"html-keyboard-response","trial_index":87,"time_elapsed":252909,"internal_node_id":"0.0-87.0","subject":"S1C1658","sona":"41590","block":6,"time":"2021-09-23T22:01:36.880Z","response":"2nd","certainty":"high","char":"L","transposition":-3,"order":["shifted","swapped"],"probe_pitches":[12,7,10,3,10,12,3,0,5,3,10,0,12,5,0,3],"shifted_pitches":[12,7,10,3,10,12,3,0,6,3,10,0,12,5,0,3],"swapped_pitches":[12,7,10,3,10,12,3,5,0,3,10,0,12,5,0,3],"shift_direction":1,"question_num":71,"has_decoy":false},{"rt":3784.0999999940395,"stimulus":"[A] option 1, [L] option 2, [G] neither","key_press":65,"name":"choice","trial_type":"html-keyboard-response","trial_index":98,"time_elapsed":279068,"internal_node_id":"0.0-98.0","subject":"S1C1658","sona":"41590","block":6,"time":"2021-09-23T22:01:36.880Z","response":"1st","certainty":"high","char":"A","transposition":0,"order":["swapped","shifted"],"probe_pitches":[13,10,8,2,4,14,8,3,13,5,11,7,9,13,5,7],"shifted_pitches":[13,10,8,2,4,14,8,3,12,5,11,7,9,13,5,7],"swapped_pitches":[13,10,8,2,4,14,8,13,3,5,11,7,9,13,5,7],"shift_direction":-1,"question_num":81,"has_decoy":false},{"rt":854.2000000029802,"stimulus":"[A] option 1, [L] option 2, [G] neither","key_press":65,"name":"choice","trial_type":"html-keyboard-response","trial_index":109,"time_elapsed":303332,"internal_node_id":"0.0-109.0","subject":"S1C1658","sona":"41590","block":6,"time":"2021-09-23T22:01:36.880Z","response":"1st","certainty":"high","char":"A","transposition":-3,"order":["shifted","swapped"],"probe_pitches":[2,5,12,10,2,0,5,2,0,7,2,12,0,2,7,12],"shifted_pitches":[2,5,12,10,2,0,5,3,0,7,2,12,0,2,7,12],"swapped_pitches":[2,5,12,10,2,0,5,0,2,7,2,12,0,2,7,12],"shift_direction":1,"question_num":91,"has_decoy":false},{"rt":364,"stimulus":"[A] option 1, [L] option 2, [G] neither","key_press":76,"name":"choice","trial_type":"html-keyboard-response","trial_index":120,"time_elapsed":326826,"internal_node_id":"0.0-120.0","subject":"S1C1658","sona":"41590","block":6,"time":"2021-09-23T22:01:36.880Z","response":"2nd","certainty":"high","char":"L","transposition":-1,"order":["swapped","shifted"],"probe_pitches":[2,0,2,5,9,2,12,9,5,0,2,9,7,0,2,12],"shifted_pitches":[2,0,2,5,9,2,12,9,6,0,2,9,7,0,2,12],"swapped_pitches":[2,0,2,5,9,2,12,5,9,0,2,9,7,0,2,12],"shift_direction":1,"question_num":101,"has_decoy":false},{"rt":10674.20000000298,"stimulus":"[A] option 1, [L] option 2, [G] neither","key_press":65,"name":"choice","trial_type":"html-keyboard-response","trial_index":131,"time_elapsed":361231,"internal_node_id":"0.0-131.0","subject":"S1C1658","sona":"41590","block":6,"time":"2021-09-23T22:01:36.880Z","response":"1st","certainty":"high","char":"A","transposition":-1,"order":["swapped","shifted"],"probe_pitches":[2,3,8,6,13,6,11,7,3,8,3,8,7,12,5,10],"shifted_pitches":[2,3,8,6,13,6,11,7,4,8,3,8,7,12,5,10],"swapped_pitches":[2,3,8,6,13,6,11,3,7,8,3,8,7,12,5,10],"shift_direction":1,"question_num":111,"has_decoy":false},{"rt":13353.89999999106,"stimulus":"[A] option 1, [L] option 2, [G] neither","key_press":65,"name":"choice","trial_type":"html-keyboard-response","trial_index":142,"time_elapsed":398043,"internal_node_id":"0.0-142.0","subject":"S1C1658","sona":"41590","block":6,"time":"2021-09-23T22:01:36.880Z","response":"1st","certainty":"high","char":"A","transposition":3,"order":["swapped","shifted"],"probe_pitches":[9,7,2,7,4,2,12,0,4,7,2,4,7,4,12,0],"shifted_pitches":[9,7,2,7,4,2,12,0,3,7,2,4,7,4,12,0],"swapped_pitches":[9,7,2,7,4,2,12,4,0,7,2,4,7,4,12,0],"shift_direction":-1,"question_num":121,"has_decoy":false},{"rt":7685.5,"stimulus":"[A] option 1, [L] option 2, [G] neither","key_press":65,"name":"choice","trial_type":"html-keyboard-response","trial_index":153,"time_elapsed":431078,"internal_node_id":"0.0-153.0","subject":"S1C1658","sona":"41590","block":6,"time":"2021-09-23T22:01:36.880Z","response":"1st","certainty":"high","char":"A","transposition":0,"order":["swapped","shifted"],"probe_pitches":[2,0,2,4,2,0,9,4,2,7,0,4,0,12,0,4],"shifted_pitches":[2,0,2,4,2,0,9,3,2,7,0,4,0,12,0,4],"swapped_pitches":[2,0,2,4,2,0,9,2,4,7,0,4,0,12,0,4],"shift_direction":-1,"question_num":131,"has_decoy":false},{"rt":4289.29999999702,"stimulus":"[A] option 1, [L] option 2, [G] neither","key_press":76,"name":"choice","trial_type":"html-keyboard-response","trial_index":164,"time_elapsed":459740,"internal_node_id":"0.0-164.0","subject":"S1C1658","sona":"41590","block":6,"time":"2021-09-23T22:01:36.880Z","response":"2nd","certainty":"high","char":"L","transposition":-3,"order":["shifted","swapped"],"probe_pitches":[5,3,4,7,4,5,3,6,9,7,14,12,11,3,4,10],"shifted_pitches":[5,3,4,7,4,5,3,6,8,7,14,12,11,3,4,10],"swapped_pitches":[5,3,4,7,4,5,3,9,6,7,14,12,11,3,4,10],"shift_direction":-1,"question_num":141,"has_decoy":false},{"rt":7737.0999999940395,"stimulus":"[A] option 1, [L] option 2, [G] neither","key_press":76,"name":"choice","trial_type":"html-keyboard-response","trial_index":175,"time_elapsed":491257,"internal_node_id":"0.0-175.0","subject":"S1C1658","sona":"41590","block":6,"time":"2021-09-23T22:01:36.880Z","response":"2nd","certainty":"high","char":"L","transposition":2,"order":["shifted","swapped"],"probe_pitches":[8,12,8,5,0,8,0,5,12,3,10,0,12,10,8,0],"shifted_pitches":[8,12,8,5,0,8,0,6,12,3,10,0,12,10,8,0],"swapped_pitches":[8,12,8,5,0,8,0,12,5,3,10,0,12,10,8,0],"shift_direction":1,"question_num":151,"has_decoy":false},{"rt":478.80000001192093,"stimulus":"[A] option 1, [L] option 2, [G] neither","key_press":65,"name":"choice","trial_type":"html-keyboard-response","trial_index":186,"time_elapsed":515583,"internal_node_id":"0.0-186.0","subject":"S1C1658","sona":"41590","block":6,"time":"2021-09-23T22:01:36.880Z","response":"1st","certainty":"high","char":"A","transposition":-2,"order":["swapped","shifted"],"probe_pitches":[14,10,4,3,9,6,2,4,13,6,11,8,13,14,11,6],"shifted_pitches":[14,10,4,3,9,6,2,5,13,6,11,8,13,14,11,6],"swapped_pitches":[14,10,4,3,9,6,2,13,4,6,11,8,13,14,11,6],"shift_direction":1,"question_num":161,"has_decoy":false},{"rt":6573.5,"stimulus":"[A] option 1, [L] option 2, [G] neither","key_press":65,"name":"choice","trial_type":"html-keyboard-response","trial_index":197,"time_elapsed":545381,"internal_node_id":"0.0-197.0","subject":"S1C1658","sona":"41590","block":6,"time":"2021-09-23T22:01:36.880Z","response":"1st","certainty":"high","char":"A","transposition":-2,"order":["shifted","swapped"],"probe_pitches":[12,10,5,8,5,12,8,0,3,10,5,0,5,3,8,5],"shifted_pitches":[12,10,5,8,5,12,8,-1,3,10,5,0,5,3,8,5],"swapped_pitches":[12,10,5,8,5,12,8,3,0,10,5,0,5,3,8,5],"shift_direction":-1,"question_num":171,"has_decoy":false},{"rt":7432.70000000298,"stimulus":"[A] option 1, [L] option 2, [G] neither","key_press":65,"name":"choice","trial_type":"html-keyboard-response","trial_index":208,"time_elapsed":575736,"internal_node_id":"0.0-208.0","subject":"S1C1658","sona":"41590","block":6,"time":"2021-09-23T22:01:36.880Z","response":"1st","certainty":"high","char":"A","transposition":-1,"order":["swapped","shifted"],"probe_pitches":[9,8,10,8,7,8,6,10,13,4,13,9,8,2,12,2],"shifted_pitches":[9,8,10,8,7,8,6,11,13,4,13,9,8,2,12,2],"swapped_pitches":[9,8,10,8,7,8,6,13,10,4,13,9,8,2,12,2],"shift_direction":1,"question_num":181,"has_decoy":false},{"rt":2920.2000000029802,"stimulus":"[A] option 1, [L] option 2, [G] neither","key_press":76,"name":"choice","trial_type":"html-keyboard-response","trial_index":219,"time_elapsed":601324,"internal_node_id":"0.0-219.0","subject":"S1C1658","sona":"41590","block":6,"time":"2021-09-23T22:01:36.880Z","response":"2nd","certainty":"high","char":"L","transposition":1,"order":["swapped","shifted"],"probe_pitches":[9,12,9,2,0,5,0,12,7,0,7,12,9,0,12,9],"shifted_pitches":[9,12,9,2,0,5,0,11,7,0,7,12,9,0,12,9],"swapped_pitches":[9,12,9,2,0,5,0,7,12,0,7,12,9,0,12,9],"shift_direction":-1,"question_num":191,"has_decoy":false}]