[{"rt":12398.09999999404,"stimulus":"[A] option 1, [L] option 2, [G] neither","key_press":65,"name":"choice","trial_type":"html-keyboard-response","trial_index":15,"time_elapsed":74532,"internal_node_id":"0.0-15.0","response":"1st","certainty":"high","char":"A","transposition":-3,"order":["swapped","shifted"],"probe_pitches":[0,6,3,1,7,0,7,5,10,9,10,4,5,8,2,10],"shifted_pitches":[0,6,3,1,7,0,7,5,11,9,10,4,5,8,2,10],"swapped_pitches":[0,6,3,1,7,0,7,10,5,9,10,4,5,8,2,10],"shift_direction":1,"question_num":1,"has_decoy":false,"subject":"S1C1658","sona":"41590","block":1,"time":"2021-09-23T21:07:09.118Z"},{"rt":8596.89999999106,"stimulus":"[A] option 1, [L] option 2, [G] neither","key_press":76,"name":"choice","trial_type":"html-keyboard-response","trial_index":26,"time_elapsed":107775,"internal_node_id":"0.0-26.0","response":"2nd","certainty":"high","char":"L","transposition":2,"order":["swapped","shifted"],"probe_pitches":[12,11,10,6,5,12,8,4,1,12,0,5,8,2,1,5],"shifted_pitches":[12,11,10,6,5,12,8,3,1,12,0,5,8,2,1,5],"swapped_pitches":[12,11,10,6,5,12,8,1,4,12,0,5,8,2,1,5],"shift_direction":-1,"question_num":11,"has_decoy":false,"subject":"S1C1658","sona":"41590","block":1,"time":"2021-09-23T21:07:09.118Z"},{"rt":3169.7999999970198,"stimulus":"[A] option 1, [L] option 2, [G] neither","key_press":76,"name":"choice","trial_type":"html-keyboard-response","trial_index":37,"time_elapsed":135088,"internal_node_id":"0.0-37.0","response":"2nd","certainty":"high","char":"L","transposition":-1,"order":["shifted","swapped"],"probe_pitches":[5,3,1,6,8,3,7,10,0,2,4,3,7,4,10,6],"shifted_pitches":[5,3,1,6,8,3,7,9,0,2,4,3,7,4,10,6],"swapped_pitches":[5,3,1,6,8,3,7,0,10,2,4,3,7,4,10,6],"shift_direction":-1,"question_num":21,"has_decoy":false,"subject":"S1C1658","sona":"41590","block":1,"time":"2021-09-23T21:07:09.118Z"},{"rt":1917.2000000029802,"stimulus":"[A] option 1, [L] option 2, [G] neither","key_press":65,"name":"choice","trial_type":"html-keyboard-response","trial_index":48,"time_elapsed":160528,"internal_node_id":"0.0-48.0","response":"1st","certainty":"high","char":"A","transposition":2,"order":["swapped","shifted"],"probe_pitches":[2,5,9,12,14,5,7,12,2,7,12,7,9,5,2,7],"shifted_pitches":[2,5,9,12,14,5,7,13,2,7,12,7,9,5,2,7],"swapped_pitches":[2,5,9,12,14,5,7,2,12,7,12,7,9,5,2,7],"shift_direction":1,"question_num":31,"has_decoy":false,"subject":"S1C1658","sona":"41590","block":1,"time":"2021-09-23T21:07:09.118Z"},{"rt":4329.4000000059605,"stimulus":"[A] option 1, [L] option 2, [G] neither","key_press":76,"name":"choice","trial_type":"html-keyboard-response","trial_index":59,"time_elapsed":191393,"internal_node_id":"0.0-59.0","response":"2nd","certainty":"high","char":"L","transposition":-1,"order":["shifted","swapped"],"probe_pitches":[11,12,6,3,0,9,4,6,12,2,10,12,10,11,8,3],"shifted_pitches":[11,12,6,3,0,9,4,5,12,2,10,12,10,11,8,3],"swapped_pitches":[11,12,6,3,0,9,4,12,6,2,10,12,10,11,8,3],"shift_direction":-1,"question_num":41,"has_decoy":false,"subject":"S1C1658","sona":"41590","block":1,"time":"2021-09-23T21:07:09.118Z"},{"rt":901.5,"stimulus":"[A] option 1, [L] option 2, [G] neither","key_press":76,"name":"choice","trial_type":"html-keyboard-response","trial_index":70,"time_elapsed":224959,"internal_node_id":"0.0-70.0","response":"2nd","certainty":"high","char":"L","transposition":3,"order":["shifted","swapped"],"probe_pitches":[11,6,9,2,4,2,11,14,4,9,11,2,14,9,11,9],"shifted_pitches":[11,6,9,2,4,2,11,15,4,9,11,2,14,9,11,9],"swapped_pitches":[11,6,9,2,4,2,11,4,14,9,11,2,14,9,11,9],"shift_direction":1,"question_num":51,"has_decoy":false,"subject":"S1C1658","sona":"41590","block":1,"time":"2021-09-23T21:07:09.118Z"},{"rt":869.7999999970198,"stimulus":"[A] option 1, [L] option 2, [G] neither","key_press":65,"name":"choice","trial_type":"html-keyboard-response","trial_index":81,"time_elapsed":253868,"internal_node_id":"0.0-81.0","response":"1st","certainty":"high","char":"A","transposition":1,"order":["swapped","shifted"],"probe_pitches":[2,7,0,7,1,10,5,1,7,0,12,4,12,3,9,12],"shifted_pitches":[2,7,0,7,1,10,5,1,6,0,12,4,12,3,9,12],"swapped_pitches":[2,7,0,7,1,10,5,7,1,0,12,4,12,3,9,12],"shift_direction":-1,"question_num":61,"has_decoy":false,"subject":"S1C1658","sona":"41590","block":1,"time":"2021-09-23T21:07:09.118Z"},{"rt":470.09999999403954,"stimulus":"[A] option 1, [L] option 2, [G] neither","key_press":76,"name":"choice","trial_type":"html-keyboard-response","trial_index":92,"time_elapsed":277425,"internal_node_id":"0.0-92.0","response":"2nd","certainty":"high","char":"L","transposition":-3,"order":["shifted","swapped"],"probe_pitches":[2,6,9,11,4,6,4,9,11,2,6,11,6,11,6,11],"shifted_pitches":[2,6,9,11,4,6,4,8,11,2,6,11,6,11,6,11],"swapped_pitches":[2,6,9,11,4,6,4,11,9,2,6,11,6,11,6,11],"shift_direction":-1,"question_num":71,"has_decoy":false,"subject":"S1C1658","sona":"41590","block":1,"time":"2021-09-23T21:07:09.118Z"},{"rt":960.3000000119209,"stimulus":"[A] option 1, [L] option 2, [G] neither","key_press":76,"name":"choice","trial_type":"html-keyboard-response","trial_index":103,"time_elapsed":300859,"internal_node_id":"0.0-103.0","response":"2nd","certainty":"high","char":"L","transposition":-2,"order":["shifted","swapped"],"probe_pitches":[11,9,4,11,9,11,7,4,14,9,14,11,7,2,9,11],"shifted_pitches":[11,9,4,11,9,11,7,3,14,9,14,11,7,2,9,11],"swapped_pitches":[11,9,4,11,9,11,7,14,4,9,14,11,7,2,9,11],"shift_direction":-1,"question_num":81,"has_decoy":false,"subject":"S1C1658","sona":"41590","block":1,"time":"2021-09-23T21:07:09.118Z"},{"rt":464.90000000596046,"stimulus":"[A] option 1, [L] option 2, [G] neither","key_press":76,"name":"choice","trial_type":"html-keyboard-response","trial_index":114,"time_elapsed":324379,"internal_node_id":"0.0-114.0","response":"2nd","certainty":"high","char":"L","transposition":-1,"order":["swapped","shifted"],"probe_pitches":[14,9,2,9,4,12,4,2,14,9,12,4,7,4,2,12],"shifted_pitches":[14,9,2,9,4,12,4,2,15,9,12,4,7,4,2,12],"swapped_pitches":[14,9,2,9,4,12,4,14,2,9,12,4,7,4,2,12],"shift_direction":1,"question_num":91,"has_decoy":false,"subject":"S1C1658","sona":"41590","block":1,"time":"2021-09-23T21:07:09.118Z"},{"rt":978,"stimulus":"[A] option 1, [L] option 2, [G] neither","key_press":65,"name":"choice","trial_type":"html-keyboard-response","trial_index":125,"time_elapsed":400418,"internal_node_id":"0.0-125.0","response":"1st","certainty":"high","char":"A","transposition":0,"order":["swapped","shifted"],"probe_pitches":[2,3,2,0,2,5,11,6,9,12,10,4,11,3,1,0],"shifted_pitches":[2,3,2,0,2,5,11,7,9,12,10,4,11,3,1,0],"swapped_pitches":[2,3,2,0,2,5,11,9,6,12,10,4,11,3,1,0],"shift_direction":1,"question_num":101,"has_decoy":false,"subject":"S1C1658","sona":"41590","block":1,"time":"2021-09-23T21:07:09.118Z"},{"rt":522,"stimulus":"[A] option 1, [L] option 2, [G] neither","key_press":76,"name":"choice","trial_type":"html-keyboard-response","trial_index":136,"time_elapsed":427808,"internal_node_id":"0.0-136.0","response":"2nd","certainty":"high","char":"L","transposition":3,"order":["shifted","swapped"],"probe_pitches":[10,4,11,12,3,4,6,5,1,12,5,3,10,12,6,5],"shifted_pitches":[10,4,11,12,3,4,6,5,2,12,5,3,10,12,6,5],"swapped_pitches":[10,4,11,12,3,4,6,1,5,12,5,3,10,12,6,5],"shift_direction":1,"question_num":111,"has_decoy":false,"subject":"S1C1658","sona":"41590","block":1,"time":"2021-09-23T21:07:09.118Z"},{"rt":400.40000000596046,"stimulus":"[A] option 1, [L] option 2, [G] neither","key_press":76,"name":"choice","trial_type":"html-keyboard-response","trial_index":147,"time_elapsed":452299,"internal_node_id":"0.0-147.0","response":"2nd","certainty":"high","char":"L","transposition":-2,"order":["shifted","swapped"],"probe_pitches":[7,3,9,6,3,1,8,3,5,1,2,1,7,10,0,8],"shifted_pitches":[7,3,9,6,3,1,8,3,4,1,2,1,7,10,0,8],"swapped_pitches":[7,3,9,6,3,1,8,5,3,1,2,1,7,10,0,8],"shift_direction":-1,"question_num":121,"has_decoy":false,"subject":"S1C1658","sona":"41590","block":1,"time":"2021-09-23T21:07:09.118Z"},{"rt":552,"stimulus":"[A] option 1, [L] option 2, [G] neither","key_press":76,"name":"choice","trial_type":"html-keyboard-response","trial_index":158,"time_elapsed":475783,"internal_node_id":"0.0-158.0","response":"2nd","certainty":"high","char":"L","transposition":-3,"order":["swapped","shifted"],"probe_pitches":[1,6,7,6,12,5,12,7,0,11,1,0,4,5,4,1],"shifted_pitches":[1,6,7,6,12,5,12,8,0,11,1,0,4,5,4,1],"swapped_pitches":[1,6,7,6,12,5,12,0,7,11,1,0,4,5,4,1],"shift_direction":1,"question_num":131,"has_decoy":false,"subject":"S1C1658","sona":"41590","block":1,"time":"2021-09-23T21:07:09.118Z"},{"rt":3694.5,"stimulus":"[A] option 1, [L] option 2, [G] neither","key_press":65,"name":"choice","trial_type":"html-keyboard-response","trial_index":169,"time_elapsed":503411,"internal_node_id":"0.0-169.0","response":"1st","certainty":"high","char":"A","transposition":-2,"order":["swapped","shifted"],"probe_pitches":[9,4,2,9,4,9,11,7,14,4,11,7,4,14,2,14],"shifted_pitches":[9,4,2,9,4,9,11,7,15,4,11,7,4,14,2,14],"swapped_pitches":[9,4,2,9,4,9,11,14,7,4,11,7,4,14,2,14],"shift_direction":1,"question_num":141,"has_decoy":false,"subject":"S1C1658","sona":"41590","block":1,"time":"2021-09-23T21:07:09.118Z"},{"rt":3302,"stimulus":"[A] option 1, [L] option 2, [G] neither","key_press":76,"name":"choice","trial_type":"html-keyboard-response","trial_index":180,"time_elapsed":530553,"internal_node_id":"0.0-180.0","response":"2nd","certainty":"high","char":"L","transposition":-3,"order":["shifted","swapped"],"probe_pitches":[12,9,2,7,2,7,14,4,9,12,2,4,7,12,7,12],"shifted_pitches":[12,9,2,7,2,7,14,3,9,12,2,4,7,12,7,12],"swapped_pitches":[12,9,2,7,2,7,14,9,4,12,2,4,7,12,7,12],"shift_direction":-1,"question_num":151,"has_decoy":false,"subject":"S1C1658","sona":"41590","block":1,"time":"2021-09-23T21:07:09.118Z"},{"rt":569,"stimulus":"[A] option 1, [L] option 2, [G] neither","key_press":76,"name":"choice","trial_type":"html-keyboard-response","trial_index":191,"time_elapsed":570257,"internal_node_id":"0.0-191.0","response":"2nd","certainty":"high","char":"L","transposition":-2,"order":["shifted","swapped"],"probe_pitches":[9,8,1,0,4,11,12,1,9,7,2,6,12,9,1,4],"shifted_pitches":[9,8,1,0,4,11,12,1,10,7,2,6,12,9,1,4],"swapped_pitches":[9,8,1,0,4,11,12,9,1,7,2,6,12,9,1,4],"shift_direction":1,"question_num":161,"has_decoy":false,"subject":"S1C1658","sona":"41590","block":1,"time":"2021-09-23T21:07:09.118Z"},{"rt":366.90000000596046,"stimulus":"[A] option 1, [L] option 2, [G] neither","key_press":76,"name":"choice","trial_type":"html-keyboard-response","trial_index":202,"time_elapsed":594374,"internal_node_id":"0.0-202.0","response":"2nd","certainty":"high","char":"L","transposition":1,"order":["shifted","swapped"],"probe_pitches":[2,5,9,12,7,5,12,9,14,2,14,2,7,12,7,2],"shifted_pitches":[2,5,9,12,7,5,12,9,13,2,14,2,7,12,7,2],"swapped_pitches":[2,5,9,12,7,5,12,14,9,2,14,2,7,12,7,2],"shift_direction":-1,"question_num":171,"has_decoy":false,"subject":"S1C1658","sona":"41590","block":1,"time":"2021-09-23T21:07:09.118Z"},{"rt":1160.7999999970198,"stimulus":"[A] option 1, [L] option 2, [G] neither","key_press":65,"name":"choice","trial_type":"html-keyboard-response","trial_index":213,"time_elapsed":623956,"internal_node_id":"0.0-213.0","response":"1st","certainty":"high","char":"A","transposition":-1,"order":["swapped","shifted"],"probe_pitches":[2,5,10,2,7,2,12,7,10,12,2,12,7,10,12,2],"shifted_pitches":[2,5,10,2,7,2,12,7,11,12,2,12,7,10,12,2],"swapped_pitches":[2,5,10,2,7,2,12,10,7,12,2,12,7,10,12,2],"shift_direction":1,"question_num":181,"has_decoy":false,"subject":"S1C1658","sona":"41590","block":1,"time":"2021-09-23T21:07:09.118Z"},{"rt":3464.2000000029802,"stimulus":"[A] option 1, [L] option 2, [G] neither","key_press":76,"name":"choice","trial_type":"html-keyboard-response","trial_index":224,"time_elapsed":650771,"internal_node_id":"0.0-224.0","response":"2nd","certainty":"high","char":"L","transposition":0,"order":["swapped","shifted"],"probe_pitches":[5,2,7,14,5,7,2,14,12,10,14,10,2,12,10,12],"shifted_pitches":[5,2,7,14,5,7,2,14,11,10,14,10,2,12,10,12],"swapped_pitches":[5,2,7,14,5,7,2,12,14,10,14,10,2,12,10,12],"shift_direction":-1,"question_num":191,"has_decoy":false,"subject":"S1C1658","sona":"41590","block":1,"time":"2021-09-23T21:07:09.118Z"}]