[{"rt":2458.5,"stimulus":"[A] option 1, [L] option 2, [G] neither","key_press":65,"name":"choice","trial_type":"html-keyboard-response","trial_index":10,"time_elapsed":29545,"internal_node_id":"0.0-10.0","subject":"S1C1658","sona":"41590","block":2,"time":"2021-09-23T21:18:16.707Z","response":"1st","certainty":"high","char":"A","transposition":-2,"order":["shifted","swapped"],"probe_pitches":[10,7,14,12,5,10,12,2,14,5,2,5,2,12,14,5],"shifted_pitches":[10,7,14,12,5,10,12,1,14,5,2,5,2,12,14,5],"swapped_pitches":[10,7,14,12,5,10,12,14,2,5,2,5,2,12,14,5],"shift_direction":-1,"question_num":1,"has_decoy":false},{"rt":622.5999999940395,"stimulus":"[A] option 1, [L] option 2, [G] neither","key_press":76,"name":"choice","trial_type":"html-keyboard-response","trial_index":21,"time_elapsed":60284,"internal_node_id":"0.0-21.0","subject":"S1C1658","sona":"41590","block":2,"time":"2021-09-23T21:18:16.707Z","response":"2nd","certainty":"high","char":"L","transposition":-1,"order":["swapped","shifted"],"probe_pitches":[9,6,9,4,9,4,6,11,4,2,4,11,6,9,2,4],"shifted_pitches":[9,6,9,4,9,4,6,11,5,2,4,11,6,9,2,4],"swapped_pitches":[9,6,9,4,9,4,6,4,11,2,4,11,6,9,2,4],"shift_direction":1,"question_num":11,"has_decoy":false},{"rt":438.69999998807907,"stimulus":"[A] option 1, [L] option 2, [G] neither","key_press":65,"name":"choice","trial_type":"html-keyboard-response","trial_index":32,"time_elapsed":113584,"internal_node_id":"0.0-32.0","subject":"S1C1658","sona":"41590","block":2,"time":"2021-09-23T21:18:16.707Z","response":"1st","certainty":"high","char":"A","transposition":-3,"order":["swapped","shifted"],"probe_pitches":[4,2,4,9,14,11,4,2,7,4,2,7,9,14,2,11],"shifted_pitches":[4,2,4,9,14,11,4,2,6,4,2,7,9,14,2,11],"swapped_pitches":[4,2,4,9,14,11,4,7,2,4,2,7,9,14,2,11],"shift_direction":-1,"question_num":21,"has_decoy":false},{"rt":821.7000000029802,"stimulus":"[A] option 1, [L] option 2, [G] neither","key_press":65,"name":"choice","trial_type":"html-keyboard-response","trial_index":43,"time_elapsed":146137,"internal_node_id":"0.0-43.0","subject":"S1C1658","sona":"41590","block":2,"time":"2021-09-23T21:18:16.707Z","response":"1st","certainty":"high","char":"A","transposition":-2,"order":["swapped","shifted"],"probe_pitches":[9,4,11,14,11,7,11,9,7,11,9,11,14,11,2,9],"shifted_pitches":[9,4,11,14,11,7,11,9,6,11,9,11,14,11,2,9],"swapped_pitches":[9,4,11,14,11,7,11,7,9,11,9,11,14,11,2,9],"shift_direction":-1,"question_num":31,"has_decoy":false},{"rt":630.2000000029802,"stimulus":"[A] option 1, [L] option 2, [G] neither","key_press":76,"name":"choice","trial_type":"html-keyboard-response","trial_index":54,"time_elapsed":171929,"internal_node_id":"0.0-54.0","subject":"S1C1658","sona":"41590","block":2,"time":"2021-09-23T21:18:16.707Z","response":"2nd","certainty":"high","char":"L","transposition":-3,"order":["shifted","swapped"],"probe_pitches":[8,7,2,6,8,3,13,1,3,6,5,3,9,3,13,8],"shifted_pitches":[8,7,2,6,8,3,13,1,4,6,5,3,9,3,13,8],"swapped_pitches":[8,7,2,6,8,3,13,3,1,6,5,3,9,3,13,8],"shift_direction":1,"question_num":41,"has_decoy":false},{"rt":391,"stimulus":"[A] option 1, [L] option 2, [G] neither","key_press":76,"name":"choice","trial_type":"html-keyboard-response","trial_index":65,"time_elapsed":195051,"internal_node_id":"0.0-65.0","subject":"S1C1658","sona":"41590","block":2,"time":"2021-09-23T21:18:16.707Z","response":"2nd","certainty":"high","char":"L","transposition":-3,"order":["swapped","shifted"],"probe_pitches":[2,4,11,4,2,9,11,9,4,6,11,9,2,14,9,14],"shifted_pitches":[2,4,11,4,2,9,11,10,4,6,11,9,2,14,9,14],"swapped_pitches":[2,4,11,4,2,9,11,4,9,6,11,9,2,14,9,14],"shift_direction":1,"question_num":51,"has_decoy":false},{"rt":6597.5999999940395,"stimulus":"[A] option 1, [L] option 2, [G] neither","key_press":76,"name":"choice","trial_type":"html-keyboard-response","trial_index":76,"time_elapsed":230566,"internal_node_id":"0.0-76.0","subject":"S1C1658","sona":"41590","block":2,"time":"2021-09-23T21:18:16.707Z","response":"2nd","certainty":"high","char":"L","transposition":3,"order":["swapped","shifted"],"probe_pitches":[2,6,3,5,1,7,12,7,9,2,9,3,2,3,1,9],"shifted_pitches":[2,6,3,5,1,7,12,8,9,2,9,3,2,3,1,9],"swapped_pitches":[2,6,3,5,1,7,12,9,7,2,9,3,2,3,1,9],"shift_direction":1,"question_num":61,"has_decoy":false},{"rt":477.5,"stimulus":"[A] option 1, [L] option 2, [G] neither","key_press":76,"name":"choice","trial_type":"html-keyboard-response","trial_index":87,"time_elapsed":257982,"internal_node_id":"0.0-87.0","subject":"S1C1658","sona":"41590","block":2,"time":"2021-09-23T21:18:16.707Z","response":"2nd","certainty":"high","char":"L","transposition":-2,"order":["shifted","swapped"],"probe_pitches":[8,5,3,9,5,8,12,11,9,8,4,9,4,6,1,3],"shifted_pitches":[8,5,3,9,5,8,12,10,9,8,4,9,4,6,1,3],"swapped_pitches":[8,5,3,9,5,8,12,9,11,8,4,9,4,6,1,3],"shift_direction":-1,"question_num":71,"has_decoy":false},{"rt":4073,"stimulus":"[A] option 1, [L] option 2, [G] neither","key_press":76,"name":"choice","trial_type":"html-keyboard-response","trial_index":98,"time_elapsed":300334,"internal_node_id":"0.0-98.0","subject":"S1C1658","sona":"41590","block":2,"time":"2021-09-23T21:18:16.707Z","response":"2nd","certainty":"high","char":"L","transposition":2,"order":["shifted","swapped"],"probe_pitches":[5,2,7,2,5,7,14,12,5,10,14,12,2,7,12,10],"shifted_pitches":[5,2,7,2,5,7,14,13,5,10,14,12,2,7,12,10],"swapped_pitches":[5,2,7,2,5,7,14,5,12,10,14,12,2,7,12,10],"shift_direction":1,"question_num":81,"has_decoy":false},{"rt":461.70000000298023,"stimulus":"[A] option 1, [L] option 2, [G] neither","key_press":65,"name":"choice","trial_type":"html-keyboard-response","trial_index":109,"time_elapsed":327921,"internal_node_id":"0.0-109.0","subject":"S1C1658","sona":"41590","block":2,"time":"2021-09-23T21:18:16.707Z","response":"1st","certainty":"high","char":"A","transposition":2,"order":["shifted","swapped"],"probe_pitches":[2,8,13,5,4,10,12,2,6,12,6,2,4,6,10,3],"shifted_pitches":[2,8,13,5,4,10,12,2,7,12,6,2,4,6,10,3],"swapped_pitches":[2,8,13,5,4,10,12,6,2,12,6,2,4,6,10,3],"shift_direction":1,"question_num":91,"has_decoy":false},{"rt":396,"stimulus":"[A] option 1, [L] option 2, [G] neither","key_press":76,"name":"choice","trial_type":"html-keyboard-response","trial_index":120,"time_elapsed":350911,"internal_node_id":"0.0-120.0","subject":"S1C1658","sona":"41590","block":2,"time":"2021-09-23T21:18:16.707Z","response":"2nd","certainty":"high","char":"L","transposition":-1,"order":["shifted","swapped"],"probe_pitches":[12,9,12,14,7,14,9,7,2,14,2,5,14,7,2,7],"shifted_pitches":[12,9,12,14,7,14,9,8,2,14,2,5,14,7,2,7],"swapped_pitches":[12,9,12,14,7,14,9,2,7,14,2,5,14,7,2,7],"shift_direction":1,"question_num":101,"has_decoy":false},{"rt":393.70000000298023,"stimulus":"[A] option 1, [L] option 2, [G] neither","key_press":76,"name":"choice","trial_type":"html-keyboard-response","trial_index":131,"time_elapsed":384967,"internal_node_id":"0.0-131.0","subject":"S1C1658","sona":"41590","block":2,"time":"2021-09-23T21:18:16.707Z","response":"2nd","certainty":"high","char":"L","transposition":1,"order":["swapped","shifted"],"probe_pitches":[11,12,11,4,1,5,13,9,2,5,8,10,5,11,8,7],"shifted_pitches":[11,12,11,4,1,5,13,9,3,5,8,10,5,11,8,7],"swapped_pitches":[11,12,11,4,1,5,13,2,9,5,8,10,5,11,8,7],"shift_direction":1,"question_num":111,"has_decoy":false},{"rt":436.79999999701977,"stimulus":"[A] option 1, [L] option 2, [G] neither","key_press":65,"name":"choice","trial_type":"html-keyboard-response","trial_index":142,"time_elapsed":409905,"internal_node_id":"0.0-142.0","subject":"S1C1658","sona":"41590","block":2,"time":"2021-09-23T21:18:16.707Z","response":"1st","certainty":"high","char":"A","transposition":0,"order":["swapped","shifted"],"probe_pitches":[4,1,2,1,3,4,1,8,10,5,13,7,3,12,3,4],"shifted_pitches":[4,1,2,1,3,4,1,8,11,5,13,7,3,12,3,4],"swapped_pitches":[4,1,2,1,3,4,1,10,8,5,13,7,3,12,3,4],"shift_direction":1,"question_num":121,"has_decoy":false},{"rt":5350.899999991059,"stimulus":"[A] option 1, [L] option 2, [G] neither","key_press":76,"name":"choice","trial_type":"html-keyboard-response","trial_index":153,"time_elapsed":439666,"internal_node_id":"0.0-153.0","subject":"S1C1658","sona":"41590","block":2,"time":"2021-09-23T21:18:16.707Z","response":"2nd","certainty":"high","char":"L","transposition":-1,"order":["shifted","swapped"],"probe_pitches":[8,10,7,6,3,8,5,10,11,13,7,13,10,6,8,6],"shifted_pitches":[8,10,7,6,3,8,5,9,11,13,7,13,10,6,8,6],"swapped_pitches":[8,10,7,6,3,8,5,11,10,13,7,13,10,6,8,6],"shift_direction":-1,"question_num":131,"has_decoy":false},{"rt":9830.29999999702,"stimulus":"[A] option 1, [L] option 2, [G] neither","key_press":76,"name":"choice","trial_type":"html-keyboard-response","trial_index":164,"time_elapsed":480481,"internal_node_id":"0.0-164.0","subject":"S1C1658","sona":"41590","block":2,"time":"2021-09-23T21:18:16.707Z","response":"2nd","certainty":"high","char":"L","transposition":3,"order":["shifted","swapped"],"probe_pitches":[12,9,4,9,2,4,2,14,7,9,12,4,7,9,7,12],"shifted_pitches":[12,9,4,9,2,4,2,14,6,9,12,4,7,9,7,12],"swapped_pitches":[12,9,4,9,2,4,2,7,14,9,12,4,7,9,7,12],"shift_direction":-1,"question_num":141,"has_decoy":false},{"rt":5741.79999999702,"stimulus":"[A] option 1, [L] option 2, [G] neither","key_press":65,"name":"choice","trial_type":"html-keyboard-response","trial_index":175,"time_elapsed":511063,"internal_node_id":"0.0-175.0","subject":"S1C1658","sona":"41590","block":2,"time":"2021-09-23T21:18:16.707Z","response":"1st","certainty":"high","char":"A","transposition":1,"order":["swapped","shifted"],"probe_pitches":[14,12,9,12,9,12,7,5,12,7,12,2,9,7,14,2],"shifted_pitches":[14,12,9,12,9,12,7,5,11,7,12,2,9,7,14,2],"swapped_pitches":[14,12,9,12,9,12,7,12,5,7,12,2,9,7,14,2],"shift_direction":-1,"question_num":151,"has_decoy":false},{"rt":3950.9000000059605,"stimulus":"[A] option 1, [L] option 2, [G] neither","key_press":65,"name":"choice","trial_type":"html-keyboard-response","trial_index":186,"time_elapsed":544243,"internal_node_id":"0.0-186.0","subject":"S1C1658","sona":"41590","block":2,"time":"2021-09-23T21:18:16.707Z","response":"1st","certainty":"high","char":"A","transposition":0,"order":["shifted","swapped"],"probe_pitches":[4,9,2,9,4,7,9,14,4,12,14,2,14,4,7,12],"shifted_pitches":[4,9,2,9,4,7,9,15,4,12,14,2,14,4,7,12],"swapped_pitches":[4,9,2,9,4,7,9,4,14,12,14,2,14,4,7,12],"shift_direction":1,"question_num":161,"has_decoy":false},{"rt":8685.90000000596,"stimulus":"[A] option 1, [L] option 2, [G] neither","key_press":76,"name":"choice","trial_type":"html-keyboard-response","trial_index":197,"time_elapsed":590400,"internal_node_id":"0.0-197.0","subject":"S1C1658","sona":"41590","block":2,"time":"2021-09-23T21:18:16.707Z","response":"2nd","certainty":"high","char":"L","transposition":-2,"order":["swapped","shifted"],"probe_pitches":[1,2,4,7,6,3,11,13,1,8,4,3,6,5,2,6],"shifted_pitches":[1,2,4,7,6,3,11,12,1,8,4,3,6,5,2,6],"swapped_pitches":[1,2,4,7,6,3,11,1,13,8,4,3,6,5,2,6],"shift_direction":-1,"question_num":171,"has_decoy":false},{"rt":2286.4000000059605,"stimulus":"[A] option 1, [L] option 2, [G] neither","key_press":76,"name":"choice","trial_type":"html-keyboard-response","trial_index":208,"time_elapsed":629482,"internal_node_id":"0.0-208.0","subject":"S1C1658","sona":"41590","block":2,"time":"2021-09-23T21:18:16.707Z","response":"2nd","certainty":"high","char":"L","transposition":-1,"order":["swapped","shifted"],"probe_pitches":[8,11,9,4,10,13,12,1,7,8,9,5,8,4,11,9],"shifted_pitches":[8,11,9,4,10,13,12,1,6,8,9,5,8,4,11,9],"swapped_pitches":[8,11,9,4,10,13,12,7,1,8,9,5,8,4,11,9],"shift_direction":-1,"question_num":181,"has_decoy":false},{"rt":4986.0999999940395,"stimulus":"[A] option 1, [L] option 2, [G] neither","key_press":76,"name":"choice","trial_type":"html-keyboard-response","trial_index":219,"time_elapsed":662068,"internal_node_id":"0.0-219.0","subject":"S1C1658","sona":"41590","block":2,"time":"2021-09-23T21:18:16.707Z","response":"2nd","certainty":"high","char":"L","transposition":-3,"order":["shifted","swapped"],"probe_pitches":[7,11,10,9,1,3,11,6,10,7,8,1,2,10,2,1],"shifted_pitches":[7,11,10,9,1,3,11,5,10,7,8,1,2,10,2,1],"swapped_pitches":[7,11,10,9,1,3,11,10,6,7,8,1,2,10,2,1],"shift_direction":-1,"question_num":191,"has_decoy":false}]