[{"rt":10562.199999988079,"stimulus":"[A] option 1, [L] option 2, [G] neither","key_press":65,"name":"choice","trial_type":"html-keyboard-response","trial_index":10,"time_elapsed":55654,"internal_node_id":"0.0-10.0","subject":"S1C1658","sona":"41590","block":3,"time":"2021-09-23T21:30:39.425Z","response":"1st","certainty":"high","char":"A","transposition":3,"order":["swapped","shifted"],"probe_pitches":[2,1,5,8,2,8,1,2,8,12,2,7,1,2,0,7],"shifted_pitches":[2,1,5,8,2,8,1,2,9,12,2,7,1,2,0,7],"swapped_pitches":[2,1,5,8,2,8,1,8,2,12,2,7,1,2,0,7],"shift_direction":1,"question_num":1,"has_decoy":false},{"rt":1265.1000000089407,"stimulus":"[A] option 1, [L] option 2, [G] neither","key_press":76,"name":"choice","trial_type":"html-keyboard-response","trial_index":21,"time_elapsed":92393,"internal_node_id":"0.0-21.0","subject":"S1C1658","sona":"41590","block":3,"time":"2021-09-23T21:30:39.425Z","response":"2nd","certainty":"high","char":"L","transposition":-1,"order":["swapped","shifted"],"probe_pitches":[3,1,5,-2,1,3,5,-2,8,1,10,3,10,1,5,10],"shifted_pitches":[3,1,5,-2,1,3,5,-1,8,1,10,3,10,1,5,10],"swapped_pitches":[3,1,5,-2,1,3,5,8,-2,1,10,3,10,1,5,10],"shift_direction":1,"question_num":11,"has_decoy":false},{"rt":737.3000000119209,"stimulus":"[A] option 1, [L] option 2, [G] neither","key_press":65,"name":"choice","trial_type":"html-keyboard-response","trial_index":32,"time_elapsed":126014,"internal_node_id":"0.0-32.0","subject":"S1C1658","sona":"41590","block":3,"time":"2021-09-23T21:30:39.425Z","response":"1st","certainty":"high","char":"A","transposition":-2,"order":["shifted","swapped"],"probe_pitches":[6,8,1,8,3,8,6,3,8,10,1,10,8,-2,8,1],"shifted_pitches":[6,8,1,8,3,8,6,3,9,10,1,10,8,-2,8,1],"swapped_pitches":[6,8,1,8,3,8,6,8,3,10,1,10,8,-2,8,1],"shift_direction":1,"question_num":21,"has_decoy":false},{"rt":3702.5,"stimulus":"[A] option 1, [L] option 2, [G] neither","key_press":65,"name":"choice","trial_type":"html-keyboard-response","trial_index":43,"time_elapsed":156653,"internal_node_id":"0.0-43.0","subject":"S1C1658","sona":"41590","block":3,"time":"2021-09-23T21:30:39.425Z","response":"1st","certainty":"high","char":"A","transposition":-1,"order":["shifted","swapped"],"probe_pitches":[11,8,11,10,2,7,10,4,6,1,6,0,8,5,0,6],"shifted_pitches":[11,8,11,10,2,7,10,3,6,1,6,0,8,5,0,6],"swapped_pitches":[11,8,11,10,2,7,10,6,4,1,6,0,8,5,0,6],"shift_direction":-1,"question_num":31,"has_decoy":false},{"rt":163.59999999403954,"stimulus":"[A] option 1, [L] option 2, [G] neither","key_press":76,"name":"choice","trial_type":"html-keyboard-response","trial_index":54,"time_elapsed":195396,"internal_node_id":"0.0-54.0","subject":"S1C1658","sona":"41590","block":3,"time":"2021-09-23T21:30:39.425Z","response":"2nd","certainty":"high","char":"L","transposition":-2,"order":["swapped","shifted"],"probe_pitches":[-2,3,10,3,5,-2,0,-2,10,0,5,0,-2,0,10,7],"shifted_pitches":[-2,3,10,3,5,-2,0,-2,9,0,5,0,-2,0,10,7],"swapped_pitches":[-2,3,10,3,5,-2,0,10,-2,0,5,0,-2,0,10,7],"shift_direction":-1,"question_num":41,"has_decoy":false},{"rt":2897.7999999970198,"stimulus":"[A] option 1, [L] option 2, [G] neither","key_press":76,"name":"choice","trial_type":"html-keyboard-response","trial_index":65,"time_elapsed":220705,"internal_node_id":"0.0-65.0","subject":"S1C1658","sona":"41590","block":3,"time":"2021-09-23T21:30:39.425Z","response":"2nd","certainty":"high","char":"L","transposition":-2,"order":["swapped","shifted"],"probe_pitches":[5,7,8,6,2,3,6,0,9,5,11,0,12,1,7,5],"shifted_pitches":[5,7,8,6,2,3,6,0,10,5,11,0,12,1,7,5],"swapped_pitches":[5,7,8,6,2,3,6,9,0,5,11,0,12,1,7,5],"shift_direction":1,"question_num":51,"has_decoy":false},{"rt":4362.899999991059,"stimulus":"[A] option 1, [L] option 2, [G] neither","key_press":65,"name":"choice","trial_type":"html-keyboard-response","trial_index":76,"time_elapsed":258804,"internal_node_id":"0.0-76.0","subject":"S1C1658","sona":"41590","block":3,"time":"2021-09-23T21:30:39.425Z","response":"1st","certainty":"high","char":"A","transposition":-3,"order":["swapped","shifted"],"probe_pitches":[3,0,3,11,8,0,1,9,8,0,11,12,3,4,12,6],"shifted_pitches":[3,0,3,11,8,0,1,9,7,0,11,12,3,4,12,6],"swapped_pitches":[3,0,3,11,8,0,1,8,9,0,11,12,3,4,12,6],"shift_direction":-1,"question_num":61,"has_decoy":false},{"rt":8402.09999999404,"stimulus":"[A] option 1, [L] option 2, [G] neither","key_press":76,"name":"choice","trial_type":"html-keyboard-response","trial_index":87,"time_elapsed":295087,"internal_node_id":"0.0-87.0","subject":"S1C1658","sona":"41590","block":3,"time":"2021-09-23T21:30:39.425Z","response":"2nd","certainty":"high","char":"L","transposition":3,"order":["shifted","swapped"],"probe_pitches":[3,5,0,5,-2,7,-2,3,10,-2,10,-2,0,5,10,7],"shifted_pitches":[3,5,0,5,-2,7,-2,4,10,-2,10,-2,0,5,10,7],"swapped_pitches":[3,5,0,5,-2,7,-2,10,3,-2,10,-2,0,5,10,7],"shift_direction":1,"question_num":71,"has_decoy":false},{"rt":4340,"stimulus":"[A] option 1, [L] option 2, [G] neither","key_press":76,"name":"choice","trial_type":"html-keyboard-response","trial_index":98,"time_elapsed":338309,"internal_node_id":"0.0-98.0","subject":"S1C1658","sona":"41590","block":3,"time":"2021-09-23T21:30:39.425Z","response":"2nd","certainty":"high","char":"L","transposition":-2,"order":["shifted","swapped"],"probe_pitches":[7,10,6,8,3,6,1,5,7,8,0,1,2,5,2,1],"shifted_pitches":[7,10,6,8,3,6,1,4,7,8,0,1,2,5,2,1],"swapped_pitches":[7,10,6,8,3,6,1,7,5,8,0,1,2,5,2,1],"shift_direction":-1,"question_num":81,"has_decoy":false},{"rt":6020.5,"stimulus":"[A] option 1, [L] option 2, [G] neither","key_press":76,"name":"choice","trial_type":"html-keyboard-response","trial_index":109,"time_elapsed":375232,"internal_node_id":"0.0-109.0","subject":"S1C1658","sona":"41590","block":3,"time":"2021-09-23T21:30:39.425Z","response":"2nd","certainty":"high","char":"L","transposition":0,"order":["shifted","swapped"],"probe_pitches":[0,6,10,11,5,4,0,3,11,4,1,4,7,9,3,4],"shifted_pitches":[0,6,10,11,5,4,0,2,11,4,1,4,7,9,3,4],"swapped_pitches":[0,6,10,11,5,4,0,11,3,4,1,4,7,9,3,4],"shift_direction":-1,"question_num":91,"has_decoy":false},{"rt":10560.20000000298,"stimulus":"[A] option 1, [L] option 2, [G] neither","key_press":65,"name":"choice","trial_type":"html-keyboard-response","trial_index":120,"time_elapsed":415050,"internal_node_id":"0.0-120.0","subject":"S1C1658","sona":"41590","block":3,"time":"2021-09-23T21:30:39.425Z","response":"1st","certainty":"high","char":"A","transposition":2,"order":["shifted","swapped"],"probe_pitches":[4,0,4,2,1,4,2,10,7,6,10,12,4,1,12,3],"shifted_pitches":[4,0,4,2,1,4,2,10,8,6,10,12,4,1,12,3],"swapped_pitches":[4,0,4,2,1,4,2,7,10,6,10,12,4,1,12,3],"shift_direction":1,"question_num":101,"has_decoy":false},{"rt":4516.9000000059605,"stimulus":"[A] option 1, [L] option 2, [G] neither","key_press":76,"name":"choice","trial_type":"html-keyboard-response","trial_index":131,"time_elapsed":453417,"internal_node_id":"0.0-131.0","subject":"S1C1658","sona":"41590","block":3,"time":"2021-09-23T21:30:39.425Z","response":"2nd","certainty":"high","char":"L","transposition":-3,"order":["swapped","shifted"],"probe_pitches":[10,5,12,7,2,0,1,3,10,2,6,10,6,4,2,4],"shifted_pitches":[10,5,12,7,2,0,1,3,11,2,6,10,6,4,2,4],"swapped_pitches":[10,5,12,7,2,0,1,10,3,2,6,10,6,4,2,4],"shift_direction":1,"question_num":111,"has_decoy":false},{"rt":676,"stimulus":"[A] option 1, [L] option 2, [G] neither","key_press":65,"name":"choice","trial_type":"html-keyboard-response","trial_index":142,"time_elapsed":493554,"internal_node_id":"0.0-142.0","subject":"S1C1658","sona":"41590","block":3,"time":"2021-09-23T21:30:39.425Z","response":"1st","certainty":"high","char":"A","transposition":1,"order":["swapped","shifted"],"probe_pitches":[12,11,7,3,2,3,9,7,11,10,9,1,8,10,9,10],"shifted_pitches":[12,11,7,3,2,3,9,6,11,10,9,1,8,10,9,10],"swapped_pitches":[12,11,7,3,2,3,9,11,7,10,9,1,8,10,9,10],"shift_direction":-1,"question_num":121,"has_decoy":false},{"rt":3388.800000011921,"stimulus":"[A] option 1, [L] option 2, [G] neither","key_press":76,"name":"choice","trial_type":"html-keyboard-response","trial_index":153,"time_elapsed":538868,"internal_node_id":"0.0-153.0","subject":"S1C1658","sona":"41590","block":3,"time":"2021-09-23T21:30:39.425Z","response":"2nd","certainty":"high","char":"L","transposition":-3,"order":["swapped","shifted"],"probe_pitches":[10,5,10,2,0,-2,5,0,-2,5,-2,7,0,-2,0,-2],"shifted_pitches":[10,5,10,2,0,-2,5,0,-3,5,-2,7,0,-2,0,-2],"swapped_pitches":[10,5,10,2,0,-2,5,-2,0,5,-2,7,0,-2,0,-2],"shift_direction":-1,"question_num":131,"has_decoy":false},{"rt":8561.29999999702,"stimulus":"[A] option 1, [L] option 2, [G] neither","key_press":65,"name":"choice","trial_type":"html-keyboard-response","trial_index":164,"time_elapsed":576450,"internal_node_id":"0.0-164.0","subject":"S1C1658","sona":"41590","block":3,"time":"2021-09-23T21:30:39.425Z","response":"1st","certainty":"high","char":"A","transposition":2,"order":["shifted","swapped"],"probe_pitches":[-2,0,7,0,-2,0,-2,7,0,5,7,0,2,0,10,-2],"shifted_pitches":[-2,0,7,0,-2,0,-2,6,0,5,7,0,2,0,10,-2],"swapped_pitches":[-2,0,7,0,-2,0,-2,0,7,5,7,0,2,0,10,-2],"shift_direction":-1,"question_num":141,"has_decoy":false},{"rt":4511.699999988079,"stimulus":"[A] option 1, [L] option 2, [G] neither","key_press":76,"name":"choice","trial_type":"html-keyboard-response","trial_index":175,"time_elapsed":608954,"internal_node_id":"0.0-175.0","subject":"S1C1658","sona":"41590","block":3,"time":"2021-09-23T21:30:39.425Z","response":"2nd","certainty":"high","char":"L","transposition":-3,"order":["swapped","shifted"],"probe_pitches":[3,8,10,5,0,8,5,0,8,10,3,5,8,-2,10,0],"shifted_pitches":[3,8,10,5,0,8,5,0,9,10,3,5,8,-2,10,0],"swapped_pitches":[3,8,10,5,0,8,5,8,0,10,3,5,8,-2,10,0],"shift_direction":1,"question_num":151,"has_decoy":false},{"rt":3714.3999999910593,"stimulus":"[A] option 1, [L] option 2, [G] neither","key_press":76,"name":"choice","trial_type":"html-keyboard-response","trial_index":186,"time_elapsed":644135,"internal_node_id":"0.0-186.0","subject":"S1C1658","sona":"41590","block":3,"time":"2021-09-23T21:30:39.425Z","response":"2nd","certainty":"high","char":"L","transposition":1,"order":["swapped","shifted"],"probe_pitches":[8,10,8,1,10,8,-2,6,3,8,3,1,8,1,6,10],"shifted_pitches":[8,10,8,1,10,8,-2,5,3,8,3,1,8,1,6,10],"swapped_pitches":[8,10,8,1,10,8,-2,3,6,8,3,1,8,1,6,10],"shift_direction":-1,"question_num":161,"has_decoy":false},{"rt":3015.8999999910593,"stimulus":"[A] option 1, [L] option 2, [G] neither","key_press":76,"name":"choice","trial_type":"html-keyboard-response","trial_index":197,"time_elapsed":674529,"internal_node_id":"0.0-197.0","subject":"S1C1658","sona":"41590","block":3,"time":"2021-09-23T21:30:39.425Z","response":"2nd","certainty":"high","char":"L","transposition":-1,"order":["shifted","swapped"],"probe_pitches":[-2,3,1,3,-2,5,3,8,-2,3,5,10,1,10,1,-2],"shifted_pitches":[-2,3,1,3,-2,5,3,7,-2,3,5,10,1,10,1,-2],"swapped_pitches":[-2,3,1,3,-2,5,3,-2,8,3,5,10,1,10,1,-2],"shift_direction":-1,"question_num":171,"has_decoy":false},{"rt":895.1999999880791,"stimulus":"[A] option 1, [L] option 2, [G] neither","key_press":76,"name":"choice","trial_type":"html-keyboard-response","trial_index":208,"time_elapsed":704525,"internal_node_id":"0.0-208.0","subject":"S1C1658","sona":"41590","block":3,"time":"2021-09-23T21:30:39.425Z","response":"2nd","certainty":"high","char":"L","transposition":0,"order":["shifted","swapped"],"probe_pitches":[0,3,-2,0,-2,3,8,-2,10,0,10,5,10,0,10,5],"shifted_pitches":[0,3,-2,0,-2,3,8,-2,11,0,10,5,10,0,10,5],"swapped_pitches":[0,3,-2,0,-2,3,8,10,-2,0,10,5,10,0,10,5],"shift_direction":1,"question_num":181,"has_decoy":false},{"rt":787.7999999970198,"stimulus":"[A] option 1, [L] option 2, [G] neither","key_press":76,"name":"choice","trial_type":"html-keyboard-response","trial_index":219,"time_elapsed":738438,"internal_node_id":"0.0-219.0","subject":"S1C1658","sona":"41590","block":3,"time":"2021-09-23T21:30:39.425Z","response":"2nd","certainty":"high","char":"L","transposition":-1,"order":["shifted","swapped"],"probe_pitches":[12,11,12,10,9,1,11,4,9,7,8,4,0,12,2,12],"shifted_pitches":[12,11,12,10,9,1,11,5,9,7,8,4,0,12,2,12],"swapped_pitches":[12,11,12,10,9,1,11,9,4,7,8,4,0,12,2,12],"shift_direction":1,"question_num":191,"has_decoy":false}]