[{"rt":2047.5,"stimulus":"[A] option 1, [L] option 2, [G] neither","key_press":76,"name":"choice","trial_type":"html-keyboard-response","trial_index":10,"time_elapsed":29756,"internal_node_id":"0.0-10.0","subject":"S1C1658","sona":"41590","block":5,"time":"2021-09-23T21:51:29.936Z","response":"2nd","certainty":"high","char":"L","transposition":3,"order":["shifted","swapped"],"probe_pitches":[6,7,0,3,0,7,6,0,3,6,2,3,-1,2,8,5],"shifted_pitches":[6,7,0,3,0,7,6,0,4,6,2,3,-1,2,8,5],"swapped_pitches":[6,7,0,3,0,7,6,3,0,6,2,3,-1,2,8,5],"shift_direction":1,"question_num":1,"has_decoy":false},{"rt":399.1000000089407,"stimulus":"[A] option 1, [L] option 2, [G] neither","key_press":76,"name":"choice","trial_type":"html-keyboard-response","trial_index":21,"time_elapsed":54021,"internal_node_id":"0.0-21.0","subject":"S1C1658","sona":"41590","block":5,"time":"2021-09-23T21:51:29.936Z","response":"2nd","certainty":"high","char":"L","transposition":2,"order":["swapped","shifted"],"probe_pitches":[6,5,-1,0,2,-1,1,0,6,-3,4,2,1,5,2,0],"shifted_pitches":[6,5,-1,0,2,-1,1,0,7,-3,4,2,1,5,2,0],"swapped_pitches":[6,5,-1,0,2,-1,1,6,0,-3,4,2,1,5,2,0],"shift_direction":1,"question_num":11,"has_decoy":false},{"rt":3237.9000000059605,"stimulus":"[A] option 1, [L] option 2, [G] neither","key_press":76,"name":"choice","trial_type":"html-keyboard-response","trial_index":32,"time_elapsed":81259,"internal_node_id":"0.0-32.0","subject":"S1C1658","sona":"41590","block":5,"time":"2021-09-23T21:51:29.936Z","response":"2nd","certainty":"high","char":"L","transposition":1,"order":["shifted","swapped"],"probe_pitches":[5,2,5,0,-2,2,-2,0,2,7,-2,7,10,7,10,-2],"shifted_pitches":[5,2,5,0,-2,2,-2,0,1,7,-2,7,10,7,10,-2],"swapped_pitches":[5,2,5,0,-2,2,-2,2,0,7,-2,7,10,7,10,-2],"shift_direction":-1,"question_num":21,"has_decoy":false},{"rt":3493.4000000059605,"stimulus":"[A] option 1, [L] option 2, [G] neither","key_press":76,"name":"choice","trial_type":"html-keyboard-response","trial_index":43,"time_elapsed":107669,"internal_node_id":"0.0-43.0","subject":"S1C1658","sona":"41590","block":5,"time":"2021-09-23T21:51:29.936Z","response":"2nd","certainty":"high","char":"L","transposition":-1,"order":["shifted","swapped"],"probe_pitches":[0,-2,5,10,5,8,0,8,3,5,8,10,8,0,3,5],"shifted_pitches":[0,-2,5,10,5,8,0,8,4,5,8,10,8,0,3,5],"swapped_pitches":[0,-2,5,10,5,8,0,3,8,5,8,10,8,0,3,5],"shift_direction":1,"question_num":31,"has_decoy":false},{"rt":2827.4000000059605,"stimulus":"[A] option 1, [L] option 2, [G] neither","key_press":65,"name":"choice","trial_type":"html-keyboard-response","trial_index":54,"time_elapsed":132906,"internal_node_id":"0.0-54.0","subject":"S1C1658","sona":"41590","block":5,"time":"2021-09-23T21:51:29.936Z","response":"1st","certainty":"high","char":"A","transposition":-3,"order":["shifted","swapped"],"probe_pitches":[-2,1,3,10,3,1,8,10,3,1,-2,6,1,8,6,3],"shifted_pitches":[-2,1,3,10,3,1,8,9,3,1,-2,6,1,8,6,3],"swapped_pitches":[-2,1,3,10,3,1,8,3,10,1,-2,6,1,8,6,3],"shift_direction":-1,"question_num":41,"has_decoy":false},{"rt":5102.29999999702,"stimulus":"[A] option 1, [L] option 2, [G] neither","key_press":65,"name":"choice","trial_type":"html-keyboard-response","trial_index":65,"time_elapsed":160702,"internal_node_id":"0.0-65.0","subject":"S1C1658","sona":"41590","block":5,"time":"2021-09-23T21:51:29.936Z","response":"1st","certainty":"high","char":"A","transposition":0,"order":["swapped","shifted"],"probe_pitches":[8,9,5,3,8,3,2,-1,6,7,9,5,2,-2,2,8],"shifted_pitches":[8,9,5,3,8,3,2,0,6,7,9,5,2,-2,2,8],"swapped_pitches":[8,9,5,3,8,3,2,6,-1,7,9,5,2,-2,2,8],"shift_direction":1,"question_num":51,"has_decoy":false},{"rt":5241.5999999940395,"stimulus":"[A] option 1, [L] option 2, [G] neither","key_press":76,"name":"choice","trial_type":"html-keyboard-response","trial_index":76,"time_elapsed":188287,"internal_node_id":"0.0-76.0","subject":"S1C1658","sona":"41590","block":5,"time":"2021-09-23T21:51:29.936Z","response":"2nd","certainty":"high","char":"L","transposition":-1,"order":["shifted","swapped"],"probe_pitches":[-2,1,3,7,-1,-2,3,6,-3,-1,4,-2,6,-3,2,8],"shifted_pitches":[-2,1,3,7,-1,-2,3,5,-3,-1,4,-2,6,-3,2,8],"swapped_pitches":[-2,1,3,7,-1,-2,3,-3,6,-1,4,-2,6,-3,2,8],"shift_direction":-1,"question_num":61,"has_decoy":false},{"rt":1251.9000000059605,"stimulus":"[A] option 1, [L] option 2, [G] neither","key_press":76,"name":"choice","trial_type":"html-keyboard-response","trial_index":87,"time_elapsed":212068,"internal_node_id":"0.0-87.0","subject":"S1C1658","sona":"41590","block":5,"time":"2021-09-23T21:51:29.936Z","response":"2nd","certainty":"high","char":"L","transposition":-1,"order":["shifted","swapped"],"probe_pitches":[7,10,3,-2,5,7,10,5,0,3,10,0,10,5,0,10],"shifted_pitches":[7,10,3,-2,5,7,10,4,0,3,10,0,10,5,0,10],"swapped_pitches":[7,10,3,-2,5,7,10,0,5,3,10,0,10,5,0,10],"shift_direction":-1,"question_num":71,"has_decoy":false},{"rt":5181.4000000059605,"stimulus":"[A] option 1, [L] option 2, [G] neither","key_press":65,"name":"choice","trial_type":"html-keyboard-response","trial_index":98,"time_elapsed":239955,"internal_node_id":"0.0-98.0","subject":"S1C1658","sona":"41590","block":5,"time":"2021-09-23T21:51:29.936Z","response":"1st","certainty":"high","char":"A","transposition":-2,"order":["swapped","shifted"],"probe_pitches":[-2,1,3,0,-3,-2,5,2,7,8,0,5,1,-3,7,4],"shifted_pitches":[-2,1,3,0,-3,-2,5,2,6,8,0,5,1,-3,7,4],"swapped_pitches":[-2,1,3,0,-3,-2,5,7,2,8,0,5,1,-3,7,4],"shift_direction":-1,"question_num":81,"has_decoy":false},{"rt":8889.300000011921,"stimulus":"[A] option 1, [L] option 2, [G] neither","key_press":65,"name":"choice","trial_type":"html-keyboard-response","trial_index":109,"time_elapsed":271844,"internal_node_id":"0.0-109.0","subject":"S1C1658","sona":"41590","block":5,"time":"2021-09-23T21:51:29.936Z","response":"1st","certainty":"high","char":"A","transposition":0,"order":["shifted","swapped"],"probe_pitches":[3,1,8,3,8,1,5,3,8,10,8,3,1,-2,1,8],"shifted_pitches":[3,1,8,3,8,1,5,3,7,10,8,3,1,-2,1,8],"swapped_pitches":[3,1,8,3,8,1,5,8,3,10,8,3,1,-2,1,8],"shift_direction":-1,"question_num":91,"has_decoy":false},{"rt":11909.60000000894,"stimulus":"[A] option 1, [L] option 2, [G] neither","key_press":76,"name":"choice","trial_type":"html-keyboard-response","trial_index":120,"time_elapsed":306096,"internal_node_id":"0.0-120.0","subject":"S1C1658","sona":"41590","block":5,"time":"2021-09-23T21:51:29.936Z","response":"2nd","certainty":"high","char":"L","transposition":-3,"order":["swapped","shifted"],"probe_pitches":[7,6,4,8,4,2,6,-2,8,4,9,7,-2,5,2,8],"shifted_pitches":[7,6,4,8,4,2,6,-1,8,4,9,7,-2,5,2,8],"swapped_pitches":[7,6,4,8,4,2,6,8,-2,4,9,7,-2,5,2,8],"shift_direction":1,"question_num":101,"has_decoy":false},{"rt":6428,"stimulus":"[A] option 1, [L] option 2, [G] neither","key_press":76,"name":"choice","trial_type":"html-keyboard-response","trial_index":131,"time_elapsed":341275,"internal_node_id":"0.0-131.0","subject":"S1C1658","sona":"41590","block":5,"time":"2021-09-23T21:51:29.936Z","response":"2nd","certainty":"high","char":"L","transposition":-3,"order":["swapped","shifted"],"probe_pitches":[10,5,3,-2,5,3,8,10,-2,1,3,1,5,10,3,10],"shifted_pitches":[10,5,3,-2,5,3,8,10,-1,1,3,1,5,10,3,10],"swapped_pitches":[10,5,3,-2,5,3,8,-2,10,1,3,1,5,10,3,10],"shift_direction":1,"question_num":111,"has_decoy":false},{"rt":15530.59999999404,"stimulus":"[A] option 1, [L] option 2, [G] neither","key_press":76,"name":"choice","trial_type":"html-keyboard-response","trial_index":142,"time_elapsed":379299,"internal_node_id":"0.0-142.0","subject":"S1C1658","sona":"41590","block":5,"time":"2021-09-23T21:51:29.936Z","response":"2nd","certainty":"high","char":"L","transposition":2,"order":["swapped","shifted"],"probe_pitches":[0,3,10,5,3,7,0,10,3,-2,5,3,7,3,5,7],"shifted_pitches":[0,3,10,5,3,7,0,11,3,-2,5,3,7,3,5,7],"swapped_pitches":[0,3,10,5,3,7,0,3,10,-2,5,3,7,3,5,7],"shift_direction":1,"question_num":121,"has_decoy":false},{"rt":3726.5999999940395,"stimulus":"[A] option 1, [L] option 2, [G] neither","key_press":65,"name":"choice","trial_type":"html-keyboard-response","trial_index":153,"time_elapsed":405549,"internal_node_id":"0.0-153.0","subject":"S1C1658","sona":"41590","block":5,"time":"2021-09-23T21:51:29.936Z","response":"1st","certainty":"high","char":"A","transposition":3,"order":["swapped","shifted"],"probe_pitches":[7,2,5,0,-2,5,-2,7,5,0,2,10,5,-2,7,5],"shifted_pitches":[7,2,5,0,-2,5,-2,6,5,0,2,10,5,-2,7,5],"swapped_pitches":[7,2,5,0,-2,5,-2,5,7,0,2,10,5,-2,7,5],"shift_direction":-1,"question_num":131,"has_decoy":false},{"rt":12745.300000011921,"stimulus":"[A] option 1, [L] option 2, [G] neither","key_press":76,"name":"choice","trial_type":"html-keyboard-response","trial_index":164,"time_elapsed":440902,"internal_node_id":"0.0-164.0","subject":"S1C1658","sona":"41590","block":5,"time":"2021-09-23T21:51:29.936Z","response":"2nd","certainty":"high","char":"L","transposition":-2,"order":["swapped","shifted"],"probe_pitches":[-2,3,10,3,8,3,10,1,6,-2,3,10,6,10,1,-2],"shifted_pitches":[-2,3,10,3,8,3,10,2,6,-2,3,10,6,10,1,-2],"swapped_pitches":[-2,3,10,3,8,3,10,6,1,-2,3,10,6,10,1,-2],"shift_direction":1,"question_num":141,"has_decoy":false},{"rt":3335.199999988079,"stimulus":"[A] option 1, [L] option 2, [G] neither","key_press":76,"name":"choice","trial_type":"html-keyboard-response","trial_index":175,"time_elapsed":466959,"internal_node_id":"0.0-175.0","subject":"S1C1658","sona":"41590","block":5,"time":"2021-09-23T21:51:29.936Z","response":"2nd","certainty":"high","char":"L","transposition":-2,"order":["swapped","shifted"],"probe_pitches":[-2,0,3,8,0,8,10,-2,8,3,5,0,5,8,0,5],"shifted_pitches":[-2,0,3,8,0,8,10,-2,9,3,5,0,5,8,0,5],"swapped_pitches":[-2,0,3,8,0,8,10,8,-2,3,5,0,5,8,0,5],"shift_direction":1,"question_num":151,"has_decoy":false},{"rt":6046.20000000298,"stimulus":"[A] option 1, [L] option 2, [G] neither","key_press":76,"name":"choice","trial_type":"html-keyboard-response","trial_index":186,"time_elapsed":495503,"internal_node_id":"0.0-186.0","subject":"S1C1658","sona":"41590","block":5,"time":"2021-09-23T21:51:29.936Z","response":"2nd","certainty":"high","char":"L","transposition":-3,"order":["shifted","swapped"],"probe_pitches":[-2,0,7,5,9,6,-2,2,9,8,0,7,2,1,-3,2],"shifted_pitches":[-2,0,7,5,9,6,-2,3,9,8,0,7,2,1,-3,2],"swapped_pitches":[-2,0,7,5,9,6,-2,9,2,8,0,7,2,1,-3,2],"shift_direction":1,"question_num":161,"has_decoy":false},{"rt":1230.5999999940395,"stimulus":"[A] option 1, [L] option 2, [G] neither","key_press":76,"name":"choice","trial_type":"html-keyboard-response","trial_index":197,"time_elapsed":521328,"internal_node_id":"0.0-197.0","subject":"S1C1658","sona":"41590","block":5,"time":"2021-09-23T21:51:29.936Z","response":"2nd","certainty":"high","char":"L","transposition":-1,"order":["swapped","shifted"],"probe_pitches":[7,9,4,7,4,-1,8,9,3,-3,0,-1,9,1,-3,-2],"shifted_pitches":[7,9,4,7,4,-1,8,9,2,-3,0,-1,9,1,-3,-2],"swapped_pitches":[7,9,4,7,4,-1,8,3,9,-3,0,-1,9,1,-3,-2],"shift_direction":-1,"question_num":171,"has_decoy":false},{"rt":3021.7999999970198,"stimulus":"[A] option 1, [L] option 2, [G] neither","key_press":76,"name":"choice","trial_type":"html-keyboard-response","trial_index":208,"time_elapsed":547892,"internal_node_id":"0.0-208.0","subject":"S1C1658","sona":"41590","block":5,"time":"2021-09-23T21:51:29.936Z","response":"2nd","certainty":"high","char":"L","transposition":1,"order":["shifted","swapped"],"probe_pitches":[6,0,6,3,1,3,-2,1,-3,4,0,3,-1,7,4,7],"shifted_pitches":[6,0,6,3,1,3,-2,1,-4,4,0,3,-1,7,4,7],"swapped_pitches":[6,0,6,3,1,3,-2,-3,1,4,0,3,-1,7,4,7],"shift_direction":-1,"question_num":181,"has_decoy":false},{"rt":513.7999999970198,"stimulus":"[A] option 1, [L] option 2, [G] neither","key_press":65,"name":"choice","trial_type":"html-keyboard-response","trial_index":219,"time_elapsed":573698,"internal_node_id":"0.0-219.0","subject":"S1C1658","sona":"41590","block":5,"time":"2021-09-23T21:51:29.936Z","response":"1st","certainty":"high","char":"A","transposition":-2,"order":["shifted","swapped"],"probe_pitches":[9,5,9,5,2,9,0,2,5,3,5,-2,6,-2,5,8],"shifted_pitches":[9,5,9,5,2,9,0,1,5,3,5,-2,6,-2,5,8],"swapped_pitches":[9,5,9,5,2,9,0,5,2,3,5,-2,6,-2,5,8],"shift_direction":-1,"question_num":191,"has_decoy":false}]