[{"rt":1286.9000000059605,"stimulus":"[A] option 1, [L] option 2, [G] neither","key_press":76,"name":"choice","trial_type":"html-keyboard-response","trial_index":10,"time_elapsed":28423,"internal_node_id":"0.0-10.0","subject":"S1C1658","sona":"41590","block":4,"time":"2021-09-23T21:41:52.686Z","response":"2nd","certainty":"high","char":"L","transposition":1,"order":["shifted","swapped"],"probe_pitches":[9,5,8,11,5,7,4,10,13,7,4,1,9,8,11,6],"shifted_pitches":[9,5,8,11,5,7,4,10,12,7,4,1,9,8,11,6],"swapped_pitches":[9,5,8,11,5,7,4,13,10,7,4,1,9,8,11,6],"shift_direction":-1,"question_num":1,"has_decoy":false},{"rt":877.2999999970198,"stimulus":"[A] option 1, [L] option 2, [G] neither","key_press":76,"name":"choice","trial_type":"html-keyboard-response","trial_index":21,"time_elapsed":60807,"internal_node_id":"0.0-21.0","subject":"S1C1658","sona":"41590","block":4,"time":"2021-09-23T21:41:52.686Z","response":"2nd","certainty":"high","char":"L","transposition":-2,"order":["shifted","swapped"],"probe_pitches":[9,11,9,4,9,-1,2,9,6,2,-1,6,11,2,-1,4],"shifted_pitches":[9,11,9,4,9,-1,2,8,6,2,-1,6,11,2,-1,4],"swapped_pitches":[9,11,9,4,9,-1,2,6,9,2,-1,6,11,2,-1,4],"shift_direction":-1,"question_num":11,"has_decoy":false},{"rt":9442.79999999702,"stimulus":"[A] option 1, [L] option 2, [G] neither","key_press":65,"name":"choice","trial_type":"html-keyboard-response","trial_index":32,"time_elapsed":97585,"internal_node_id":"0.0-32.0","subject":"S1C1658","sona":"41590","block":4,"time":"2021-09-23T21:41:52.686Z","response":"1st","certainty":"high","char":"A","transposition":-3,"order":["swapped","shifted"],"probe_pitches":[4,7,8,4,2,6,1,13,11,4,2,11,2,7,13,2],"shifted_pitches":[4,7,8,4,2,6,1,13,10,4,2,11,2,7,13,2],"swapped_pitches":[4,7,8,4,2,6,1,11,13,4,2,11,2,7,13,2],"shift_direction":-1,"question_num":21,"has_decoy":false},{"rt":2205.0999999940395,"stimulus":"[A] option 1, [L] option 2, [G] neither","key_press":76,"name":"choice","trial_type":"html-keyboard-response","trial_index":43,"time_elapsed":123915,"internal_node_id":"0.0-43.0","subject":"S1C1658","sona":"41590","block":4,"time":"2021-09-23T21:41:52.686Z","response":"2nd","certainty":"high","char":"L","transposition":3,"order":["shifted","swapped"],"probe_pitches":[4,6,12,4,9,12,1,12,10,7,8,12,2,7,3,5],"shifted_pitches":[4,6,12,4,9,12,1,11,10,7,8,12,2,7,3,5],"swapped_pitches":[4,6,12,4,9,12,1,10,12,7,8,12,2,7,3,5],"shift_direction":-1,"question_num":31,"has_decoy":false},{"rt":7601.899999991059,"stimulus":"[A] option 1, [L] option 2, [G] neither","key_press":65,"name":"choice","trial_type":"html-keyboard-response","trial_index":54,"time_elapsed":157887,"internal_node_id":"0.0-54.0","subject":"S1C1658","sona":"41590","block":4,"time":"2021-09-23T21:41:52.686Z","response":"1st","certainty":"high","char":"A","transposition":2,"order":["swapped","shifted"],"probe_pitches":[9,4,-1,1,9,4,6,11,1,9,1,-1,6,9,6,9],"shifted_pitches":[9,4,-1,1,9,4,6,11,0,9,1,-1,6,9,6,9],"swapped_pitches":[9,4,-1,1,9,4,6,1,11,9,1,-1,6,9,6,9],"shift_direction":-1,"question_num":41,"has_decoy":false},{"rt":4025.2999999970198,"stimulus":"[A] option 1, [L] option 2, [G] neither","key_press":76,"name":"choice","trial_type":"html-keyboard-response","trial_index":65,"time_elapsed":190917,"internal_node_id":"0.0-65.0","subject":"S1C1658","sona":"41590","block":4,"time":"2021-09-23T21:41:52.686Z","response":"2nd","certainty":"high","char":"L","transposition":-1,"order":["swapped","shifted"],"probe_pitches":[4,7,11,9,4,9,-1,11,4,7,11,4,-1,2,-1,9],"shifted_pitches":[4,7,11,9,4,9,-1,12,4,7,11,4,-1,2,-1,9],"swapped_pitches":[4,7,11,9,4,9,-1,4,11,7,11,4,-1,2,-1,9],"shift_direction":1,"question_num":51,"has_decoy":false},{"rt":548.5,"stimulus":"[A] option 1, [L] option 2, [G] neither","key_press":76,"name":"choice","trial_type":"html-keyboard-response","trial_index":76,"time_elapsed":216149,"internal_node_id":"0.0-76.0","subject":"S1C1658","sona":"41590","block":4,"time":"2021-09-23T21:41:52.686Z","response":"2nd","certainty":"high","char":"L","transposition":-2,"order":["swapped","shifted"],"probe_pitches":[10,5,11,5,13,7,6,5,9,6,3,4,2,10,11,7],"shifted_pitches":[10,5,11,5,13,7,6,5,8,6,3,4,2,10,11,7],"swapped_pitches":[10,5,11,5,13,7,6,9,5,6,3,4,2,10,11,7],"shift_direction":-1,"question_num":61,"has_decoy":false},{"rt":1635.9000000059605,"stimulus":"[A] option 1, [L] option 2, [G] neither","key_press":76,"name":"choice","trial_type":"html-keyboard-response","trial_index":87,"time_elapsed":286192,"internal_node_id":"0.0-87.0","subject":"S1C1658","sona":"41590","block":4,"time":"2021-09-23T21:41:52.686Z","response":"2nd","certainty":"high","char":"L","transposition":-1,"order":["swapped","shifted"],"probe_pitches":[9,4,1,-1,4,6,4,-1,11,9,11,1,6,4,9,4],"shifted_pitches":[9,4,1,-1,4,6,4,-2,11,9,11,1,6,4,9,4],"swapped_pitches":[9,4,1,-1,4,6,4,11,-1,9,11,1,6,4,9,4],"shift_direction":-1,"question_num":71,"has_decoy":false},{"rt":545,"stimulus":"[A] option 1, [L] option 2, [G] neither","key_press":76,"name":"choice","trial_type":"html-keyboard-response","trial_index":98,"time_elapsed":327297,"internal_node_id":"0.0-98.0","subject":"S1C1658","sona":"41590","block":4,"time":"2021-09-23T21:41:52.686Z","response":"2nd","certainty":"high","char":"L","transposition":-3,"order":["swapped","shifted"],"probe_pitches":[8,11,6,-1,8,1,8,1,4,8,4,1,6,11,1,6],"shifted_pitches":[8,11,6,-1,8,1,8,1,3,8,4,1,6,11,1,6],"swapped_pitches":[8,11,6,-1,8,1,8,4,1,8,4,1,6,11,1,6],"shift_direction":-1,"question_num":81,"has_decoy":false},{"rt":5796,"stimulus":"[A] option 1, [L] option 2, [G] neither","key_press":76,"name":"choice","trial_type":"html-keyboard-response","trial_index":109,"time_elapsed":355790,"internal_node_id":"0.0-109.0","subject":"S1C1658","sona":"41590","block":4,"time":"2021-09-23T21:41:52.686Z","response":"2nd","certainty":"high","char":"L","transposition":1,"order":["swapped","shifted"],"probe_pitches":[11,6,8,3,8,6,11,8,1,3,1,6,1,6,11,-1],"shifted_pitches":[11,6,8,3,8,6,11,8,2,3,1,6,1,6,11,-1],"swapped_pitches":[11,6,8,3,8,6,11,1,8,3,1,6,1,6,11,-1],"shift_direction":1,"question_num":91,"has_decoy":false},{"rt":3157.7000000029802,"stimulus":"[A] option 1, [L] option 2, [G] neither","key_press":76,"name":"choice","trial_type":"html-keyboard-response","trial_index":120,"time_elapsed":414269,"internal_node_id":"0.0-120.0","subject":"S1C1658","sona":"41590","block":4,"time":"2021-09-23T21:41:52.686Z","response":"2nd","certainty":"high","char":"L","transposition":0,"order":["shifted","swapped"],"probe_pitches":[1,6,4,8,2,4,10,8,12,13,7,4,2,13,1,10],"shifted_pitches":[1,6,4,8,2,4,10,9,12,13,7,4,2,13,1,10],"swapped_pitches":[1,6,4,8,2,4,10,12,8,13,7,4,2,13,1,10],"shift_direction":1,"question_num":101,"has_decoy":false},{"rt":476.3999999910593,"stimulus":"[A] option 1, [L] option 2, [G] neither","key_press":65,"name":"choice","trial_type":"html-keyboard-response","trial_index":131,"time_elapsed":441395,"internal_node_id":"0.0-131.0","subject":"S1C1658","sona":"41590","block":4,"time":"2021-09-23T21:41:52.686Z","response":"1st","certainty":"high","char":"A","transposition":-2,"order":["shifted","swapped"],"probe_pitches":[12,9,4,10,13,11,3,7,5,11,13,2,1,8,2,10],"shifted_pitches":[12,9,4,10,13,11,3,6,5,11,13,2,1,8,2,10],"swapped_pitches":[12,9,4,10,13,11,3,5,7,11,13,2,1,8,2,10],"shift_direction":-1,"question_num":111,"has_decoy":false},{"rt":435.79999999701977,"stimulus":"[A] option 1, [L] option 2, [G] neither","key_press":65,"name":"choice","trial_type":"html-keyboard-response","trial_index":142,"time_elapsed":464847,"internal_node_id":"0.0-142.0","subject":"S1C1658","sona":"41590","block":4,"time":"2021-09-23T21:41:52.686Z","response":"1st","certainty":"high","char":"A","transposition":3,"order":["shifted","swapped"],"probe_pitches":[8,6,11,8,-1,6,8,4,1,8,4,11,6,11,1,11],"shifted_pitches":[8,6,11,8,-1,6,8,5,1,8,4,11,6,11,1,11],"swapped_pitches":[8,6,11,8,-1,6,8,1,4,8,4,11,6,11,1,11],"shift_direction":1,"question_num":121,"has_decoy":false},{"rt":765,"stimulus":"[A] option 1, [L] option 2, [G] neither","key_press":76,"name":"choice","trial_type":"html-keyboard-response","trial_index":153,"time_elapsed":488055,"internal_node_id":"0.0-153.0","subject":"S1C1658","sona":"41590","block":4,"time":"2021-09-23T21:41:52.686Z","response":"2nd","certainty":"high","char":"L","transposition":-3,"order":["swapped","shifted"],"probe_pitches":[2,1,4,12,11,12,9,10,4,11,1,3,7,11,2,9],"shifted_pitches":[2,1,4,12,11,12,9,10,5,11,1,3,7,11,2,9],"swapped_pitches":[2,1,4,12,11,12,9,4,10,11,1,3,7,11,2,9],"shift_direction":1,"question_num":131,"has_decoy":false},{"rt":1561.5,"stimulus":"[A] option 1, [L] option 2, [G] neither","key_press":65,"name":"choice","trial_type":"html-keyboard-response","trial_index":164,"time_elapsed":512425,"internal_node_id":"0.0-164.0","subject":"S1C1658","sona":"41590","block":4,"time":"2021-09-23T21:41:52.686Z","response":"1st","certainty":"high","char":"A","transposition":-1,"order":["shifted","swapped"],"probe_pitches":[2,7,11,10,7,10,9,3,11,7,10,2,3,5,10,1],"shifted_pitches":[2,7,11,10,7,10,9,4,11,7,10,2,3,5,10,1],"swapped_pitches":[2,7,11,10,7,10,9,11,3,7,10,2,3,5,10,1],"shift_direction":1,"question_num":141,"has_decoy":false},{"rt":784.3999999910593,"stimulus":"[A] option 1, [L] option 2, [G] neither","key_press":65,"name":"choice","trial_type":"html-keyboard-response","trial_index":175,"time_elapsed":535615,"internal_node_id":"0.0-175.0","subject":"S1C1658","sona":"41590","block":4,"time":"2021-09-23T21:41:52.686Z","response":"1st","certainty":"high","char":"A","transposition":0,"order":["shifted","swapped"],"probe_pitches":[4,2,7,2,4,7,-1,4,11,2,11,9,-1,2,11,9],"shifted_pitches":[4,2,7,2,4,7,-1,4,10,2,11,9,-1,2,11,9],"swapped_pitches":[4,2,7,2,4,7,-1,11,4,2,11,9,-1,2,11,9],"shift_direction":-1,"question_num":151,"has_decoy":false},{"rt":9945.29999999702,"stimulus":"[A] option 1, [L] option 2, [G] neither","key_press":76,"name":"choice","trial_type":"html-keyboard-response","trial_index":186,"time_elapsed":568065,"internal_node_id":"0.0-186.0","subject":"S1C1658","sona":"41590","block":4,"time":"2021-09-23T21:41:52.686Z","response":"2nd","certainty":"high","char":"L","transposition":-3,"order":["shifted","swapped"],"probe_pitches":[6,11,6,11,3,1,8,1,6,11,1,8,3,1,3,11],"shifted_pitches":[6,11,6,11,3,1,8,1,7,11,1,8,3,1,3,11],"swapped_pitches":[6,11,6,11,3,1,8,6,1,11,1,8,3,1,3,11],"shift_direction":1,"question_num":161,"has_decoy":false},{"rt":2450.0999999940395,"stimulus":"[A] option 1, [L] option 2, [G] neither","key_press":76,"name":"choice","trial_type":"html-keyboard-response","trial_index":197,"time_elapsed":596106,"internal_node_id":"0.0-197.0","subject":"S1C1658","sona":"41590","block":4,"time":"2021-09-23T21:41:52.686Z","response":"2nd","certainty":"high","char":"L","transposition":2,"order":["swapped","shifted"],"probe_pitches":[8,11,6,1,6,13,12,6,3,13,1,5,1,11,13,3],"shifted_pitches":[8,11,6,1,6,13,12,7,3,13,1,5,1,11,13,3],"swapped_pitches":[8,11,6,1,6,13,12,3,6,13,1,5,1,11,13,3],"shift_direction":1,"question_num":171,"has_decoy":false},{"rt":11487.70000000298,"stimulus":"[A] option 1, [L] option 2, [G] neither","key_press":76,"name":"choice","trial_type":"html-keyboard-response","trial_index":208,"time_elapsed":645766,"internal_node_id":"0.0-208.0","subject":"S1C1658","sona":"41590","block":4,"time":"2021-09-23T21:41:52.686Z","response":"2nd","certainty":"high","char":"L","transposition":-2,"order":["shifted","swapped"],"probe_pitches":[4,-1,2,-1,6,11,4,9,2,4,-1,6,9,6,2,-1],"shifted_pitches":[4,-1,2,-1,6,11,4,10,2,4,-1,6,9,6,2,-1],"swapped_pitches":[4,-1,2,-1,6,11,4,2,9,4,-1,6,9,6,2,-1],"shift_direction":1,"question_num":181,"has_decoy":false},{"rt":424.5,"stimulus":"[A] option 1, [L] option 2, [G] neither","key_press":76,"name":"choice","trial_type":"html-keyboard-response","trial_index":219,"time_elapsed":668772,"internal_node_id":"0.0-219.0","subject":"S1C1658","sona":"41590","block":4,"time":"2021-09-23T21:41:52.686Z","response":"2nd","certainty":"high","char":"L","transposition":-1,"order":["swapped","shifted"],"probe_pitches":[11,9,11,4,10,9,1,6,2,13,11,12,8,12,9,6],"shifted_pitches":[11,9,11,4,10,9,1,6,3,13,11,12,8,12,9,6],"swapped_pitches":[11,9,11,4,10,9,1,2,6,13,11,12,8,12,9,6],"shift_direction":1,"question_num":191,"has_decoy":false}]