[{"rt":674.2999999523163,"stimulus":"[A] option 1, [L] option 2, [G] neither","key_press":76,"name":"choice","trial_type":"html-keyboard-response","trial_index":10,"time_elapsed":15761,"internal_node_id":"0.0-10.0","subject":"S1C0806","sona":"41412","block":4,"time":"2021-09-06T03:51:54.745Z","response":"2nd","certainty":"high","char":"L","transposition":-2,"order":["shifted","swapped"],"probe_pitches":[9,11,6,13,9,8,5,2],"shifted_pitches":[9,11,6,12,9,8,5,2],"swapped_pitches":[9,11,6,9,13,8,5,2],"shift_direction":-1,"question_num":1,"has_decoy":false},{"rt":2471.100000023842,"stimulus":"[A] option 1, [L] option 2, [G] neither","key_press":65,"name":"choice","trial_type":"html-keyboard-response","trial_index":21,"time_elapsed":32571,"internal_node_id":"0.0-21.0","subject":"S1C0806","sona":"41412","block":4,"time":"2021-09-06T03:51:54.745Z","response":"1st","certainty":"high","char":"A","transposition":3,"order":["shifted","swapped"],"probe_pitches":[10,5,3,10,7,11,9,11],"shifted_pitches":[10,5,3,10,8,11,9,11],"swapped_pitches":[10,5,3,7,10,11,9,11],"shift_direction":1,"question_num":11,"has_decoy":false},{"rt":2462.100000023842,"stimulus":"[A] option 1, [L] option 2, [G] neither","key_press":65,"name":"choice","trial_type":"html-keyboard-response","trial_index":32,"time_elapsed":49372,"internal_node_id":"0.0-32.0","subject":"S1C0806","sona":"41412","block":4,"time":"2021-09-06T03:51:54.745Z","response":"1st","certainty":"high","char":"A","transposition":-1,"order":["swapped","shifted"],"probe_pitches":[9,4,7,5,13,3,10,8],"shifted_pitches":[9,4,7,6,13,3,10,8],"swapped_pitches":[9,4,7,13,5,3,10,8],"shift_direction":1,"question_num":21,"has_decoy":false},{"rt":562.2999999523163,"stimulus":"[A] option 1, [L] option 2, [G] neither","key_press":76,"name":"choice","trial_type":"html-keyboard-response","trial_index":43,"time_elapsed":64214,"internal_node_id":"0.0-43.0","subject":"S1C0806","sona":"41412","block":4,"time":"2021-09-06T03:51:54.745Z","response":"2nd","certainty":"high","char":"L","transposition":-1,"order":["swapped","shifted"],"probe_pitches":[1,4,11,13,6,9,13,9],"shifted_pitches":[1,4,11,14,6,9,13,9],"swapped_pitches":[1,4,11,6,13,9,13,9],"shift_direction":1,"question_num":31,"has_decoy":false},{"rt":823.6999999284744,"stimulus":"[A] option 1, [L] option 2, [G] neither","key_press":65,"name":"choice","trial_type":"html-keyboard-response","trial_index":54,"time_elapsed":79457,"internal_node_id":"0.0-54.0","subject":"S1C0806","sona":"41412","block":4,"time":"2021-09-06T03:51:54.745Z","response":"1st","certainty":"high","char":"A","transposition":1,"order":["shifted","swapped"],"probe_pitches":[3,8,1,8,6,1,10,1],"shifted_pitches":[3,8,1,8,7,1,10,1],"swapped_pitches":[3,8,1,6,8,1,10,1],"shift_direction":1,"question_num":41,"has_decoy":false},{"rt":1634.7000000476837,"stimulus":"[A] option 1, [L] option 2, [G] neither","key_press":65,"name":"choice","trial_type":"html-keyboard-response","trial_index":65,"time_elapsed":95521,"internal_node_id":"0.0-65.0","subject":"S1C0806","sona":"41412","block":4,"time":"2021-09-06T03:51:54.745Z","response":"1st","certainty":"high","char":"A","transposition":1,"order":["swapped","shifted"],"probe_pitches":[3,9,3,5,8,11,6,14],"shifted_pitches":[3,9,3,5,7,11,6,14],"swapped_pitches":[3,9,3,8,5,11,6,14],"shift_direction":-1,"question_num":51,"has_decoy":false},{"rt":583.5,"stimulus":"[A] option 1, [L] option 2, [G] neither","key_press":76,"name":"choice","trial_type":"html-keyboard-response","trial_index":76,"time_elapsed":110389,"internal_node_id":"0.0-76.0","subject":"S1C0806","sona":"41412","block":4,"time":"2021-09-06T03:51:54.745Z","response":"2nd","certainty":"high","char":"L","transposition":-3,"order":["shifted","swapped"],"probe_pitches":[7,13,9,11,13,14,3,6],"shifted_pitches":[7,13,9,10,13,14,3,6],"swapped_pitches":[7,13,9,13,11,14,3,6],"shift_direction":-1,"question_num":61,"has_decoy":false},{"rt":799.5,"stimulus":"[A] option 1, [L] option 2, [G] neither","key_press":65,"name":"choice","trial_type":"html-keyboard-response","trial_index":87,"time_elapsed":127688,"internal_node_id":"0.0-87.0","subject":"S1C0806","sona":"41412","block":4,"time":"2021-09-06T03:51:54.745Z","response":"1st","certainty":"high","char":"A","transposition":-1,"order":["shifted","swapped"],"probe_pitches":[11,8,6,3,1,8,1,8],"shifted_pitches":[11,8,6,3,0,8,1,8],"swapped_pitches":[11,8,6,1,3,8,1,8],"shift_direction":-1,"question_num":71,"has_decoy":false},{"rt":551.1999999284744,"stimulus":"[A] option 1, [L] option 2, [G] neither","key_press":76,"name":"choice","trial_type":"html-keyboard-response","trial_index":98,"time_elapsed":142389,"internal_node_id":"0.0-98.0","subject":"S1C0806","sona":"41412","block":4,"time":"2021-09-06T03:51:54.745Z","response":"2nd","certainty":"high","char":"L","transposition":-3,"order":["swapped","shifted"],"probe_pitches":[13,10,3,8,1,10,6,1],"shifted_pitches":[13,10,3,8,2,10,6,1],"swapped_pitches":[13,10,3,1,8,10,6,1],"shift_direction":1,"question_num":81,"has_decoy":false},{"rt":343.7000000476837,"stimulus":"[A] option 1, [L] option 2, [G] neither","key_press":76,"name":"choice","trial_type":"html-keyboard-response","trial_index":109,"time_elapsed":157541,"internal_node_id":"0.0-109.0","subject":"S1C0806","sona":"41412","block":4,"time":"2021-09-06T03:51:54.745Z","response":"2nd","certainty":"high","char":"L","transposition":-3,"order":["swapped","shifted"],"probe_pitches":[7,8,2,8,6,4,9,13],"shifted_pitches":[7,8,2,8,5,4,9,13],"swapped_pitches":[7,8,2,6,8,4,9,13],"shift_direction":-1,"question_num":91,"has_decoy":false},{"rt":2732.5,"stimulus":"[A] option 1, [L] option 2, [G] neither","key_press":76,"name":"choice","trial_type":"html-keyboard-response","trial_index":120,"time_elapsed":174864,"internal_node_id":"0.0-120.0","subject":"S1C0806","sona":"41412","block":4,"time":"2021-09-06T03:51:54.745Z","response":"2nd","certainty":"high","char":"L","transposition":-2,"order":["shifted","swapped"],"probe_pitches":[13,12,6,3,8,7,11,3],"shifted_pitches":[13,12,6,4,8,7,11,3],"swapped_pitches":[13,12,6,8,3,7,11,3],"shift_direction":1,"question_num":101,"has_decoy":false},{"rt":776,"stimulus":"[A] option 1, [L] option 2, [G] neither","key_press":76,"name":"choice","trial_type":"html-keyboard-response","trial_index":131,"time_elapsed":195467,"internal_node_id":"0.0-131.0","subject":"S1C0806","sona":"41412","block":4,"time":"2021-09-06T03:51:54.745Z","response":"2nd","certainty":"high","char":"L","transposition":2,"order":["shifted","swapped"],"probe_pitches":[11,8,1,3,8,1,6,8],"shifted_pitches":[11,8,1,4,8,1,6,8],"swapped_pitches":[11,8,1,8,3,1,6,8],"shift_direction":1,"question_num":111,"has_decoy":false},{"rt":869,"stimulus":"[A] option 1, [L] option 2, [G] neither","key_press":76,"name":"choice","trial_type":"html-keyboard-response","trial_index":142,"time_elapsed":210813,"internal_node_id":"0.0-142.0","subject":"S1C0806","sona":"41412","block":4,"time":"2021-09-06T03:51:54.745Z","response":"2nd","certainty":"high","char":"L","transposition":-3,"order":["swapped","shifted"],"probe_pitches":[8,6,1,8,11,4,6,8],"shifted_pitches":[8,6,1,7,11,4,6,8],"swapped_pitches":[8,6,1,11,8,4,6,8],"shift_direction":-1,"question_num":121,"has_decoy":false},{"rt":1804.5,"stimulus":"[A] option 1, [L] option 2, [G] neither","key_press":65,"name":"choice","trial_type":"html-keyboard-response","trial_index":153,"time_elapsed":226954,"internal_node_id":"0.0-153.0","subject":"S1C0806","sona":"41412","block":4,"time":"2021-09-06T03:51:54.745Z","response":"1st","certainty":"high","char":"A","transposition":0,"order":["swapped","shifted"],"probe_pitches":[11,13,9,4,13,6,1,4],"shifted_pitches":[11,13,9,4,12,6,1,4],"swapped_pitches":[11,13,9,13,4,6,1,4],"shift_direction":-1,"question_num":131,"has_decoy":false},{"rt":556,"stimulus":"[A] option 1, [L] option 2, [G] neither","key_press":76,"name":"choice","trial_type":"html-keyboard-response","trial_index":164,"time_elapsed":241892,"internal_node_id":"0.0-164.0","subject":"S1C0806","sona":"41412","block":4,"time":"2021-09-06T03:51:54.745Z","response":"2nd","certainty":"high","char":"L","transposition":0,"order":["swapped","shifted"],"probe_pitches":[2,3,2,9,12,10,8,3],"shifted_pitches":[2,3,2,9,13,10,8,3],"swapped_pitches":[2,3,2,12,9,10,8,3],"shift_direction":1,"question_num":141,"has_decoy":false},{"rt":637.3999999761581,"stimulus":"[A] option 1, [L] option 2, [G] neither","key_press":76,"name":"choice","trial_type":"html-keyboard-response","trial_index":175,"time_elapsed":257125,"internal_node_id":"0.0-175.0","subject":"S1C0806","sona":"41412","block":4,"time":"2021-09-06T03:51:54.745Z","response":"2nd","certainty":"high","char":"L","transposition":3,"order":["swapped","shifted"],"probe_pitches":[10,8,1,5,10,8,3,8],"shifted_pitches":[10,8,1,6,10,8,3,8],"swapped_pitches":[10,8,1,10,5,8,3,8],"shift_direction":1,"question_num":151,"has_decoy":false},{"rt":775.7000000476837,"stimulus":"[A] option 1, [L] option 2, [G] neither","key_press":76,"name":"choice","trial_type":"html-keyboard-response","trial_index":186,"time_elapsed":272517,"internal_node_id":"0.0-186.0","subject":"S1C0806","sona":"41412","block":4,"time":"2021-09-06T03:51:54.745Z","response":"2nd","certainty":"high","char":"L","transposition":2,"order":["shifted","swapped"],"probe_pitches":[6,7,12,14,10,12,6,9],"shifted_pitches":[6,7,12,14,11,12,6,9],"swapped_pitches":[6,7,12,10,14,12,6,9],"shift_direction":1,"question_num":161,"has_decoy":false},{"rt":1111.0999999046326,"stimulus":"[A] option 1, [L] option 2, [G] neither","key_press":76,"name":"choice","trial_type":"html-keyboard-response","trial_index":197,"time_elapsed":288239,"internal_node_id":"0.0-197.0","subject":"S1C0806","sona":"41412","block":4,"time":"2021-09-06T03:51:54.745Z","response":"2nd","certainty":"high","char":"L","transposition":-1,"order":["swapped","shifted"],"probe_pitches":[12,13,6,10,14,6,12,13],"shifted_pitches":[12,13,6,9,14,6,12,13],"swapped_pitches":[12,13,6,14,10,6,12,13],"shift_direction":-1,"question_num":171,"has_decoy":false},{"rt":840,"stimulus":"[A] option 1, [L] option 2, [G] neither","key_press":65,"name":"choice","trial_type":"html-keyboard-response","trial_index":208,"time_elapsed":303658,"internal_node_id":"0.0-208.0","subject":"S1C0806","sona":"41412","block":4,"time":"2021-09-06T03:51:54.745Z","response":"1st","certainty":"high","char":"A","transposition":-2,"order":["shifted","swapped"],"probe_pitches":[6,8,1,6,13,11,4,8],"shifted_pitches":[6,8,1,5,13,11,4,8],"swapped_pitches":[6,8,1,13,6,11,4,8],"shift_direction":-1,"question_num":181,"has_decoy":false},{"rt":679.5,"stimulus":"[A] option 1, [L] option 2, [G] neither","key_press":65,"name":"choice","trial_type":"html-keyboard-response","trial_index":219,"time_elapsed":318828,"internal_node_id":"0.0-219.0","subject":"S1C0806","sona":"41412","block":4,"time":"2021-09-06T03:51:54.745Z","response":"1st","certainty":"high","char":"A","transposition":-2,"order":["shifted","swapped"],"probe_pitches":[5,10,8,10,1,3,1,10],"shifted_pitches":[5,10,8,10,0,3,1,10],"swapped_pitches":[5,10,8,1,10,3,1,10],"shift_direction":-1,"question_num":191,"has_decoy":false}]