[{"rt":6628.899999976158,"stimulus":"[A] option 1, [L] option 2, [G] neither","key_press":76,"name":"choice","trial_type":"html-keyboard-response","trial_index":15,"time_elapsed":107553,"internal_node_id":"0.0-15.0","response":"2nd","certainty":"high","char":"L","transposition":-1,"order":["swapped","shifted"],"probe_pitches":[7,5,-1,1,0,3,1,0],"shifted_pitches":[7,5,-1,2,0,3,1,0],"swapped_pitches":[7,5,-1,0,1,3,1,0],"shift_direction":1,"question_num":1,"has_decoy":false,"subject":"S1C0806","sona":"41412","block":1,"time":"2021-09-06T02:15:45.058Z"},{"rt":2051.3000000715256,"stimulus":"[A] option 1, [L] option 2, [G] neither","key_press":76,"name":"choice","trial_type":"html-keyboard-response","trial_index":26,"time_elapsed":130485,"internal_node_id":"0.0-26.0","response":"2nd","certainty":"high","char":"L","transposition":-3,"order":["shifted","swapped"],"probe_pitches":[9,7,3,0,-3,-1,4,5],"shifted_pitches":[9,7,3,0,-4,-1,4,5],"swapped_pitches":[9,7,3,-3,0,-1,4,5],"shift_direction":-1,"question_num":11,"has_decoy":false,"subject":"S1C0806","sona":"41412","block":1,"time":"2021-09-06T02:15:45.058Z"},{"rt":1328.3000000715256,"stimulus":"[A] option 1, [L] option 2, [G] neither","key_press":76,"name":"choice","trial_type":"html-keyboard-response","trial_index":37,"time_elapsed":149777,"internal_node_id":"0.0-37.0","response":"2nd","certainty":"high","char":"L","transposition":-2,"order":["shifted","swapped"],"probe_pitches":[3,-1,-2,-3,2,8,3,6],"shifted_pitches":[3,-1,-2,-3,1,8,3,6],"swapped_pitches":[3,-1,-2,2,-3,8,3,6],"shift_direction":-1,"question_num":21,"has_decoy":false,"subject":"S1C0806","sona":"41412","block":1,"time":"2021-09-06T02:15:45.058Z"},{"rt":844.6999999284744,"stimulus":"[A] option 1, [L] option 2, [G] neither","key_press":76,"name":"choice","trial_type":"html-keyboard-response","trial_index":48,"time_elapsed":166323,"internal_node_id":"0.0-48.0","response":"2nd","certainty":"high","char":"L","transposition":3,"order":["shifted","swapped"],"probe_pitches":[3,9,2,-2,6,8,0,4],"shifted_pitches":[3,9,2,-2,5,8,0,4],"swapped_pitches":[3,9,2,6,-2,8,0,4],"shift_direction":-1,"question_num":31,"has_decoy":false,"subject":"S1C0806","sona":"41412","block":1,"time":"2021-09-06T02:15:45.058Z"},{"rt":4004.399999976158,"stimulus":"[A] option 1, [L] option 2, [G] neither","key_press":76,"name":"choice","trial_type":"html-keyboard-response","trial_index":59,"time_elapsed":186048,"internal_node_id":"0.0-59.0","response":"2nd","certainty":"high","char":"L","transposition":1,"order":["shifted","swapped"],"probe_pitches":[4,9,5,2,8,-2,6,-1],"shifted_pitches":[4,9,5,2,7,-2,6,-1],"swapped_pitches":[4,9,5,8,2,-2,6,-1],"shift_direction":-1,"question_num":41,"has_decoy":false,"subject":"S1C0806","sona":"41412","block":1,"time":"2021-09-06T02:15:45.058Z"},{"rt":5498.5,"stimulus":"[A] option 1, [L] option 2, [G] neither","key_press":65,"name":"choice","trial_type":"html-keyboard-response","trial_index":70,"time_elapsed":207386,"internal_node_id":"0.0-70.0","response":"1st","certainty":"high","char":"A","transposition":2,"order":["shifted","swapped"],"probe_pitches":[9,4,7,4,2,7,9,-1],"shifted_pitches":[9,4,7,3,2,7,9,-1],"swapped_pitches":[9,4,7,2,4,7,9,-1],"shift_direction":-1,"question_num":51,"has_decoy":false,"subject":"S1C0806","sona":"41412","block":1,"time":"2021-09-06T02:15:45.058Z"},{"rt":604.2000000476837,"stimulus":"[A] option 1, [L] option 2, [G] neither","key_press":76,"name":"choice","trial_type":"html-keyboard-response","trial_index":81,"time_elapsed":223658,"internal_node_id":"0.0-81.0","response":"2nd","certainty":"high","char":"L","transposition":2,"order":["shifted","swapped"],"probe_pitches":[2,1,-3,-1,1,9,6,-3],"shifted_pitches":[2,1,-3,0,1,9,6,-3],"swapped_pitches":[2,1,-3,1,-1,9,6,-3],"shift_direction":1,"question_num":61,"has_decoy":false,"subject":"S1C0806","sona":"41412","block":1,"time":"2021-09-06T02:15:45.058Z"},{"rt":1337.6000000238419,"stimulus":"[A] option 1, [L] option 2, [G] neither","key_press":65,"name":"choice","trial_type":"html-keyboard-response","trial_index":92,"time_elapsed":239401,"internal_node_id":"0.0-92.0","response":"1st","certainty":"high","char":"A","transposition":0,"order":["shifted","swapped"],"probe_pitches":[1,4,8,1,4,8,11,6],"shifted_pitches":[1,4,8,1,3,8,11,6],"swapped_pitches":[1,4,8,4,1,8,11,6],"shift_direction":-1,"question_num":71,"has_decoy":false,"subject":"S1C0806","sona":"41412","block":1,"time":"2021-09-06T02:15:45.058Z"},{"rt":3967.1999999284744,"stimulus":"[A] option 1, [L] option 2, [G] neither","key_press":65,"name":"choice","trial_type":"html-keyboard-response","trial_index":103,"time_elapsed":258740,"internal_node_id":"0.0-103.0","response":"1st","certainty":"high","char":"A","transposition":-2,"order":["swapped","shifted"],"probe_pitches":[4,2,-1,4,9,6,-1,9],"shifted_pitches":[4,2,-1,3,9,6,-1,9],"swapped_pitches":[4,2,-1,9,4,6,-1,9],"shift_direction":-1,"question_num":81,"has_decoy":false,"subject":"S1C0806","sona":"41412","block":1,"time":"2021-09-06T02:15:45.058Z"},{"rt":808.3000000715256,"stimulus":"[A] option 1, [L] option 2, [G] neither","key_press":76,"name":"choice","trial_type":"html-keyboard-response","trial_index":114,"time_elapsed":274952,"internal_node_id":"0.0-114.0","response":"2nd","certainty":"high","char":"L","transposition":1,"order":["swapped","shifted"],"probe_pitches":[4,9,6,4,11,1,6,4],"shifted_pitches":[4,9,6,4,12,1,6,4],"swapped_pitches":[4,9,6,11,4,1,6,4],"shift_direction":1,"question_num":91,"has_decoy":false,"subject":"S1C0806","sona":"41412","block":1,"time":"2021-09-06T02:15:45.058Z"},{"rt":764.5,"stimulus":"[A] option 1, [L] option 2, [G] neither","key_press":65,"name":"choice","trial_type":"html-keyboard-response","trial_index":125,"time_elapsed":296897,"internal_node_id":"0.0-125.0","response":"1st","certainty":"high","char":"A","transposition":-1,"order":["shifted","swapped"],"probe_pitches":[11,7,2,9,11,2,11,4],"shifted_pitches":[11,7,2,9,10,2,11,4],"swapped_pitches":[11,7,2,11,9,2,11,4],"shift_direction":-1,"question_num":101,"has_decoy":false,"subject":"S1C0806","sona":"41412","block":1,"time":"2021-09-06T02:15:45.058Z"},{"rt":10065.399999976158,"stimulus":"[A] option 1, [L] option 2, [G] neither","key_press":71,"name":"choice","trial_type":"html-keyboard-response","trial_index":136,"time_elapsed":322427,"internal_node_id":"0.0-136.0","response":"neither","certainty":"high","char":"G","transposition":0,"order":["swapped","shifted"],"probe_pitches":[-3,1,-3,0,8,-2,1,7],"shifted_pitches":[-3,1,-3,-1,8,-2,1,7],"swapped_pitches":[-3,1,-3,8,0,-2,1,7],"shift_direction":-1,"question_num":111,"has_decoy":false,"subject":"S1C0806","sona":"41412","block":1,"time":"2021-09-06T02:15:45.058Z"},{"rt":1316.7000000476837,"stimulus":"[A] option 1, [L] option 2, [G] neither","key_press":76,"name":"choice","trial_type":"html-keyboard-response","trial_index":147,"time_elapsed":339439,"internal_node_id":"0.0-147.0","response":"2nd","certainty":"high","char":"L","transposition":-2,"order":["swapped","shifted"],"probe_pitches":[5,3,1,3,-1,2,-2,2],"shifted_pitches":[5,3,1,4,-1,2,-2,2],"swapped_pitches":[5,3,1,-1,3,2,-2,2],"shift_direction":1,"question_num":121,"has_decoy":false,"subject":"S1C0806","sona":"41412","block":1,"time":"2021-09-06T02:15:45.058Z"},{"rt":859.1000000238419,"stimulus":"[A] option 1, [L] option 2, [G] neither","key_press":76,"name":"choice","trial_type":"html-keyboard-response","trial_index":158,"time_elapsed":357828,"internal_node_id":"0.0-158.0","response":"2nd","certainty":"high","char":"L","transposition":-3,"order":["swapped","shifted"],"probe_pitches":[-1,2,9,11,4,6,4,2],"shifted_pitches":[-1,2,9,11,5,6,4,2],"swapped_pitches":[-1,2,9,4,11,6,4,2],"shift_direction":1,"question_num":131,"has_decoy":false,"subject":"S1C0806","sona":"41412","block":1,"time":"2021-09-06T02:15:45.058Z"},{"rt":3283.399999976158,"stimulus":"[A] option 1, [L] option 2, [G] neither","key_press":65,"name":"choice","trial_type":"html-keyboard-response","trial_index":169,"time_elapsed":376776,"internal_node_id":"0.0-169.0","response":"1st","certainty":"high","char":"A","transposition":-1,"order":["shifted","swapped"],"probe_pitches":[1,3,6,8,-1,1,6,3],"shifted_pitches":[1,3,6,9,-1,1,6,3],"swapped_pitches":[1,3,6,-1,8,1,6,3],"shift_direction":1,"question_num":141,"has_decoy":false,"subject":"S1C0806","sona":"41412","block":1,"time":"2021-09-06T02:15:45.058Z"},{"rt":4087.899999976158,"stimulus":"[A] option 1, [L] option 2, [G] neither","key_press":65,"name":"choice","trial_type":"html-keyboard-response","trial_index":180,"time_elapsed":395649,"internal_node_id":"0.0-180.0","response":"1st","certainty":"high","char":"A","transposition":3,"order":["swapped","shifted"],"probe_pitches":[1,6,-1,3,1,8,6,3],"shifted_pitches":[1,6,-1,4,1,8,6,3],"swapped_pitches":[1,6,-1,1,3,8,6,3],"shift_direction":1,"question_num":151,"has_decoy":false,"subject":"S1C0806","sona":"41412","block":1,"time":"2021-09-06T02:15:45.058Z"},{"rt":528.2000000476837,"stimulus":"[A] option 1, [L] option 2, [G] neither","key_press":76,"name":"choice","trial_type":"html-keyboard-response","trial_index":191,"time_elapsed":410766,"internal_node_id":"0.0-191.0","response":"2nd","certainty":"high","char":"L","transposition":-2,"order":["swapped","shifted"],"probe_pitches":[4,1,-1,6,9,1,11,-1],"shifted_pitches":[4,1,-1,6,10,1,11,-1],"swapped_pitches":[4,1,-1,9,6,1,11,-1],"shift_direction":1,"question_num":161,"has_decoy":false,"subject":"S1C0806","sona":"41412","block":1,"time":"2021-09-06T02:15:45.058Z"},{"rt":1398.8000000715256,"stimulus":"[A] option 1, [L] option 2, [G] neither","key_press":65,"name":"choice","trial_type":"html-keyboard-response","trial_index":202,"time_elapsed":426768,"internal_node_id":"0.0-202.0","response":"1st","certainty":"high","char":"A","transposition":-3,"order":["shifted","swapped"],"probe_pitches":[6,11,4,1,-1,6,1,8],"shifted_pitches":[6,11,4,0,-1,6,1,8],"swapped_pitches":[6,11,4,-1,1,6,1,8],"shift_direction":-1,"question_num":171,"has_decoy":false,"subject":"S1C0806","sona":"41412","block":1,"time":"2021-09-06T02:15:45.058Z"},{"rt":1635.2999999523163,"stimulus":"[A] option 1, [L] option 2, [G] neither","key_press":76,"name":"choice","trial_type":"html-keyboard-response","trial_index":213,"time_elapsed":442743,"internal_node_id":"0.0-213.0","response":"2nd","certainty":"high","char":"L","transposition":-3,"order":["swapped","shifted"],"probe_pitches":[7,5,8,2,-2,-1,9,-2],"shifted_pitches":[7,5,8,3,-2,-1,9,-2],"swapped_pitches":[7,5,8,-2,2,-1,9,-2],"shift_direction":1,"question_num":181,"has_decoy":false,"subject":"S1C0806","sona":"41412","block":1,"time":"2021-09-06T02:15:45.058Z"},{"rt":4497.300000071526,"stimulus":"[A] option 1, [L] option 2, [G] neither","key_press":71,"name":"choice","trial_type":"html-keyboard-response","trial_index":224,"time_elapsed":462031,"internal_node_id":"0.0-224.0","response":"neither","certainty":"high","char":"G","transposition":-1,"order":["swapped","shifted"],"probe_pitches":[2,-2,3,2,5,7,2,1],"shifted_pitches":[2,-2,3,2,6,7,2,1],"swapped_pitches":[2,-2,3,5,2,7,2,1],"shift_direction":1,"question_num":191,"has_decoy":false,"subject":"S1C0806","sona":"41412","block":1,"time":"2021-09-06T02:15:45.058Z"}]