[{"rt":703,"stimulus":"[A] option 1, [L] option 2, [G] neither","key_press":65,"name":"choice","trial_type":"html-keyboard-response","trial_index":10,"time_elapsed":19050,"internal_node_id":"0.0-10.0","subject":"S1C0806","sona":"41412","block":2,"time":"2021-09-06T02:33:52.518Z","response":"1st","certainty":"high","char":"A","transposition":-1,"order":["shifted","swapped"],"probe_pitches":[0,4,0,-1,3,9,0,6],"shifted_pitches":[0,4,0,-2,3,9,0,6],"swapped_pitches":[0,4,0,3,-1,9,0,6],"shift_direction":-1,"question_num":1,"has_decoy":false},{"rt":1581.6000000238419,"stimulus":"[A] option 1, [L] option 2, [G] neither","key_press":76,"name":"choice","trial_type":"html-keyboard-response","trial_index":21,"time_elapsed":35625,"internal_node_id":"0.0-21.0","subject":"S1C0806","sona":"41412","block":2,"time":"2021-09-06T02:33:52.518Z","response":"2nd","certainty":"high","char":"L","transposition":2,"order":["swapped","shifted"],"probe_pitches":[7,5,12,7,5,9,2,14],"shifted_pitches":[7,5,12,8,5,9,2,14],"swapped_pitches":[7,5,12,5,7,9,2,14],"shift_direction":1,"question_num":11,"has_decoy":false},{"rt":677.1000000238419,"stimulus":"[A] option 1, [L] option 2, [G] neither","key_press":76,"name":"choice","trial_type":"html-keyboard-response","trial_index":32,"time_elapsed":52390,"internal_node_id":"0.0-32.0","subject":"S1C0806","sona":"41412","block":2,"time":"2021-09-06T02:33:52.518Z","response":"2nd","certainty":"high","char":"L","transposition":1,"order":["swapped","shifted"],"probe_pitches":[10,7,12,10,2,5,2,10],"shifted_pitches":[10,7,12,11,2,5,2,10],"swapped_pitches":[10,7,12,2,10,5,2,10],"shift_direction":1,"question_num":21,"has_decoy":false},{"rt":3681.6999999284744,"stimulus":"[A] option 1, [L] option 2, [G] neither","key_press":65,"name":"choice","trial_type":"html-keyboard-response","trial_index":43,"time_elapsed":70625,"internal_node_id":"0.0-43.0","subject":"S1C0806","sona":"41412","block":2,"time":"2021-09-06T02:33:52.518Z","response":"1st","certainty":"high","char":"A","transposition":3,"order":["shifted","swapped"],"probe_pitches":[7,4,11,4,2,9,7,14],"shifted_pitches":[7,4,11,3,2,9,7,14],"swapped_pitches":[7,4,11,2,4,9,7,14],"shift_direction":-1,"question_num":31,"has_decoy":false},{"rt":604.5,"stimulus":"[A] option 1, [L] option 2, [G] neither","key_press":65,"name":"choice","trial_type":"html-keyboard-response","trial_index":54,"time_elapsed":85634,"internal_node_id":"0.0-54.0","subject":"S1C0806","sona":"41412","block":2,"time":"2021-09-06T02:33:52.518Z","response":"1st","certainty":"high","char":"A","transposition":-2,"order":["shifted","swapped"],"probe_pitches":[7,2,5,12,9,7,9,12],"shifted_pitches":[7,2,5,12,10,7,9,12],"swapped_pitches":[7,2,5,9,12,7,9,12],"shift_direction":1,"question_num":41,"has_decoy":false},{"rt":2638.399999976158,"stimulus":"[A] option 1, [L] option 2, [G] neither","key_press":65,"name":"choice","trial_type":"html-keyboard-response","trial_index":65,"time_elapsed":102752,"internal_node_id":"0.0-65.0","subject":"S1C0806","sona":"41412","block":2,"time":"2021-09-06T02:33:52.518Z","response":"1st","certainty":"high","char":"A","transposition":-3,"order":["shifted","swapped"],"probe_pitches":[1,5,-1,7,4,-1,3,8],"shifted_pitches":[1,5,-1,6,4,-1,3,8],"swapped_pitches":[1,5,-1,4,7,-1,3,8],"shift_direction":-1,"question_num":51,"has_decoy":false},{"rt":1207.3000000715256,"stimulus":"[A] option 1, [L] option 2, [G] neither","key_press":76,"name":"choice","trial_type":"html-keyboard-response","trial_index":76,"time_elapsed":118439,"internal_node_id":"0.0-76.0","subject":"S1C0806","sona":"41412","block":2,"time":"2021-09-06T02:33:52.518Z","response":"2nd","certainty":"high","char":"L","transposition":0,"order":["swapped","shifted"],"probe_pitches":[6,2,8,10,7,6,8,7],"shifted_pitches":[6,2,8,9,7,6,8,7],"swapped_pitches":[6,2,8,7,10,6,8,7],"shift_direction":-1,"question_num":61,"has_decoy":false},{"rt":1120.5,"stimulus":"[A] option 1, [L] option 2, [G] neither","key_press":76,"name":"choice","trial_type":"html-keyboard-response","trial_index":87,"time_elapsed":133990,"internal_node_id":"0.0-87.0","subject":"S1C0806","sona":"41412","block":2,"time":"2021-09-06T02:33:52.518Z","response":"2nd","certainty":"high","char":"L","transposition":2,"order":["swapped","shifted"],"probe_pitches":[1,6,-1,6,2,9,10,0],"shifted_pitches":[1,6,-1,5,2,9,10,0],"swapped_pitches":[1,6,-1,2,6,9,10,0],"shift_direction":-1,"question_num":71,"has_decoy":false},{"rt":623.5,"stimulus":"[A] option 1, [L] option 2, [G] neither","key_press":76,"name":"choice","trial_type":"html-keyboard-response","trial_index":98,"time_elapsed":149205,"internal_node_id":"0.0-98.0","subject":"S1C0806","sona":"41412","block":2,"time":"2021-09-06T02:33:52.518Z","response":"2nd","certainty":"high","char":"L","transposition":-1,"order":["swapped","shifted"],"probe_pitches":[14,9,4,11,9,6,4,2],"shifted_pitches":[14,9,4,11,10,6,4,2],"swapped_pitches":[14,9,4,9,11,6,4,2],"shift_direction":1,"question_num":81,"has_decoy":false},{"rt":1872.3000000715256,"stimulus":"[A] option 1, [L] option 2, [G] neither","key_press":65,"name":"choice","trial_type":"html-keyboard-response","trial_index":109,"time_elapsed":165398,"internal_node_id":"0.0-109.0","subject":"S1C0806","sona":"41412","block":2,"time":"2021-09-06T02:33:52.518Z","response":"1st","certainty":"high","char":"A","transposition":-2,"order":["swapped","shifted"],"probe_pitches":[10,7,3,0,1,9,1,7],"shifted_pitches":[10,7,3,0,2,9,1,7],"swapped_pitches":[10,7,3,1,0,9,1,7],"shift_direction":1,"question_num":91,"has_decoy":false},{"rt":710.7000000476837,"stimulus":"[A] option 1, [L] option 2, [G] neither","key_press":65,"name":"choice","trial_type":"html-keyboard-response","trial_index":120,"time_elapsed":180817,"internal_node_id":"0.0-120.0","subject":"S1C0806","sona":"41412","block":2,"time":"2021-09-06T02:33:52.518Z","response":"1st","certainty":"high","char":"A","transposition":3,"order":["swapped","shifted"],"probe_pitches":[4,6,4,0,7,5,1,9],"shifted_pitches":[4,6,4,0,8,5,1,9],"swapped_pitches":[4,6,4,7,0,5,1,9],"shift_direction":1,"question_num":101,"has_decoy":false},{"rt":696.2999999523163,"stimulus":"[A] option 1, [L] option 2, [G] neither","key_press":65,"name":"choice","trial_type":"html-keyboard-response","trial_index":131,"time_elapsed":196898,"internal_node_id":"0.0-131.0","subject":"S1C0806","sona":"41412","block":2,"time":"2021-09-06T02:33:52.518Z","response":"1st","certainty":"high","char":"A","transposition":-3,"order":["swapped","shifted"],"probe_pitches":[6,2,5,11,6,8,2,10],"shifted_pitches":[6,2,5,11,7,8,2,10],"swapped_pitches":[6,2,5,6,11,8,2,10],"shift_direction":1,"question_num":111,"has_decoy":false},{"rt":516.1999999284744,"stimulus":"[A] option 1, [L] option 2, [G] neither","key_press":76,"name":"choice","trial_type":"html-keyboard-response","trial_index":142,"time_elapsed":212654,"internal_node_id":"0.0-142.0","subject":"S1C0806","sona":"41412","block":2,"time":"2021-09-06T02:33:52.518Z","response":"2nd","certainty":"high","char":"L","transposition":-3,"order":["shifted","swapped"],"probe_pitches":[9,6,4,2,11,9,11,6],"shifted_pitches":[9,6,4,2,10,9,11,6],"swapped_pitches":[9,6,4,11,2,9,11,6],"shift_direction":-1,"question_num":121,"has_decoy":false},{"rt":635.8999999761581,"stimulus":"[A] option 1, [L] option 2, [G] neither","key_press":65,"name":"choice","trial_type":"html-keyboard-response","trial_index":153,"time_elapsed":228155,"internal_node_id":"0.0-153.0","subject":"S1C0806","sona":"41412","block":2,"time":"2021-09-06T02:33:52.518Z","response":"1st","certainty":"high","char":"A","transposition":-3,"order":["shifted","swapped"],"probe_pitches":[4,2,7,14,11,9,11,14],"shifted_pitches":[4,2,7,13,11,9,11,14],"swapped_pitches":[4,2,7,11,14,9,11,14],"shift_direction":-1,"question_num":131,"has_decoy":false},{"rt":455.10000002384186,"stimulus":"[A] option 1, [L] option 2, [G] neither","key_press":76,"name":"choice","trial_type":"html-keyboard-response","trial_index":164,"time_elapsed":244012,"internal_node_id":"0.0-164.0","subject":"S1C0806","sona":"41412","block":2,"time":"2021-09-06T02:33:52.518Z","response":"2nd","certainty":"high","char":"L","transposition":1,"order":["shifted","swapped"],"probe_pitches":[8,11,6,2,0,5,6,4],"shifted_pitches":[8,11,6,3,0,5,6,4],"swapped_pitches":[8,11,6,0,2,5,6,4],"shift_direction":1,"question_num":141,"has_decoy":false},{"rt":3727.7000000476837,"stimulus":"[A] option 1, [L] option 2, [G] neither","key_press":76,"name":"choice","trial_type":"html-keyboard-response","trial_index":175,"time_elapsed":262532,"internal_node_id":"0.0-175.0","subject":"S1C0806","sona":"41412","block":2,"time":"2021-09-06T02:33:52.518Z","response":"2nd","certainty":"high","char":"L","transposition":-1,"order":["swapped","shifted"],"probe_pitches":[7,12,7,12,4,9,2,7],"shifted_pitches":[7,12,7,12,3,9,2,7],"swapped_pitches":[7,12,7,4,12,9,2,7],"shift_direction":-1,"question_num":151,"has_decoy":false},{"rt":732.5,"stimulus":"[A] option 1, [L] option 2, [G] neither","key_press":65,"name":"choice","trial_type":"html-keyboard-response","trial_index":186,"time_elapsed":277958,"internal_node_id":"0.0-186.0","subject":"S1C0806","sona":"41412","block":2,"time":"2021-09-06T02:33:52.518Z","response":"1st","certainty":"high","char":"A","transposition":0,"order":["shifted","swapped"],"probe_pitches":[10,7,12,10,2,5,2,7],"shifted_pitches":[10,7,12,11,2,5,2,7],"swapped_pitches":[10,7,12,2,10,5,2,7],"shift_direction":1,"question_num":161,"has_decoy":false},{"rt":679.9000000953674,"stimulus":"[A] option 1, [L] option 2, [G] neither","key_press":65,"name":"choice","trial_type":"html-keyboard-response","trial_index":197,"time_elapsed":293201,"internal_node_id":"0.0-197.0","subject":"S1C0806","sona":"41412","block":2,"time":"2021-09-06T02:33:52.518Z","response":"1st","certainty":"high","char":"A","transposition":-2,"order":["swapped","shifted"],"probe_pitches":[4,9,7,2,9,12,7,9],"shifted_pitches":[4,9,7,2,8,12,7,9],"swapped_pitches":[4,9,7,9,2,12,7,9],"shift_direction":-1,"question_num":171,"has_decoy":false},{"rt":948.5,"stimulus":"[A] option 1, [L] option 2, [G] neither","key_press":76,"name":"choice","trial_type":"html-keyboard-response","trial_index":208,"time_elapsed":308643,"internal_node_id":"0.0-208.0","subject":"S1C0806","sona":"41412","block":2,"time":"2021-09-06T02:33:52.518Z","response":"2nd","certainty":"high","char":"L","transposition":-2,"order":["shifted","swapped"],"probe_pitches":[7,2,4,5,0,7,10,-1],"shifted_pitches":[7,2,4,5,1,7,10,-1],"swapped_pitches":[7,2,4,0,5,7,10,-1],"shift_direction":1,"question_num":181,"has_decoy":false},{"rt":539.1000000238419,"stimulus":"[A] option 1, [L] option 2, [G] neither","key_press":76,"name":"choice","trial_type":"html-keyboard-response","trial_index":219,"time_elapsed":323583,"internal_node_id":"0.0-219.0","subject":"S1C0806","sona":"41412","block":2,"time":"2021-09-06T02:33:52.518Z","response":"2nd","certainty":"high","char":"L","transposition":-1,"order":["shifted","swapped"],"probe_pitches":[2,1,3,8,5,0,3,7],"shifted_pitches":[2,1,3,8,4,0,3,7],"swapped_pitches":[2,1,3,5,8,0,3,7],"shift_direction":-1,"question_num":191,"has_decoy":false}]