[{"rt":377,"stimulus":"[A] option 1, [L] option 2, [G] neither","key_press":65,"name":"choice","trial_type":"html-keyboard-response","trial_index":10,"time_elapsed":17357,"internal_node_id":"0.0-10.0","subject":"S1C0806","sona":"41412","block":5,"time":"2021-09-06T04:10:37.620Z","response":"1st","certainty":"high","char":"A","transposition":-1,"order":["shifted","swapped"],"probe_pitches":[14,9,14,7,11,14,4,2],"shifted_pitches":[14,9,14,8,11,14,4,2],"swapped_pitches":[14,9,14,11,7,14,4,2],"shift_direction":1,"question_num":1,"has_decoy":false},{"rt":470.7000000476837,"stimulus":"[A] option 1, [L] option 2, [G] neither","key_press":76,"name":"choice","trial_type":"html-keyboard-response","trial_index":21,"time_elapsed":31871,"internal_node_id":"0.0-21.0","subject":"S1C0806","sona":"41412","block":5,"time":"2021-09-06T04:10:37.620Z","response":"2nd","certainty":"high","char":"L","transposition":1,"order":["shifted","swapped"],"probe_pitches":[2,5,7,10,5,7,12,14],"shifted_pitches":[2,5,7,11,5,7,12,14],"swapped_pitches":[2,5,7,5,10,7,12,14],"shift_direction":1,"question_num":11,"has_decoy":false},{"rt":884.7000000476837,"stimulus":"[A] option 1, [L] option 2, [G] neither","key_press":76,"name":"choice","trial_type":"html-keyboard-response","trial_index":32,"time_elapsed":47208,"internal_node_id":"0.0-32.0","subject":"S1C0806","sona":"41412","block":5,"time":"2021-09-06T04:10:37.620Z","response":"2nd","certainty":"high","char":"L","transposition":-2,"order":["swapped","shifted"],"probe_pitches":[12,14,10,12,7,2,5,7],"shifted_pitches":[12,14,10,12,6,2,5,7],"swapped_pitches":[12,14,10,7,12,2,5,7],"shift_direction":-1,"question_num":21,"has_decoy":false},{"rt":997.3999999761581,"stimulus":"[A] option 1, [L] option 2, [G] neither","key_press":76,"name":"choice","trial_type":"html-keyboard-response","trial_index":43,"time_elapsed":62712,"internal_node_id":"0.0-43.0","subject":"S1C0806","sona":"41412","block":5,"time":"2021-09-06T04:10:37.620Z","response":"2nd","certainty":"high","char":"L","transposition":-1,"order":["swapped","shifted"],"probe_pitches":[1,3,8,0,5,3,4,5],"shifted_pitches":[1,3,8,0,6,3,4,5],"swapped_pitches":[1,3,8,5,0,3,4,5],"shift_direction":1,"question_num":31,"has_decoy":false},{"rt":1046.5999999046326,"stimulus":"[A] option 1, [L] option 2, [G] neither","key_press":76,"name":"choice","trial_type":"html-keyboard-response","trial_index":54,"time_elapsed":79034,"internal_node_id":"0.0-54.0","subject":"S1C0806","sona":"41412","block":5,"time":"2021-09-06T04:10:37.620Z","response":"2nd","certainty":"high","char":"L","transposition":-3,"order":["swapped","shifted"],"probe_pitches":[2,6,2,9,11,6,11,4],"shifted_pitches":[2,6,2,9,10,6,11,4],"swapped_pitches":[2,6,2,11,9,6,11,4],"shift_direction":-1,"question_num":41,"has_decoy":false},{"rt":1103.6999999284744,"stimulus":"[A] option 1, [L] option 2, [G] neither","key_press":65,"name":"choice","trial_type":"html-keyboard-response","trial_index":65,"time_elapsed":94466,"internal_node_id":"0.0-65.0","subject":"S1C0806","sona":"41412","block":5,"time":"2021-09-06T04:10:37.620Z","response":"1st","certainty":"high","char":"A","transposition":2,"order":["shifted","swapped"],"probe_pitches":[12,7,9,2,4,9,14,12],"shifted_pitches":[12,7,9,1,4,9,14,12],"swapped_pitches":[12,7,9,4,2,9,14,12],"shift_direction":-1,"question_num":51,"has_decoy":false},{"rt":3038.8000000715256,"stimulus":"[A] option 1, [L] option 2, [G] neither","key_press":65,"name":"choice","trial_type":"html-keyboard-response","trial_index":76,"time_elapsed":113180,"internal_node_id":"0.0-76.0","subject":"S1C0806","sona":"41412","block":5,"time":"2021-09-06T04:10:37.620Z","response":"1st","certainty":"high","char":"A","transposition":-3,"order":["shifted","swapped"],"probe_pitches":[7,3,9,5,7,8,2,6],"shifted_pitches":[7,3,9,4,7,8,2,6],"swapped_pitches":[7,3,9,7,5,8,2,6],"shift_direction":-1,"question_num":61,"has_decoy":false},{"rt":503,"stimulus":"[A] option 1, [L] option 2, [G] neither","key_press":76,"name":"choice","trial_type":"html-keyboard-response","trial_index":87,"time_elapsed":128106,"internal_node_id":"0.0-87.0","subject":"S1C0806","sona":"41412","block":5,"time":"2021-09-06T04:10:37.620Z","response":"2nd","certainty":"high","char":"L","transposition":-2,"order":["swapped","shifted"],"probe_pitches":[10,8,12,7,0,8,0,6],"shifted_pitches":[10,8,12,7,-1,8,0,6],"swapped_pitches":[10,8,12,0,7,8,0,6],"shift_direction":-1,"question_num":71,"has_decoy":false},{"rt":2500.6999999284744,"stimulus":"[A] option 1, [L] option 2, [G] neither","key_press":71,"name":"choice","trial_type":"html-keyboard-response","trial_index":98,"time_elapsed":145725,"internal_node_id":"0.0-98.0","subject":"S1C0806","sona":"41412","block":5,"time":"2021-09-06T04:10:37.620Z","response":"neither","certainty":"high","char":"G","transposition":0,"order":["shifted","swapped"],"probe_pitches":[14,12,14,9,7,4,9,12],"shifted_pitches":[14,12,14,9,8,4,9,12],"swapped_pitches":[14,12,14,7,9,4,9,12],"shift_direction":1,"question_num":81,"has_decoy":false},{"rt":482,"stimulus":"[A] option 1, [L] option 2, [G] neither","key_press":76,"name":"choice","trial_type":"html-keyboard-response","trial_index":109,"time_elapsed":161076,"internal_node_id":"0.0-109.0","subject":"S1C0806","sona":"41412","block":5,"time":"2021-09-06T04:10:37.620Z","response":"2nd","certainty":"high","char":"L","transposition":-2,"order":["shifted","swapped"],"probe_pitches":[11,5,11,6,8,4,2,9],"shifted_pitches":[11,5,11,7,8,4,2,9],"swapped_pitches":[11,5,11,8,6,4,2,9],"shift_direction":1,"question_num":91,"has_decoy":false},{"rt":334,"stimulus":"[A] option 1, [L] option 2, [G] neither","key_press":65,"name":"choice","trial_type":"html-keyboard-response","trial_index":120,"time_elapsed":175915,"internal_node_id":"0.0-120.0","subject":"S1C0806","sona":"41412","block":5,"time":"2021-09-06T04:10:37.620Z","response":"1st","certainty":"high","char":"A","transposition":-3,"order":["shifted","swapped"],"probe_pitches":[5,9,12,5,7,9,14,9],"shifted_pitches":[5,9,12,4,7,9,14,9],"swapped_pitches":[5,9,12,7,5,9,14,9],"shift_direction":-1,"question_num":101,"has_decoy":false},{"rt":2242.600000023842,"stimulus":"[A] option 1, [L] option 2, [G] neither","key_press":76,"name":"choice","trial_type":"html-keyboard-response","trial_index":131,"time_elapsed":192469,"internal_node_id":"0.0-131.0","subject":"S1C0806","sona":"41412","block":5,"time":"2021-09-06T04:10:37.620Z","response":"2nd","certainty":"high","char":"L","transposition":3,"order":["shifted","swapped"],"probe_pitches":[4,5,0,8,5,6,7,5],"shifted_pitches":[4,5,0,9,5,6,7,5],"swapped_pitches":[4,5,0,5,8,6,7,5],"shift_direction":1,"question_num":111,"has_decoy":false},{"rt":1414.8000000715256,"stimulus":"[A] option 1, [L] option 2, [G] neither","key_press":76,"name":"choice","trial_type":"html-keyboard-response","trial_index":142,"time_elapsed":208773,"internal_node_id":"0.0-142.0","subject":"S1C0806","sona":"41412","block":5,"time":"2021-09-06T04:10:37.620Z","response":"2nd","certainty":"high","char":"L","transposition":-1,"order":["swapped","shifted"],"probe_pitches":[9,5,7,0,3,7,8,7],"shifted_pitches":[9,5,7,0,2,7,8,7],"swapped_pitches":[9,5,7,3,0,7,8,7],"shift_direction":-1,"question_num":121,"has_decoy":false},{"rt":471.8000000715256,"stimulus":"[A] option 1, [L] option 2, [G] neither","key_press":76,"name":"choice","trial_type":"html-keyboard-response","trial_index":153,"time_elapsed":223604,"internal_node_id":"0.0-153.0","subject":"S1C0806","sona":"41412","block":5,"time":"2021-09-06T04:10:37.620Z","response":"2nd","certainty":"high","char":"L","transposition":-2,"order":["swapped","shifted"],"probe_pitches":[12,14,12,9,2,5,12,7],"shifted_pitches":[12,14,12,10,2,5,12,7],"swapped_pitches":[12,14,12,2,9,5,12,7],"shift_direction":1,"question_num":131,"has_decoy":false},{"rt":694.3999999761581,"stimulus":"[A] option 1, [L] option 2, [G] neither","key_press":76,"name":"choice","trial_type":"html-keyboard-response","trial_index":164,"time_elapsed":238595,"internal_node_id":"0.0-164.0","subject":"S1C0806","sona":"41412","block":5,"time":"2021-09-06T04:10:37.620Z","response":"2nd","certainty":"high","char":"L","transposition":-1,"order":["swapped","shifted"],"probe_pitches":[2,4,9,11,6,14,9,4],"shifted_pitches":[2,4,9,11,7,14,9,4],"swapped_pitches":[2,4,9,6,11,14,9,4],"shift_direction":1,"question_num":141,"has_decoy":false},{"rt":173.5,"stimulus":"[A] option 1, [L] option 2, [G] neither","key_press":76,"name":"choice","trial_type":"html-keyboard-response","trial_index":175,"time_elapsed":253050,"internal_node_id":"0.0-175.0","subject":"S1C0806","sona":"41412","block":5,"time":"2021-09-06T04:10:37.620Z","response":"2nd","certainty":"high","char":"L","transposition":1,"order":["swapped","shifted"],"probe_pitches":[3,5,2,0,7,11,5,9],"shifted_pitches":[3,5,2,0,8,11,5,9],"swapped_pitches":[3,5,2,7,0,11,5,9],"shift_direction":1,"question_num":151,"has_decoy":false},{"rt":1701,"stimulus":"[A] option 1, [L] option 2, [G] neither","key_press":65,"name":"choice","trial_type":"html-keyboard-response","trial_index":186,"time_elapsed":269644,"internal_node_id":"0.0-186.0","subject":"S1C0806","sona":"41412","block":5,"time":"2021-09-06T04:10:37.620Z","response":"1st","certainty":"high","char":"A","transposition":2,"order":["swapped","shifted"],"probe_pitches":[8,7,11,9,5,6,4,1],"shifted_pitches":[8,7,11,10,5,6,4,1],"swapped_pitches":[8,7,11,5,9,6,4,1],"shift_direction":1,"question_num":161,"has_decoy":false},{"rt":1860.2000000476837,"stimulus":"[A] option 1, [L] option 2, [G] neither","key_press":65,"name":"choice","trial_type":"html-keyboard-response","trial_index":197,"time_elapsed":285777,"internal_node_id":"0.0-197.0","subject":"S1C0806","sona":"41412","block":5,"time":"2021-09-06T04:10:37.620Z","response":"1st","certainty":"high","char":"A","transposition":3,"order":["swapped","shifted"],"probe_pitches":[2,4,9,2,11,7,14,9],"shifted_pitches":[2,4,9,2,10,7,14,9],"swapped_pitches":[2,4,9,11,2,7,14,9],"shift_direction":-1,"question_num":171,"has_decoy":false},{"rt":454,"stimulus":"[A] option 1, [L] option 2, [G] neither","key_press":76,"name":"choice","trial_type":"html-keyboard-response","trial_index":208,"time_elapsed":300530,"internal_node_id":"0.0-208.0","subject":"S1C0806","sona":"41412","block":5,"time":"2021-09-06T04:10:37.620Z","response":"2nd","certainty":"high","char":"L","transposition":0,"order":["shifted","swapped"],"probe_pitches":[7,4,8,6,12,10,3,8],"shifted_pitches":[7,4,8,5,12,10,3,8],"swapped_pitches":[7,4,8,12,6,10,3,8],"shift_direction":-1,"question_num":181,"has_decoy":false},{"rt":1316.5,"stimulus":"[A] option 1, [L] option 2, [G] neither","key_press":76,"name":"choice","trial_type":"html-keyboard-response","trial_index":219,"time_elapsed":316491,"internal_node_id":"0.0-219.0","subject":"S1C0806","sona":"41412","block":5,"time":"2021-09-06T04:10:37.620Z","response":"2nd","certainty":"high","char":"L","transposition":-3,"order":["shifted","swapped"],"probe_pitches":[7,12,7,11,4,8,11,12],"shifted_pitches":[7,12,7,11,3,8,11,12],"swapped_pitches":[7,12,7,4,11,8,11,12],"shift_direction":-1,"question_num":191,"has_decoy":false}]