[{"rt":241.69999992847443,"stimulus":"[A] option 1, [L] option 2, [G] neither","key_press":76,"name":"choice","trial_type":"html-keyboard-response","trial_index":10,"time_elapsed":19241,"internal_node_id":"0.0-10.0","subject":"S1C0806","sona":"41412","block":6,"time":"2021-09-06T04:16:10.371Z","response":"2nd","certainty":"high","char":"L","transposition":-2,"order":["swapped","shifted"],"probe_pitches":[2,0,2,7,0,-3,2,4],"shifted_pitches":[2,0,2,7,1,-3,2,4],"swapped_pitches":[2,0,2,0,7,-3,2,4],"shift_direction":1,"question_num":1,"has_decoy":false},{"rt":641.7999999523163,"stimulus":"[A] option 1, [L] option 2, [G] neither","key_press":76,"name":"choice","trial_type":"html-keyboard-response","trial_index":21,"time_elapsed":34030,"internal_node_id":"0.0-21.0","subject":"S1C0806","sona":"41412","block":6,"time":"2021-09-06T04:16:10.371Z","response":"2nd","certainty":"high","char":"L","transposition":-3,"order":["shifted","swapped"],"probe_pitches":[7,13,8,3,7,13,9,1],"shifted_pitches":[7,13,8,4,7,13,9,1],"swapped_pitches":[7,13,8,7,3,13,9,1],"shift_direction":1,"question_num":11,"has_decoy":false},{"rt":832.1000000238419,"stimulus":"[A] option 1, [L] option 2, [G] neither","key_press":65,"name":"choice","trial_type":"html-keyboard-response","trial_index":32,"time_elapsed":49388,"internal_node_id":"0.0-32.0","subject":"S1C0806","sona":"41412","block":6,"time":"2021-09-06T04:16:10.371Z","response":"1st","certainty":"high","char":"A","transposition":-1,"order":["swapped","shifted"],"probe_pitches":[10,11,10,8,1,6,10,5],"shifted_pitches":[10,11,10,7,1,6,10,5],"swapped_pitches":[10,11,10,1,8,6,10,5],"shift_direction":-1,"question_num":21,"has_decoy":false},{"rt":824.1000000238419,"stimulus":"[A] option 1, [L] option 2, [G] neither","key_press":65,"name":"choice","trial_type":"html-keyboard-response","trial_index":43,"time_elapsed":64234,"internal_node_id":"0.0-43.0","subject":"S1C0806","sona":"41412","block":6,"time":"2021-09-06T04:16:10.371Z","response":"1st","certainty":"high","char":"A","transposition":2,"order":["shifted","swapped"],"probe_pitches":[2,7,9,5,-3,7,0,9],"shifted_pitches":[2,7,9,6,-3,7,0,9],"swapped_pitches":[2,7,9,-3,5,7,0,9],"shift_direction":1,"question_num":31,"has_decoy":false},{"rt":1378.3999999761581,"stimulus":"[A] option 1, [L] option 2, [G] neither","key_press":76,"name":"choice","trial_type":"html-keyboard-response","trial_index":54,"time_elapsed":79678,"internal_node_id":"0.0-54.0","subject":"S1C0806","sona":"41412","block":6,"time":"2021-09-06T04:16:10.371Z","response":"2nd","certainty":"high","char":"L","transposition":1,"order":["shifted","swapped"],"probe_pitches":[7,1,8,2,5,4,3,12],"shifted_pitches":[7,1,8,2,6,4,3,12],"swapped_pitches":[7,1,8,5,2,4,3,12],"shift_direction":1,"question_num":41,"has_decoy":false},{"rt":2312.7000000476837,"stimulus":"[A] option 1, [L] option 2, [G] neither","key_press":76,"name":"choice","trial_type":"html-keyboard-response","trial_index":65,"time_elapsed":101887,"internal_node_id":"0.0-65.0","subject":"S1C0806","sona":"41412","block":6,"time":"2021-09-06T04:16:10.371Z","response":"2nd","certainty":"high","char":"L","transposition":-1,"order":["shifted","swapped"],"probe_pitches":[9,6,9,4,1,-1,9,4],"shifted_pitches":[9,6,9,3,1,-1,9,4],"swapped_pitches":[9,6,9,1,4,-1,9,4],"shift_direction":-1,"question_num":51,"has_decoy":false},{"rt":591.3999999761581,"stimulus":"[A] option 1, [L] option 2, [G] neither","key_press":65,"name":"choice","trial_type":"html-keyboard-response","trial_index":76,"time_elapsed":121995,"internal_node_id":"0.0-76.0","subject":"S1C0806","sona":"41412","block":6,"time":"2021-09-06T04:16:10.371Z","response":"1st","certainty":"high","char":"A","transposition":-2,"order":["swapped","shifted"],"probe_pitches":[8,4,7,10,2,7,8,3],"shifted_pitches":[8,4,7,11,2,7,8,3],"swapped_pitches":[8,4,7,2,10,7,8,3],"shift_direction":1,"question_num":61,"has_decoy":false},{"rt":745.6000000238419,"stimulus":"[A] option 1, [L] option 2, [G] neither","key_press":65,"name":"choice","trial_type":"html-keyboard-response","trial_index":87,"time_elapsed":139739,"internal_node_id":"0.0-87.0","subject":"S1C0806","sona":"41412","block":6,"time":"2021-09-06T04:16:10.371Z","response":"1st","certainty":"high","char":"A","transposition":0,"order":["shifted","swapped"],"probe_pitches":[4,2,9,2,-3,7,4,0],"shifted_pitches":[4,2,9,2,-4,7,4,0],"swapped_pitches":[4,2,9,-3,2,7,4,0],"shift_direction":-1,"question_num":71,"has_decoy":false},{"rt":751,"stimulus":"[A] option 1, [L] option 2, [G] neither","key_press":76,"name":"choice","trial_type":"html-keyboard-response","trial_index":98,"time_elapsed":154523,"internal_node_id":"0.0-98.0","subject":"S1C0806","sona":"41412","block":6,"time":"2021-09-06T04:16:10.371Z","response":"2nd","certainty":"high","char":"L","transposition":-1,"order":["shifted","swapped"],"probe_pitches":[1,6,4,9,1,4,1,-1],"shifted_pitches":[1,6,4,9,2,4,1,-1],"swapped_pitches":[1,6,4,1,9,4,1,-1],"shift_direction":1,"question_num":81,"has_decoy":false},{"rt":726.6000000238419,"stimulus":"[A] option 1, [L] option 2, [G] neither","key_press":76,"name":"choice","trial_type":"html-keyboard-response","trial_index":109,"time_elapsed":169469,"internal_node_id":"0.0-109.0","subject":"S1C0806","sona":"41412","block":6,"time":"2021-09-06T04:16:10.371Z","response":"2nd","certainty":"high","char":"L","transposition":-3,"order":["shifted","swapped"],"probe_pitches":[11,9,4,9,13,11,5,2],"shifted_pitches":[11,9,4,9,12,11,5,2],"swapped_pitches":[11,9,4,13,9,11,5,2],"shift_direction":-1,"question_num":91,"has_decoy":false},{"rt":1247.6000000238419,"stimulus":"[A] option 1, [L] option 2, [G] neither","key_press":76,"name":"choice","trial_type":"html-keyboard-response","trial_index":120,"time_elapsed":190603,"internal_node_id":"0.0-120.0","subject":"S1C0806","sona":"41412","block":6,"time":"2021-09-06T04:16:10.371Z","response":"2nd","certainty":"high","char":"L","transposition":3,"order":["shifted","swapped"],"probe_pitches":[7,2,9,4,-3,2,-1,7],"shifted_pitches":[7,2,9,3,-3,2,-1,7],"swapped_pitches":[7,2,9,-3,4,2,-1,7],"shift_direction":-1,"question_num":101,"has_decoy":false},{"rt":430.10000002384186,"stimulus":"[A] option 1, [L] option 2, [G] neither","key_press":65,"name":"choice","trial_type":"html-keyboard-response","trial_index":131,"time_elapsed":205551,"internal_node_id":"0.0-131.0","subject":"S1C0806","sona":"41412","block":6,"time":"2021-09-06T04:16:10.371Z","response":"1st","certainty":"high","char":"A","transposition":1,"order":["swapped","shifted"],"probe_pitches":[9,7,9,7,5,0,2,9],"shifted_pitches":[9,7,9,7,4,0,2,9],"swapped_pitches":[9,7,9,5,7,0,2,9],"shift_direction":-1,"question_num":111,"has_decoy":false},{"rt":1459.1999999284744,"stimulus":"[A] option 1, [L] option 2, [G] neither","key_press":76,"name":"choice","trial_type":"html-keyboard-response","trial_index":142,"time_elapsed":221838,"internal_node_id":"0.0-142.0","subject":"S1C0806","sona":"41412","block":6,"time":"2021-09-06T04:16:10.371Z","response":"2nd","certainty":"high","char":"L","transposition":-2,"order":["swapped","shifted"],"probe_pitches":[6,4,6,2,4,-1,-3,2],"shifted_pitches":[6,4,6,3,4,-1,-3,2],"swapped_pitches":[6,4,6,4,2,-1,-3,2],"shift_direction":1,"question_num":121,"has_decoy":false},{"rt":421.6999999284744,"stimulus":"[A] option 1, [L] option 2, [G] neither","key_press":65,"name":"choice","trial_type":"html-keyboard-response","trial_index":153,"time_elapsed":236641,"internal_node_id":"0.0-153.0","subject":"S1C0806","sona":"41412","block":6,"time":"2021-09-06T04:16:10.371Z","response":"1st","certainty":"high","char":"A","transposition":3,"order":["shifted","swapped"],"probe_pitches":[3,9,11,7,10,9,4,2],"shifted_pitches":[3,9,11,8,10,9,4,2],"swapped_pitches":[3,9,11,10,7,9,4,2],"shift_direction":1,"question_num":131,"has_decoy":false},{"rt":451.60000002384186,"stimulus":"[A] option 1, [L] option 2, [G] neither","key_press":76,"name":"choice","trial_type":"html-keyboard-response","trial_index":164,"time_elapsed":251396,"internal_node_id":"0.0-164.0","subject":"S1C0806","sona":"41412","block":6,"time":"2021-09-06T04:16:10.371Z","response":"2nd","certainty":"high","char":"L","transposition":2,"order":["swapped","shifted"],"probe_pitches":[9,6,3,11,7,12,4,8],"shifted_pitches":[9,6,3,10,7,12,4,8],"swapped_pitches":[9,6,3,7,11,12,4,8],"shift_direction":-1,"question_num":141,"has_decoy":false},{"rt":93,"stimulus":"[A] option 1, [L] option 2, [G] neither","key_press":65,"name":"choice","trial_type":"html-keyboard-response","trial_index":175,"time_elapsed":267688,"internal_node_id":"0.0-175.0","subject":"S1C0806","sona":"41412","block":6,"time":"2021-09-06T04:16:10.371Z","response":"1st","certainty":"high","char":"A","transposition":-3,"order":["swapped","shifted"],"probe_pitches":[-3,-1,2,6,-3,2,4,6],"shifted_pitches":[-3,-1,2,5,-3,2,4,6],"swapped_pitches":[-3,-1,2,-3,6,2,4,6],"shift_direction":-1,"question_num":151,"has_decoy":false},{"rt":255.69999992847443,"stimulus":"[A] option 1, [L] option 2, [G] neither","key_press":76,"name":"choice","trial_type":"html-keyboard-response","trial_index":186,"time_elapsed":282960,"internal_node_id":"0.0-186.0","subject":"S1C0806","sona":"41412","block":6,"time":"2021-09-06T04:16:10.371Z","response":"2nd","certainty":"high","char":"L","transposition":-3,"order":["swapped","shifted"],"probe_pitches":[2,-1,-3,2,7,-1,4,-3],"shifted_pitches":[2,-1,-3,2,8,-1,4,-3],"swapped_pitches":[2,-1,-3,7,2,-1,4,-3],"shift_direction":1,"question_num":161,"has_decoy":false},{"rt":760,"stimulus":"[A] option 1, [L] option 2, [G] neither","key_press":65,"name":"choice","trial_type":"html-keyboard-response","trial_index":197,"time_elapsed":298168,"internal_node_id":"0.0-197.0","subject":"S1C0806","sona":"41412","block":6,"time":"2021-09-06T04:16:10.371Z","response":"1st","certainty":"high","char":"A","transposition":-2,"order":["shifted","swapped"],"probe_pitches":[12,9,10,7,2,10,1,6],"shifted_pitches":[12,9,10,7,3,10,1,6],"swapped_pitches":[12,9,10,2,7,10,1,6],"shift_direction":1,"question_num":171,"has_decoy":false},{"rt":400.7999999523163,"stimulus":"[A] option 1, [L] option 2, [G] neither","key_press":76,"name":"choice","trial_type":"html-keyboard-response","trial_index":208,"time_elapsed":312955,"internal_node_id":"0.0-208.0","subject":"S1C0806","sona":"41412","block":6,"time":"2021-09-06T04:16:10.371Z","response":"2nd","certainty":"high","char":"L","transposition":-1,"order":["swapped","shifted"],"probe_pitches":[13,7,9,3,6,11,6,7],"shifted_pitches":[13,7,9,3,5,11,6,7],"swapped_pitches":[13,7,9,6,3,11,6,7],"shift_direction":-1,"question_num":181,"has_decoy":false},{"rt":1556.8999999761581,"stimulus":"[A] option 1, [L] option 2, [G] neither","key_press":71,"name":"choice","trial_type":"html-keyboard-response","trial_index":219,"time_elapsed":329066,"internal_node_id":"0.0-219.0","subject":"S1C0806","sona":"41412","block":6,"time":"2021-09-06T04:16:10.371Z","response":"neither","certainty":"high","char":"G","transposition":0,"order":["swapped","shifted"],"probe_pitches":[2,1,4,8,10,13,12,1],"shifted_pitches":[2,1,4,8,9,13,12,1],"swapped_pitches":[2,1,4,10,8,13,12,1],"shift_direction":-1,"question_num":191,"has_decoy":false}]