[{"rt":14766.600000023842,"stimulus":"[A] option 1, [L] option 2, [G] neither","key_press":71,"name":"choice","trial_type":"html-keyboard-response","trial_index":10,"time_elapsed":38631,"internal_node_id":"0.0-10.0","subject":"S1C0806","sona":"41412","block":3,"time":"2021-09-06T03:02:14.959Z","response":"neither","certainty":"high","char":"G","transposition":-1,"order":["swapped","shifted"],"probe_pitches":[5,8,10,3,2,1,3,1],"shifted_pitches":[5,8,10,4,2,1,3,1],"swapped_pitches":[5,8,10,2,3,1,3,1],"shift_direction":1,"question_num":1,"has_decoy":false},{"rt":1383.9000000953674,"stimulus":"[A] option 1, [L] option 2, [G] neither","key_press":76,"name":"choice","trial_type":"html-keyboard-response","trial_index":21,"time_elapsed":55423,"internal_node_id":"0.0-21.0","subject":"S1C0806","sona":"41412","block":3,"time":"2021-09-06T03:02:14.959Z","response":"2nd","certainty":"high","char":"L","transposition":-3,"order":["shifted","swapped"],"probe_pitches":[4,0,5,8,4,-2,8,0],"shifted_pitches":[4,0,5,9,4,-2,8,0],"swapped_pitches":[4,0,5,4,8,-2,8,0],"shift_direction":1,"question_num":11,"has_decoy":false},{"rt":546.7999999523163,"stimulus":"[A] option 1, [L] option 2, [G] neither","key_press":76,"name":"choice","trial_type":"html-keyboard-response","trial_index":32,"time_elapsed":70665,"internal_node_id":"0.0-32.0","subject":"S1C0806","sona":"41412","block":3,"time":"2021-09-06T03:02:14.959Z","response":"2nd","certainty":"high","char":"L","transposition":2,"order":["swapped","shifted"],"probe_pitches":[2,0,2,1,4,-1,2,-2],"shifted_pitches":[2,0,2,1,5,-1,2,-2],"swapped_pitches":[2,0,2,4,1,-1,2,-2],"shift_direction":1,"question_num":21,"has_decoy":false},{"rt":599.4000000953674,"stimulus":"[A] option 1, [L] option 2, [G] neither","key_press":65,"name":"choice","trial_type":"html-keyboard-response","trial_index":43,"time_elapsed":86121,"internal_node_id":"0.0-43.0","subject":"S1C0806","sona":"41412","block":3,"time":"2021-09-06T03:02:14.959Z","response":"1st","certainty":"high","char":"A","transposition":-3,"order":["swapped","shifted"],"probe_pitches":[2,6,4,-1,2,4,2,9],"shifted_pitches":[2,6,4,0,2,4,2,9],"swapped_pitches":[2,6,4,2,-1,4,2,9],"shift_direction":1,"question_num":31,"has_decoy":false},{"rt":2006.9000000953674,"stimulus":"[A] option 1, [L] option 2, [G] neither","key_press":76,"name":"choice","trial_type":"html-keyboard-response","trial_index":54,"time_elapsed":103656,"internal_node_id":"0.0-54.0","subject":"S1C0806","sona":"41412","block":3,"time":"2021-09-06T03:02:14.959Z","response":"2nd","certainty":"high","char":"L","transposition":3,"order":["shifted","swapped"],"probe_pitches":[4,1,6,1,-1,8,11,8],"shifted_pitches":[4,1,6,1,-2,8,11,8],"swapped_pitches":[4,1,6,-1,1,8,11,8],"shift_direction":-1,"question_num":41,"has_decoy":false},{"rt":306.60000002384186,"stimulus":"[A] option 1, [L] option 2, [G] neither","key_press":76,"name":"choice","trial_type":"html-keyboard-response","trial_index":65,"time_elapsed":118457,"internal_node_id":"0.0-65.0","subject":"S1C0806","sona":"41412","block":3,"time":"2021-09-06T03:02:14.959Z","response":"2nd","certainty":"high","char":"L","transposition":1,"order":["swapped","shifted"],"probe_pitches":[1,3,-1,3,6,1,6,8],"shifted_pitches":[1,3,-1,3,7,1,6,8],"swapped_pitches":[1,3,-1,6,3,1,6,8],"shift_direction":1,"question_num":51,"has_decoy":false},{"rt":1205.5,"stimulus":"[A] option 1, [L] option 2, [G] neither","key_press":65,"name":"choice","trial_type":"html-keyboard-response","trial_index":76,"time_elapsed":134385,"internal_node_id":"0.0-76.0","subject":"S1C0806","sona":"41412","block":3,"time":"2021-09-06T03:02:14.959Z","response":"1st","certainty":"high","char":"A","transposition":-2,"order":["shifted","swapped"],"probe_pitches":[4,5,0,2,1,10,6,0],"shifted_pitches":[4,5,0,3,1,10,6,0],"swapped_pitches":[4,5,0,1,2,10,6,0],"shift_direction":1,"question_num":61,"has_decoy":false},{"rt":338.7000000476837,"stimulus":"[A] option 1, [L] option 2, [G] neither","key_press":76,"name":"choice","trial_type":"html-keyboard-response","trial_index":87,"time_elapsed":149107,"internal_node_id":"0.0-87.0","subject":"S1C0806","sona":"41412","block":3,"time":"2021-09-06T03:02:14.959Z","response":"2nd","certainty":"high","char":"L","transposition":-2,"order":["swapped","shifted"],"probe_pitches":[11,9,11,9,4,6,4,1],"shifted_pitches":[11,9,11,8,4,6,4,1],"swapped_pitches":[11,9,11,4,9,6,4,1],"shift_direction":-1,"question_num":71,"has_decoy":false},{"rt":4756.5,"stimulus":"[A] option 1, [L] option 2, [G] neither","key_press":65,"name":"choice","trial_type":"html-keyboard-response","trial_index":98,"time_elapsed":168352,"internal_node_id":"0.0-98.0","subject":"S1C0806","sona":"41412","block":3,"time":"2021-09-06T03:02:14.959Z","response":"1st","certainty":"high","char":"A","transposition":1,"order":["shifted","swapped"],"probe_pitches":[7,3,7,0,2,10,8,9],"shifted_pitches":[7,3,7,0,1,10,8,9],"swapped_pitches":[7,3,7,2,0,10,8,9],"shift_direction":-1,"question_num":81,"has_decoy":false},{"rt":1494.8999999761581,"stimulus":"[A] option 1, [L] option 2, [G] neither","key_press":76,"name":"choice","trial_type":"html-keyboard-response","trial_index":109,"time_elapsed":184258,"internal_node_id":"0.0-109.0","subject":"S1C0806","sona":"41412","block":3,"time":"2021-09-06T03:02:14.959Z","response":"2nd","certainty":"high","char":"L","transposition":-2,"order":["shifted","swapped"],"probe_pitches":[-1,1,4,-1,6,8,4,1],"shifted_pitches":[-1,1,4,-1,7,8,4,1],"swapped_pitches":[-1,1,4,6,-1,8,4,1],"shift_direction":1,"question_num":91,"has_decoy":false},{"rt":3658.600000023842,"stimulus":"[A] option 1, [L] option 2, [G] neither","key_press":71,"name":"choice","trial_type":"html-keyboard-response","trial_index":120,"time_elapsed":202326,"internal_node_id":"0.0-120.0","subject":"S1C0806","sona":"41412","block":3,"time":"2021-09-06T03:02:14.959Z","response":"neither","certainty":"high","char":"G","transposition":-2,"order":["shifted","swapped"],"probe_pitches":[3,1,0,-1,7,9,10,2],"shifted_pitches":[3,1,0,-1,8,9,10,2],"swapped_pitches":[3,1,0,7,-1,9,10,2],"shift_direction":1,"question_num":101,"has_decoy":false},{"rt":573.5999999046326,"stimulus":"[A] option 1, [L] option 2, [G] neither","key_press":76,"name":"choice","trial_type":"html-keyboard-response","trial_index":131,"time_elapsed":218222,"internal_node_id":"0.0-131.0","subject":"S1C0806","sona":"41412","block":3,"time":"2021-09-06T03:02:14.959Z","response":"2nd","certainty":"high","char":"L","transposition":-1,"order":["swapped","shifted"],"probe_pitches":[4,7,11,9,2,11,2,7],"shifted_pitches":[4,7,11,9,1,11,2,7],"swapped_pitches":[4,7,11,2,9,11,2,7],"shift_direction":-1,"question_num":111,"has_decoy":false},{"rt":1251.7000000476837,"stimulus":"[A] option 1, [L] option 2, [G] neither","key_press":76,"name":"choice","trial_type":"html-keyboard-response","trial_index":142,"time_elapsed":233881,"internal_node_id":"0.0-142.0","subject":"S1C0806","sona":"41412","block":3,"time":"2021-09-06T03:02:14.959Z","response":"2nd","certainty":"high","char":"L","transposition":-3,"order":["shifted","swapped"],"probe_pitches":[4,8,9,2,8,10,8,4],"shifted_pitches":[4,8,9,2,7,10,8,4],"swapped_pitches":[4,8,9,8,2,10,8,4],"shift_direction":-1,"question_num":121,"has_decoy":false},{"rt":543.5,"stimulus":"[A] option 1, [L] option 2, [G] neither","key_press":65,"name":"choice","trial_type":"html-keyboard-response","trial_index":153,"time_elapsed":308077,"internal_node_id":"0.0-153.0","subject":"S1C0806","sona":"41412","block":3,"time":"2021-09-06T03:02:14.959Z","response":"1st","certainty":"high","char":"A","transposition":-1,"order":["shifted","swapped"],"probe_pitches":[1,6,8,11,3,-1,3,-1],"shifted_pitches":[1,6,8,10,3,-1,3,-1],"swapped_pitches":[1,6,8,3,11,-1,3,-1],"shift_direction":-1,"question_num":131,"has_decoy":false},{"rt":11551.5,"stimulus":"[A] option 1, [L] option 2, [G] neither","key_press":65,"name":"choice","trial_type":"html-keyboard-response","trial_index":164,"time_elapsed":334034,"internal_node_id":"0.0-164.0","subject":"S1C0806","sona":"41412","block":3,"time":"2021-09-06T03:02:14.959Z","response":"1st","certainty":"high","char":"A","transposition":-1,"order":["swapped","shifted"],"probe_pitches":[-1,-2,1,3,10,8,6,0],"shifted_pitches":[-1,-2,1,2,10,8,6,0],"swapped_pitches":[-1,-2,1,10,3,8,6,0],"shift_direction":-1,"question_num":141,"has_decoy":false},{"rt":1288.2000000476837,"stimulus":"[A] option 1, [L] option 2, [G] neither","key_press":65,"name":"choice","trial_type":"html-keyboard-response","trial_index":175,"time_elapsed":349931,"internal_node_id":"0.0-175.0","subject":"S1C0806","sona":"41412","block":3,"time":"2021-09-06T03:02:14.959Z","response":"1st","certainty":"high","char":"A","transposition":0,"order":["shifted","swapped"],"probe_pitches":[4,9,4,7,-1,2,7,11],"shifted_pitches":[4,9,4,8,-1,2,7,11],"swapped_pitches":[4,9,4,-1,7,2,7,11],"shift_direction":1,"question_num":151,"has_decoy":false},{"rt":619.0999999046326,"stimulus":"[A] option 1, [L] option 2, [G] neither","key_press":65,"name":"choice","trial_type":"html-keyboard-response","trial_index":186,"time_elapsed":367795,"internal_node_id":"0.0-186.0","subject":"S1C0806","sona":"41412","block":3,"time":"2021-09-06T03:02:14.959Z","response":"1st","certainty":"high","char":"A","transposition":2,"order":["shifted","swapped"],"probe_pitches":[9,11,4,6,11,2,-1,6],"shifted_pitches":[9,11,4,6,12,2,-1,6],"swapped_pitches":[9,11,4,11,6,2,-1,6],"shift_direction":1,"question_num":161,"has_decoy":false},{"rt":308.7999999523163,"stimulus":"[A] option 1, [L] option 2, [G] neither","key_press":76,"name":"choice","trial_type":"html-keyboard-response","trial_index":197,"time_elapsed":382551,"internal_node_id":"0.0-197.0","subject":"S1C0806","sona":"41412","block":3,"time":"2021-09-06T03:02:14.959Z","response":"2nd","certainty":"high","char":"L","transposition":-3,"order":["swapped","shifted"],"probe_pitches":[1,4,6,-1,1,11,9,11],"shifted_pitches":[1,4,6,-2,1,11,9,11],"swapped_pitches":[1,4,6,1,-1,11,9,11],"shift_direction":-1,"question_num":171,"has_decoy":false},{"rt":1180,"stimulus":"[A] option 1, [L] option 2, [G] neither","key_press":65,"name":"choice","trial_type":"html-keyboard-response","trial_index":208,"time_elapsed":398345,"internal_node_id":"0.0-208.0","subject":"S1C0806","sona":"41412","block":3,"time":"2021-09-06T03:02:14.959Z","response":"1st","certainty":"high","char":"A","transposition":3,"order":["swapped","shifted"],"probe_pitches":[-2,-1,6,-2,1,9,3,10],"shifted_pitches":[-2,-1,6,-2,0,9,3,10],"swapped_pitches":[-2,-1,6,1,-2,9,3,10],"shift_direction":-1,"question_num":181,"has_decoy":false},{"rt":664.5999999046326,"stimulus":"[A] option 1, [L] option 2, [G] neither","key_press":76,"name":"choice","trial_type":"html-keyboard-response","trial_index":219,"time_elapsed":413536,"internal_node_id":"0.0-219.0","subject":"S1C0806","sona":"41412","block":3,"time":"2021-09-06T03:02:14.959Z","response":"2nd","certainty":"high","char":"L","transposition":0,"order":["swapped","shifted"],"probe_pitches":[-1,2,5,7,-2,1,-2,3],"shifted_pitches":[-1,2,5,6,-2,1,-2,3],"swapped_pitches":[-1,2,5,-2,7,1,-2,3],"shift_direction":-1,"question_num":191,"has_decoy":false}]