[{"rt":812.5,"stimulus":"[A] option 1, [L] option 2, [G] neither","key_press":76,"name":"choice","trial_type":"html-keyboard-response","trial_index":10,"time_elapsed":26441,"internal_node_id":"0.0-10.0","subject":"S1C0830","sona":"41450","block":3,"time":"2021-09-17T21:17:07.016Z","response":"2nd","certainty":"high","char":"L","transposition":0,"order":["shifted","swapped"],"probe_pitches":[2,5,8,13,6,4,2,13],"shifted_pitches":[2,5,8,13,7,4,2,13],"swapped_pitches":[2,5,8,6,13,4,2,13],"shift_direction":1,"question_num":1,"has_decoy":false},{"rt":3261.8999999910593,"stimulus":"[A] option 1, [L] option 2, [G] neither","key_press":65,"name":"choice","trial_type":"html-keyboard-response","trial_index":21,"time_elapsed":44741,"internal_node_id":"0.0-21.0","subject":"S1C0830","sona":"41450","block":3,"time":"2021-09-17T21:17:07.016Z","response":"1st","certainty":"high","char":"A","transposition":-1,"order":["shifted","swapped"],"probe_pitches":[10,5,10,5,11,8,2,8],"shifted_pitches":[10,5,10,4,11,8,2,8],"swapped_pitches":[10,5,10,11,5,8,2,8],"shift_direction":-1,"question_num":11,"has_decoy":false},{"rt":8966.89999999106,"stimulus":"[A] option 1, [L] option 2, [G] neither","key_press":71,"name":"choice","trial_type":"html-keyboard-response","trial_index":32,"time_elapsed":68290,"internal_node_id":"0.0-32.0","subject":"S1C0830","sona":"41450","block":3,"time":"2021-09-17T21:17:07.016Z","response":"neither","certainty":"high","char":"G","transposition":2,"order":["swapped","shifted"],"probe_pitches":[13,8,10,6,15,8,13,6],"shifted_pitches":[13,8,10,5,15,8,13,6],"swapped_pitches":[13,8,10,15,6,8,13,6],"shift_direction":-1,"question_num":21,"has_decoy":false},{"rt":573.4000000059605,"stimulus":"[A] option 1, [L] option 2, [G] neither","key_press":65,"name":"choice","trial_type":"html-keyboard-response","trial_index":43,"time_elapsed":84835,"internal_node_id":"0.0-43.0","subject":"S1C0830","sona":"41450","block":3,"time":"2021-09-17T21:17:07.016Z","response":"1st","certainty":"high","char":"A","transposition":-3,"order":["shifted","swapped"],"probe_pitches":[12,10,15,7,5,15,12,5],"shifted_pitches":[12,10,15,7,6,15,12,5],"swapped_pitches":[12,10,15,5,7,15,12,5],"shift_direction":1,"question_num":31,"has_decoy":false},{"rt":429.20000000298023,"stimulus":"[A] option 1, [L] option 2, [G] neither","key_press":76,"name":"choice","trial_type":"html-keyboard-response","trial_index":54,"time_elapsed":103852,"internal_node_id":"0.0-54.0","subject":"S1C0830","sona":"41450","block":3,"time":"2021-09-17T21:17:07.016Z","response":"2nd","certainty":"high","char":"L","transposition":3,"order":["swapped","shifted"],"probe_pitches":[3,5,8,13,15,10,15,10],"shifted_pitches":[3,5,8,13,14,10,15,10],"swapped_pitches":[3,5,8,15,13,10,15,10],"shift_direction":-1,"question_num":41,"has_decoy":false},{"rt":946,"stimulus":"[A] option 1, [L] option 2, [G] neither","key_press":65,"name":"choice","trial_type":"html-keyboard-response","trial_index":65,"time_elapsed":119575,"internal_node_id":"0.0-65.0","subject":"S1C0830","sona":"41450","block":3,"time":"2021-09-17T21:17:07.016Z","response":"1st","certainty":"high","char":"A","transposition":3,"order":["swapped","shifted"],"probe_pitches":[7,5,6,12,4,13,12,2],"shifted_pitches":[7,5,6,12,3,13,12,2],"swapped_pitches":[7,5,6,4,12,13,12,2],"shift_direction":-1,"question_num":51,"has_decoy":false},{"rt":444.90000000596046,"stimulus":"[A] option 1, [L] option 2, [G] neither","key_press":76,"name":"choice","trial_type":"html-keyboard-response","trial_index":76,"time_elapsed":134417,"internal_node_id":"0.0-76.0","subject":"S1C0830","sona":"41450","block":3,"time":"2021-09-17T21:17:07.016Z","response":"2nd","certainty":"high","char":"L","transposition":2,"order":["swapped","shifted"],"probe_pitches":[7,10,13,8,2,1,12,13],"shifted_pitches":[7,10,13,9,2,1,12,13],"swapped_pitches":[7,10,13,2,8,1,12,13],"shift_direction":1,"question_num":61,"has_decoy":false},{"rt":475.3999999910593,"stimulus":"[A] option 1, [L] option 2, [G] neither","key_press":76,"name":"choice","trial_type":"html-keyboard-response","trial_index":87,"time_elapsed":150368,"internal_node_id":"0.0-87.0","subject":"S1C0830","sona":"41450","block":3,"time":"2021-09-17T21:17:07.016Z","response":"2nd","certainty":"high","char":"L","transposition":-3,"order":["shifted","swapped"],"probe_pitches":[6,8,13,8,11,15,13,3],"shifted_pitches":[6,8,13,8,10,15,13,3],"swapped_pitches":[6,8,13,11,8,15,13,3],"shift_direction":-1,"question_num":71,"has_decoy":false},{"rt":355,"stimulus":"[A] option 1, [L] option 2, [G] neither","key_press":76,"name":"choice","trial_type":"html-keyboard-response","trial_index":98,"time_elapsed":165154,"internal_node_id":"0.0-98.0","subject":"S1C0830","sona":"41450","block":3,"time":"2021-09-17T21:17:07.016Z","response":"2nd","certainty":"high","char":"L","transposition":-2,"order":["swapped","shifted"],"probe_pitches":[12,9,4,7,5,12,7,12],"shifted_pitches":[12,9,4,8,5,12,7,12],"swapped_pitches":[12,9,4,5,7,12,7,12],"shift_direction":1,"question_num":81,"has_decoy":false},{"rt":2069.5,"stimulus":"[A] option 1, [L] option 2, [G] neither","key_press":76,"name":"choice","trial_type":"html-keyboard-response","trial_index":109,"time_elapsed":181753,"internal_node_id":"0.0-109.0","subject":"S1C0830","sona":"41450","block":3,"time":"2021-09-17T21:17:07.016Z","response":"2nd","certainty":"high","char":"L","transposition":0,"order":["shifted","swapped"],"probe_pitches":[12,8,10,15,12,5,12,10],"shifted_pitches":[12,8,10,15,13,5,12,10],"swapped_pitches":[12,8,10,12,15,5,12,10],"shift_direction":1,"question_num":91,"has_decoy":false},{"rt":320.3999999910593,"stimulus":"[A] option 1, [L] option 2, [G] neither","key_press":76,"name":"choice","trial_type":"html-keyboard-response","trial_index":120,"time_elapsed":196388,"internal_node_id":"0.0-120.0","subject":"S1C0830","sona":"41450","block":3,"time":"2021-09-17T21:17:07.016Z","response":"2nd","certainty":"high","char":"L","transposition":-3,"order":["shifted","swapped"],"probe_pitches":[9,5,9,13,7,12,1,7],"shifted_pitches":[9,5,9,13,6,12,1,7],"swapped_pitches":[9,5,9,7,13,12,1,7],"shift_direction":-1,"question_num":101,"has_decoy":false},{"rt":1253.5999999940395,"stimulus":"[A] option 1, [L] option 2, [G] neither","key_press":65,"name":"choice","trial_type":"html-keyboard-response","trial_index":131,"time_elapsed":212014,"internal_node_id":"0.0-131.0","subject":"S1C0830","sona":"41450","block":3,"time":"2021-09-17T21:17:07.016Z","response":"1st","certainty":"high","char":"A","transposition":-1,"order":["shifted","swapped"],"probe_pitches":[13,10,6,13,15,8,15,6],"shifted_pitches":[13,10,6,12,15,8,15,6],"swapped_pitches":[13,10,6,15,13,8,15,6],"shift_direction":-1,"question_num":111,"has_decoy":false},{"rt":481.6000000089407,"stimulus":"[A] option 1, [L] option 2, [G] neither","key_press":76,"name":"choice","trial_type":"html-keyboard-response","trial_index":142,"time_elapsed":229013,"internal_node_id":"0.0-142.0","subject":"S1C0830","sona":"41450","block":3,"time":"2021-09-17T21:17:07.016Z","response":"2nd","certainty":"high","char":"L","transposition":-2,"order":["swapped","shifted"],"probe_pitches":[6,11,13,11,3,8,3,15],"shifted_pitches":[6,11,13,11,4,8,3,15],"swapped_pitches":[6,11,13,3,11,8,3,15],"shift_direction":1,"question_num":121,"has_decoy":false},{"rt":725.7000000029802,"stimulus":"[A] option 1, [L] option 2, [G] neither","key_press":65,"name":"choice","trial_type":"html-keyboard-response","trial_index":153,"time_elapsed":245997,"internal_node_id":"0.0-153.0","subject":"S1C0830","sona":"41450","block":3,"time":"2021-09-17T21:17:07.016Z","response":"1st","certainty":"high","char":"A","transposition":1,"order":["shifted","swapped"],"probe_pitches":[12,15,8,15,10,5,8,10],"shifted_pitches":[12,15,8,16,10,5,8,10],"swapped_pitches":[12,15,8,10,15,5,8,10],"shift_direction":1,"question_num":131,"has_decoy":false},{"rt":1448.300000011921,"stimulus":"[A] option 1, [L] option 2, [G] neither","key_press":76,"name":"choice","trial_type":"html-keyboard-response","trial_index":164,"time_elapsed":263605,"internal_node_id":"0.0-164.0","subject":"S1C0830","sona":"41450","block":3,"time":"2021-09-17T21:17:07.016Z","response":"2nd","certainty":"high","char":"L","transposition":-2,"order":["swapped","shifted"],"probe_pitches":[3,5,8,10,3,5,13,10],"shifted_pitches":[3,5,8,9,3,5,13,10],"swapped_pitches":[3,5,8,3,10,5,13,10],"shift_direction":-1,"question_num":141,"has_decoy":false},{"rt":771.5,"stimulus":"[A] option 1, [L] option 2, [G] neither","key_press":76,"name":"choice","trial_type":"html-keyboard-response","trial_index":175,"time_elapsed":281382,"internal_node_id":"0.0-175.0","subject":"S1C0830","sona":"41450","block":3,"time":"2021-09-17T21:17:07.016Z","response":"2nd","certainty":"high","char":"L","transposition":-1,"order":["shifted","swapped"],"probe_pitches":[3,4,7,10,4,13,3,2],"shifted_pitches":[3,4,7,10,5,13,3,2],"swapped_pitches":[3,4,7,4,10,13,3,2],"shift_direction":1,"question_num":151,"has_decoy":false},{"rt":1143.9000000059605,"stimulus":"[A] option 1, [L] option 2, [G] neither","key_press":76,"name":"choice","trial_type":"html-keyboard-response","trial_index":186,"time_elapsed":297550,"internal_node_id":"0.0-186.0","subject":"S1C0830","sona":"41450","block":3,"time":"2021-09-17T21:17:07.016Z","response":"2nd","certainty":"high","char":"L","transposition":-1,"order":["swapped","shifted"],"probe_pitches":[5,3,7,15,12,3,10,7],"shifted_pitches":[5,3,7,16,12,3,10,7],"swapped_pitches":[5,3,7,12,15,3,10,7],"shift_direction":1,"question_num":161,"has_decoy":false},{"rt":2481.5999999940395,"stimulus":"[A] option 1, [L] option 2, [G] neither","key_press":71,"name":"choice","trial_type":"html-keyboard-response","trial_index":197,"time_elapsed":314334,"internal_node_id":"0.0-197.0","subject":"S1C0830","sona":"41450","block":3,"time":"2021-09-17T21:17:07.016Z","response":"neither","certainty":"high","char":"G","transposition":-3,"order":["shifted","swapped"],"probe_pitches":[3,9,13,12,10,7,10,2],"shifted_pitches":[3,9,13,11,10,7,10,2],"swapped_pitches":[3,9,13,10,12,7,10,2],"shift_direction":-1,"question_num":171,"has_decoy":false},{"rt":2140.2999999970198,"stimulus":"[A] option 1, [L] option 2, [G] neither","key_press":65,"name":"choice","trial_type":"html-keyboard-response","trial_index":208,"time_elapsed":331768,"internal_node_id":"0.0-208.0","subject":"S1C0830","sona":"41450","block":3,"time":"2021-09-17T21:17:07.016Z","response":"1st","certainty":"high","char":"A","transposition":1,"order":["swapped","shifted"],"probe_pitches":[1,3,8,11,2,6,1,5],"shifted_pitches":[1,3,8,10,2,6,1,5],"swapped_pitches":[1,3,8,2,11,6,1,5],"shift_direction":-1,"question_num":181,"has_decoy":false},{"rt":804.6000000089407,"stimulus":"[A] option 1, [L] option 2, [G] neither","key_press":65,"name":"choice","trial_type":"html-keyboard-response","trial_index":219,"time_elapsed":346992,"internal_node_id":"0.0-219.0","subject":"S1C0830","sona":"41450","block":3,"time":"2021-09-17T21:17:07.016Z","response":"1st","certainty":"high","char":"A","transposition":-2,"order":["swapped","shifted"],"probe_pitches":[8,2,8,6,11,10,11,13],"shifted_pitches":[8,2,8,6,12,10,11,13],"swapped_pitches":[8,2,8,11,6,10,11,13],"shift_direction":1,"question_num":191,"has_decoy":false}]