[{"rt":322.20000000298023,"stimulus":"[A] option 1, [L] option 2, [G] neither","key_press":76,"name":"choice","trial_type":"html-keyboard-response","trial_index":10,"time_elapsed":16158,"internal_node_id":"0.0-10.0","subject":"S1C0830","sona":"41450","block":5,"time":"2021-09-17T21:28:23.705Z","response":"2nd","certainty":"high","char":"L","transposition":-3,"order":["swapped","shifted"],"probe_pitches":[13,8,11,6,3,11,13,6],"shifted_pitches":[13,8,11,6,2,11,13,6],"swapped_pitches":[13,8,11,3,6,11,13,6],"shift_direction":-1,"question_num":1,"has_decoy":false},{"rt":101,"stimulus":"[A] option 1, [L] option 2, [G] neither","key_press":76,"name":"choice","trial_type":"html-keyboard-response","trial_index":21,"time_elapsed":30571,"internal_node_id":"0.0-21.0","subject":"S1C0830","sona":"41450","block":5,"time":"2021-09-17T21:28:23.705Z","response":"2nd","certainty":"high","char":"L","transposition":3,"order":["swapped","shifted"],"probe_pitches":[6,8,13,8,11,13,6,3],"shifted_pitches":[6,8,13,7,11,13,6,3],"swapped_pitches":[6,8,13,11,8,13,6,3],"shift_direction":-1,"question_num":11,"has_decoy":false},{"rt":494.6000000089407,"stimulus":"[A] option 1, [L] option 2, [G] neither","key_press":71,"name":"choice","trial_type":"html-keyboard-response","trial_index":32,"time_elapsed":45578,"internal_node_id":"0.0-32.0","subject":"S1C0830","sona":"41450","block":5,"time":"2021-09-17T21:28:23.705Z","response":"neither","certainty":"high","char":"G","transposition":-1,"order":["shifted","swapped"],"probe_pitches":[6,8,7,0,2,7,5,-3],"shifted_pitches":[6,8,7,1,2,7,5,-3],"swapped_pitches":[6,8,7,2,0,7,5,-3],"shift_direction":1,"question_num":21,"has_decoy":false},{"rt":2141.800000011921,"stimulus":"[A] option 1, [L] option 2, [G] neither","key_press":76,"name":"choice","trial_type":"html-keyboard-response","trial_index":43,"time_elapsed":62040,"internal_node_id":"0.0-43.0","subject":"S1C0830","sona":"41450","block":5,"time":"2021-09-17T21:28:23.705Z","response":"2nd","certainty":"high","char":"L","transposition":2,"order":["shifted","swapped"],"probe_pitches":[9,4,7,9,6,2,3,-2],"shifted_pitches":[9,4,7,8,6,2,3,-2],"swapped_pitches":[9,4,7,6,9,2,3,-2],"shift_direction":-1,"question_num":31,"has_decoy":false},{"rt":431.70000000298023,"stimulus":"[A] option 1, [L] option 2, [G] neither","key_press":76,"name":"choice","trial_type":"html-keyboard-response","trial_index":54,"time_elapsed":78282,"internal_node_id":"0.0-54.0","subject":"S1C0830","sona":"41450","block":5,"time":"2021-09-17T21:28:23.705Z","response":"2nd","certainty":"high","char":"L","transposition":2,"order":["swapped","shifted"],"probe_pitches":[9,13,11,13,6,4,9,4],"shifted_pitches":[9,13,11,14,6,4,9,4],"swapped_pitches":[9,13,11,6,13,4,9,4],"shift_direction":1,"question_num":41,"has_decoy":false},{"rt":801.7000000029802,"stimulus":"[A] option 1, [L] option 2, [G] neither","key_press":71,"name":"choice","trial_type":"html-keyboard-response","trial_index":65,"time_elapsed":94118,"internal_node_id":"0.0-65.0","subject":"S1C0830","sona":"41450","block":5,"time":"2021-09-17T21:28:23.705Z","response":"neither","certainty":"high","char":"G","transposition":-3,"order":["shifted","swapped"],"probe_pitches":[8,2,8,3,5,9,6,7],"shifted_pitches":[8,2,8,4,5,9,6,7],"swapped_pitches":[8,2,8,5,3,9,6,7],"shift_direction":1,"question_num":51,"has_decoy":false},{"rt":2097.699999988079,"stimulus":"[A] option 1, [L] option 2, [G] neither","key_press":71,"name":"choice","trial_type":"html-keyboard-response","trial_index":76,"time_elapsed":110582,"internal_node_id":"0.0-76.0","subject":"S1C0830","sona":"41450","block":5,"time":"2021-09-17T21:28:23.705Z","response":"neither","certainty":"high","char":"G","transposition":-3,"order":["swapped","shifted"],"probe_pitches":[11,6,11,13,8,4,6,8],"shifted_pitches":[11,6,11,13,9,4,6,8],"swapped_pitches":[11,6,11,8,13,4,6,8],"shift_direction":1,"question_num":61,"has_decoy":false},{"rt":402,"stimulus":"[A] option 1, [L] option 2, [G] neither","key_press":65,"name":"choice","trial_type":"html-keyboard-response","trial_index":87,"time_elapsed":125605,"internal_node_id":"0.0-87.0","subject":"S1C0830","sona":"41450","block":5,"time":"2021-09-17T21:28:23.705Z","response":"1st","certainty":"high","char":"A","transposition":1,"order":["shifted","swapped"],"probe_pitches":[11,6,4,6,13,9,4,13],"shifted_pitches":[11,6,4,5,13,9,4,13],"swapped_pitches":[11,6,4,13,6,9,4,13],"shift_direction":-1,"question_num":71,"has_decoy":false},{"rt":527.7999999970198,"stimulus":"[A] option 1, [L] option 2, [G] neither","key_press":71,"name":"choice","trial_type":"html-keyboard-response","trial_index":98,"time_elapsed":147374,"internal_node_id":"0.0-98.0","subject":"S1C0830","sona":"41450","block":5,"time":"2021-09-17T21:28:23.705Z","response":"neither","certainty":"high","char":"G","transposition":0,"order":["swapped","shifted"],"probe_pitches":[5,7,9,1,3,7,2,-2],"shifted_pitches":[5,7,9,0,3,7,2,-2],"swapped_pitches":[5,7,9,3,1,7,2,-2],"shift_direction":-1,"question_num":81,"has_decoy":false},{"rt":1133.5,"stimulus":"[A] option 1, [L] option 2, [G] neither","key_press":71,"name":"choice","trial_type":"html-keyboard-response","trial_index":109,"time_elapsed":162860,"internal_node_id":"0.0-109.0","subject":"S1C0830","sona":"41450","block":5,"time":"2021-09-17T21:28:23.705Z","response":"neither","certainty":"high","char":"G","transposition":-1,"order":["swapped","shifted"],"probe_pitches":[4,0,5,8,2,-1,-2,0],"shifted_pitches":[4,0,5,8,3,-1,-2,0],"swapped_pitches":[4,0,5,2,8,-1,-2,0],"shift_direction":1,"question_num":91,"has_decoy":false},{"rt":1545.1000000089407,"stimulus":"[A] option 1, [L] option 2, [G] neither","key_press":76,"name":"choice","trial_type":"html-keyboard-response","trial_index":120,"time_elapsed":178726,"internal_node_id":"0.0-120.0","subject":"S1C0830","sona":"41450","block":5,"time":"2021-09-17T21:28:23.705Z","response":"2nd","certainty":"high","char":"L","transposition":-3,"order":["shifted","swapped"],"probe_pitches":[0,4,3,4,7,5,7,-2],"shifted_pitches":[0,4,3,4,6,5,7,-2],"swapped_pitches":[0,4,3,7,4,5,7,-2],"shift_direction":-1,"question_num":101,"has_decoy":false},{"rt":362.79999999701977,"stimulus":"[A] option 1, [L] option 2, [G] neither","key_press":65,"name":"choice","trial_type":"html-keyboard-response","trial_index":131,"time_elapsed":193539,"internal_node_id":"0.0-131.0","subject":"S1C0830","sona":"41450","block":5,"time":"2021-09-17T21:28:23.705Z","response":"1st","certainty":"high","char":"A","transposition":0,"order":["shifted","swapped"],"probe_pitches":[8,10,8,1,6,3,6,8],"shifted_pitches":[8,10,8,1,7,3,6,8],"swapped_pitches":[8,10,8,6,1,3,6,8],"shift_direction":1,"question_num":111,"has_decoy":false},{"rt":374.6000000089407,"stimulus":"[A] option 1, [L] option 2, [G] neither","key_press":76,"name":"choice","trial_type":"html-keyboard-response","trial_index":142,"time_elapsed":208612,"internal_node_id":"0.0-142.0","subject":"S1C0830","sona":"41450","block":5,"time":"2021-09-17T21:28:23.705Z","response":"2nd","certainty":"high","char":"L","transposition":-2,"order":["shifted","swapped"],"probe_pitches":[0,4,5,8,1,6,0,-2],"shifted_pitches":[0,4,5,8,2,6,0,-2],"swapped_pitches":[0,4,5,1,8,6,0,-2],"shift_direction":1,"question_num":121,"has_decoy":false},{"rt":342.20000000298023,"stimulus":"[A] option 1, [L] option 2, [G] neither","key_press":71,"name":"choice","trial_type":"html-keyboard-response","trial_index":153,"time_elapsed":226926,"internal_node_id":"0.0-153.0","subject":"S1C0830","sona":"41450","block":5,"time":"2021-09-17T21:28:23.705Z","response":"neither","certainty":"high","char":"G","transposition":-2,"order":["swapped","shifted"],"probe_pitches":[-2,2,-2,6,8,-2,4,2],"shifted_pitches":[-2,2,-2,6,7,-2,4,2],"swapped_pitches":[-2,2,-2,8,6,-2,4,2],"shift_direction":-1,"question_num":131,"has_decoy":false},{"rt":701.2999999970198,"stimulus":"[A] option 1, [L] option 2, [G] neither","key_press":65,"name":"choice","trial_type":"html-keyboard-response","trial_index":164,"time_elapsed":241684,"internal_node_id":"0.0-164.0","subject":"S1C0830","sona":"41450","block":5,"time":"2021-09-17T21:28:23.705Z","response":"1st","certainty":"high","char":"A","transposition":-2,"order":["shifted","swapped"],"probe_pitches":[6,3,10,13,8,10,13,1],"shifted_pitches":[6,3,10,14,8,10,13,1],"swapped_pitches":[6,3,10,8,13,10,13,1],"shift_direction":1,"question_num":141,"has_decoy":false},{"rt":1499.7000000029802,"stimulus":"[A] option 1, [L] option 2, [G] neither","key_press":71,"name":"choice","trial_type":"html-keyboard-response","trial_index":175,"time_elapsed":259858,"internal_node_id":"0.0-175.0","subject":"S1C0830","sona":"41450","block":5,"time":"2021-09-17T21:28:23.705Z","response":"neither","certainty":"high","char":"G","transposition":3,"order":["swapped","shifted"],"probe_pitches":[3,7,0,8,6,3,1,9],"shifted_pitches":[3,7,0,8,5,3,1,9],"swapped_pitches":[3,7,0,6,8,3,1,9],"shift_direction":-1,"question_num":151,"has_decoy":false},{"rt":1030.1000000089407,"stimulus":"[A] option 1, [L] option 2, [G] neither","key_press":71,"name":"choice","trial_type":"html-keyboard-response","trial_index":186,"time_elapsed":275346,"internal_node_id":"0.0-186.0","subject":"S1C0830","sona":"41450","block":5,"time":"2021-09-17T21:28:23.705Z","response":"neither","certainty":"high","char":"G","transposition":-1,"order":["shifted","swapped"],"probe_pitches":[13,10,8,5,1,3,8,13],"shifted_pitches":[13,10,8,5,0,3,8,13],"swapped_pitches":[13,10,8,1,5,3,8,13],"shift_direction":-1,"question_num":161,"has_decoy":false},{"rt":3096.9000000059605,"stimulus":"[A] option 1, [L] option 2, [G] neither","key_press":71,"name":"choice","trial_type":"html-keyboard-response","trial_index":197,"time_elapsed":298436,"internal_node_id":"0.0-197.0","subject":"S1C0830","sona":"41450","block":5,"time":"2021-09-17T21:28:23.705Z","response":"neither","certainty":"high","char":"G","transposition":1,"order":["swapped","shifted"],"probe_pitches":[5,3,2,-2,5,9,0,5],"shifted_pitches":[5,3,2,-1,5,9,0,5],"swapped_pitches":[5,3,2,5,-2,9,0,5],"shift_direction":1,"question_num":171,"has_decoy":false},{"rt":533.5,"stimulus":"[A] option 1, [L] option 2, [G] neither","key_press":65,"name":"choice","trial_type":"html-keyboard-response","trial_index":208,"time_elapsed":314427,"internal_node_id":"0.0-208.0","subject":"S1C0830","sona":"41450","block":5,"time":"2021-09-17T21:28:23.705Z","response":"1st","certainty":"high","char":"A","transposition":-2,"order":["shifted","swapped"],"probe_pitches":[5,1,3,1,8,3,8,10],"shifted_pitches":[5,1,3,1,7,3,8,10],"swapped_pitches":[5,1,3,8,1,3,8,10],"shift_direction":-1,"question_num":181,"has_decoy":false},{"rt":2314.6000000089407,"stimulus":"[A] option 1, [L] option 2, [G] neither","key_press":71,"name":"choice","trial_type":"html-keyboard-response","trial_index":219,"time_elapsed":335136,"internal_node_id":"0.0-219.0","subject":"S1C0830","sona":"41450","block":5,"time":"2021-09-17T21:28:23.705Z","response":"neither","certainty":"high","char":"G","transposition":-1,"order":["swapped","shifted"],"probe_pitches":[1,6,1,6,8,11,4,13],"shifted_pitches":[1,6,1,7,8,11,4,13],"swapped_pitches":[1,6,1,8,6,11,4,13],"shift_direction":1,"question_num":191,"has_decoy":false}]