[{"rt":289.1000000089407,"stimulus":"[A] option 1, [L] option 2, [G] neither","key_press":76,"name":"choice","trial_type":"html-keyboard-response","trial_index":10,"time_elapsed":16915,"internal_node_id":"0.0-10.0","subject":"S1C0830","sona":"41450","block":2,"time":"2021-09-17T21:11:15.563Z","response":"2nd","certainty":"high","char":"L","transposition":-3,"order":["swapped","shifted"],"probe_pitches":[5,7,12,9,7,0,2,7],"shifted_pitches":[5,7,12,9,8,0,2,7],"swapped_pitches":[5,7,12,7,9,0,2,7],"shift_direction":1,"question_num":1,"has_decoy":false},{"rt":431.09999999403954,"stimulus":"[A] option 1, [L] option 2, [G] neither","key_press":76,"name":"choice","trial_type":"html-keyboard-response","trial_index":21,"time_elapsed":31959,"internal_node_id":"0.0-21.0","subject":"S1C0830","sona":"41450","block":2,"time":"2021-09-17T21:11:15.563Z","response":"2nd","certainty":"high","char":"L","transposition":3,"order":["swapped","shifted"],"probe_pitches":[6,5,-1,6,8,-2,4,3],"shifted_pitches":[6,5,-1,7,8,-2,4,3],"swapped_pitches":[6,5,-1,8,6,-2,4,3],"shift_direction":1,"question_num":11,"has_decoy":false},{"rt":322.70000000298023,"stimulus":"[A] option 1, [L] option 2, [G] neither","key_press":76,"name":"choice","trial_type":"html-keyboard-response","trial_index":32,"time_elapsed":46991,"internal_node_id":"0.0-32.0","subject":"S1C0830","sona":"41450","block":2,"time":"2021-09-17T21:11:15.563Z","response":"2nd","certainty":"high","char":"L","transposition":0,"order":["swapped","shifted"],"probe_pitches":[5,4,7,1,8,7,5,-2],"shifted_pitches":[5,4,7,2,8,7,5,-2],"swapped_pitches":[5,4,7,8,1,7,5,-2],"shift_direction":1,"question_num":21,"has_decoy":false},{"rt":1050.699999988079,"stimulus":"[A] option 1, [L] option 2, [G] neither","key_press":71,"name":"choice","trial_type":"html-keyboard-response","trial_index":43,"time_elapsed":62887,"internal_node_id":"0.0-43.0","subject":"S1C0830","sona":"41450","block":2,"time":"2021-09-17T21:11:15.563Z","response":"neither","certainty":"high","char":"G","transposition":3,"order":["shifted","swapped"],"probe_pitches":[10,8,3,8,12,3,10,5],"shifted_pitches":[10,8,3,7,12,3,10,5],"swapped_pitches":[10,8,3,12,8,3,10,5],"shift_direction":-1,"question_num":31,"has_decoy":false},{"rt":420.70000000298023,"stimulus":"[A] option 1, [L] option 2, [G] neither","key_press":76,"name":"choice","trial_type":"html-keyboard-response","trial_index":54,"time_elapsed":78390,"internal_node_id":"0.0-54.0","subject":"S1C0830","sona":"41450","block":2,"time":"2021-09-17T21:11:15.563Z","response":"2nd","certainty":"high","char":"L","transposition":-2,"order":["swapped","shifted"],"probe_pitches":[5,9,8,4,-1,1,6,8],"shifted_pitches":[5,9,8,4,0,1,6,8],"swapped_pitches":[5,9,8,-1,4,1,6,8],"shift_direction":1,"question_num":41,"has_decoy":false},{"rt":851.1000000089407,"stimulus":"[A] option 1, [L] option 2, [G] neither","key_press":65,"name":"choice","trial_type":"html-keyboard-response","trial_index":65,"time_elapsed":93679,"internal_node_id":"0.0-65.0","subject":"S1C0830","sona":"41450","block":2,"time":"2021-09-17T21:11:15.563Z","response":"1st","certainty":"high","char":"A","transposition":-3,"order":["shifted","swapped"],"probe_pitches":[1,7,10,7,2,-1,10,6],"shifted_pitches":[1,7,10,8,2,-1,10,6],"swapped_pitches":[1,7,10,2,7,-1,10,6],"shift_direction":1,"question_num":51,"has_decoy":false},{"rt":308.3999999910593,"stimulus":"[A] option 1, [L] option 2, [G] neither","key_press":76,"name":"choice","trial_type":"html-keyboard-response","trial_index":76,"time_elapsed":108720,"internal_node_id":"0.0-76.0","subject":"S1C0830","sona":"41450","block":2,"time":"2021-09-17T21:11:15.563Z","response":"2nd","certainty":"high","char":"L","transposition":-2,"order":["swapped","shifted"],"probe_pitches":[9,7,5,7,2,9,2,12],"shifted_pitches":[9,7,5,8,2,9,2,12],"swapped_pitches":[9,7,5,2,7,9,2,12],"shift_direction":1,"question_num":61,"has_decoy":false},{"rt":2018.9000000059605,"stimulus":"[A] option 1, [L] option 2, [G] neither","key_press":71,"name":"choice","trial_type":"html-keyboard-response","trial_index":87,"time_elapsed":126164,"internal_node_id":"0.0-87.0","subject":"S1C0830","sona":"41450","block":2,"time":"2021-09-17T21:11:15.563Z","response":"neither","certainty":"high","char":"G","transposition":-3,"order":["swapped","shifted"],"probe_pitches":[10,5,10,5,2,0,2,7],"shifted_pitches":[10,5,10,5,3,0,2,7],"swapped_pitches":[10,5,10,2,5,0,2,7],"shift_direction":1,"question_num":71,"has_decoy":false},{"rt":1753.1000000089407,"stimulus":"[A] option 1, [L] option 2, [G] neither","key_press":76,"name":"choice","trial_type":"html-keyboard-response","trial_index":98,"time_elapsed":146596,"internal_node_id":"0.0-98.0","subject":"S1C0830","sona":"41450","block":2,"time":"2021-09-17T21:11:15.563Z","response":"2nd","certainty":"high","char":"L","transposition":-1,"order":["shifted","swapped"],"probe_pitches":[7,2,7,0,9,7,4,9],"shifted_pitches":[7,2,7,-1,9,7,4,9],"swapped_pitches":[7,2,7,9,0,7,4,9],"shift_direction":-1,"question_num":81,"has_decoy":false},{"rt":925.9000000059605,"stimulus":"[A] option 1, [L] option 2, [G] neither","key_press":65,"name":"choice","trial_type":"html-keyboard-response","trial_index":109,"time_elapsed":162579,"internal_node_id":"0.0-109.0","subject":"S1C0830","sona":"41450","block":2,"time":"2021-09-17T21:11:15.563Z","response":"1st","certainty":"high","char":"A","transposition":2,"order":["shifted","swapped"],"probe_pitches":[8,2,3,5,-2,3,10,-1],"shifted_pitches":[8,2,3,5,-3,3,10,-1],"swapped_pitches":[8,2,3,-2,5,3,10,-1],"shift_direction":-1,"question_num":91,"has_decoy":false},{"rt":1092.5,"stimulus":"[A] option 1, [L] option 2, [G] neither","key_press":65,"name":"choice","trial_type":"html-keyboard-response","trial_index":120,"time_elapsed":178820,"internal_node_id":"0.0-120.0","subject":"S1C0830","sona":"41450","block":2,"time":"2021-09-17T21:11:15.563Z","response":"1st","certainty":"high","char":"A","transposition":-2,"order":["shifted","swapped"],"probe_pitches":[0,5,12,10,3,12,7,10],"shifted_pitches":[0,5,12,11,3,12,7,10],"swapped_pitches":[0,5,12,3,10,12,7,10],"shift_direction":1,"question_num":101,"has_decoy":false},{"rt":1272.1000000089407,"stimulus":"[A] option 1, [L] option 2, [G] neither","key_press":76,"name":"choice","trial_type":"html-keyboard-response","trial_index":131,"time_elapsed":196535,"internal_node_id":"0.0-131.0","subject":"S1C0830","sona":"41450","block":2,"time":"2021-09-17T21:11:15.563Z","response":"2nd","certainty":"high","char":"L","transposition":-2,"order":["shifted","swapped"],"probe_pitches":[0,-2,-1,-2,2,8,7,2],"shifted_pitches":[0,-2,-1,-2,1,8,7,2],"swapped_pitches":[0,-2,-1,2,-2,8,7,2],"shift_direction":-1,"question_num":111,"has_decoy":false},{"rt":1187.7000000029802,"stimulus":"[A] option 1, [L] option 2, [G] neither","key_press":71,"name":"choice","trial_type":"html-keyboard-response","trial_index":142,"time_elapsed":212200,"internal_node_id":"0.0-142.0","subject":"S1C0830","sona":"41450","block":2,"time":"2021-09-17T21:11:15.563Z","response":"neither","certainty":"high","char":"G","transposition":-3,"order":["swapped","shifted"],"probe_pitches":[1,-2,5,-1,4,6,1,9],"shifted_pitches":[1,-2,5,-1,3,6,1,9],"swapped_pitches":[1,-2,5,4,-1,6,1,9],"shift_direction":-1,"question_num":121,"has_decoy":false},{"rt":2835.2999999970198,"stimulus":"[A] option 1, [L] option 2, [G] neither","key_press":71,"name":"choice","trial_type":"html-keyboard-response","trial_index":153,"time_elapsed":229458,"internal_node_id":"0.0-153.0","subject":"S1C0830","sona":"41450","block":2,"time":"2021-09-17T21:11:15.563Z","response":"neither","certainty":"high","char":"G","transposition":1,"order":["swapped","shifted"],"probe_pitches":[4,2,0,4,7,12,2,9],"shifted_pitches":[4,2,0,5,7,12,2,9],"swapped_pitches":[4,2,0,7,4,12,2,9],"shift_direction":1,"question_num":131,"has_decoy":false},{"rt":462.40000000596046,"stimulus":"[A] option 1, [L] option 2, [G] neither","key_press":76,"name":"choice","trial_type":"html-keyboard-response","trial_index":164,"time_elapsed":247575,"internal_node_id":"0.0-164.0","subject":"S1C0830","sona":"41450","block":2,"time":"2021-09-17T21:11:15.563Z","response":"2nd","certainty":"high","char":"L","transposition":-1,"order":["swapped","shifted"],"probe_pitches":[6,10,9,4,-2,1,6,1],"shifted_pitches":[6,10,9,5,-2,1,6,1],"swapped_pitches":[6,10,9,-2,4,1,6,1],"shift_direction":1,"question_num":141,"has_decoy":false},{"rt":1209,"stimulus":"[A] option 1, [L] option 2, [G] neither","key_press":76,"name":"choice","trial_type":"html-keyboard-response","trial_index":175,"time_elapsed":264492,"internal_node_id":"0.0-175.0","subject":"S1C0830","sona":"41450","block":2,"time":"2021-09-17T21:11:15.563Z","response":"2nd","certainty":"high","char":"L","transposition":2,"order":["swapped","shifted"],"probe_pitches":[7,10,7,12,5,10,5,2],"shifted_pitches":[7,10,7,12,4,10,5,2],"swapped_pitches":[7,10,7,5,12,10,5,2],"shift_direction":-1,"question_num":151,"has_decoy":false},{"rt":3341.7999999970198,"stimulus":"[A] option 1, [L] option 2, [G] neither","key_press":71,"name":"choice","trial_type":"html-keyboard-response","trial_index":186,"time_elapsed":282252,"internal_node_id":"0.0-186.0","subject":"S1C0830","sona":"41450","block":2,"time":"2021-09-17T21:11:15.563Z","response":"neither","certainty":"high","char":"G","transposition":-1,"order":["shifted","swapped"],"probe_pitches":[2,1,-2,5,9,7,9,3],"shifted_pitches":[2,1,-2,4,9,7,9,3],"swapped_pitches":[2,1,-2,9,5,7,9,3],"shift_direction":-1,"question_num":161,"has_decoy":false},{"rt":2369.2000000029802,"stimulus":"[A] option 1, [L] option 2, [G] neither","key_press":65,"name":"choice","trial_type":"html-keyboard-response","trial_index":197,"time_elapsed":299027,"internal_node_id":"0.0-197.0","subject":"S1C0830","sona":"41450","block":2,"time":"2021-09-17T21:11:15.563Z","response":"1st","certainty":"high","char":"A","transposition":0,"order":["shifted","swapped"],"probe_pitches":[12,10,8,3,12,10,5,10],"shifted_pitches":[12,10,8,3,11,10,5,10],"swapped_pitches":[12,10,8,12,3,10,5,10],"shift_direction":-1,"question_num":171,"has_decoy":false},{"rt":1715.9000000059605,"stimulus":"[A] option 1, [L] option 2, [G] neither","key_press":76,"name":"choice","trial_type":"html-keyboard-response","trial_index":208,"time_elapsed":315217,"internal_node_id":"0.0-208.0","subject":"S1C0830","sona":"41450","block":2,"time":"2021-09-17T21:11:15.563Z","response":"2nd","certainty":"high","char":"L","transposition":1,"order":["shifted","swapped"],"probe_pitches":[2,4,8,0,7,-1,9,3],"shifted_pitches":[2,4,8,0,6,-1,9,3],"swapped_pitches":[2,4,8,7,0,-1,9,3],"shift_direction":-1,"question_num":181,"has_decoy":false},{"rt":1198.7999999970198,"stimulus":"[A] option 1, [L] option 2, [G] neither","key_press":65,"name":"choice","trial_type":"html-keyboard-response","trial_index":219,"time_elapsed":344475,"internal_node_id":"0.0-219.0","subject":"S1C0830","sona":"41450","block":2,"time":"2021-09-17T21:11:15.563Z","response":"1st","certainty":"high","char":"A","transposition":-1,"order":["shifted","swapped"],"probe_pitches":[12,10,12,5,3,7,0,3],"shifted_pitches":[12,10,12,5,2,7,0,3],"swapped_pitches":[12,10,12,3,5,7,0,3],"shift_direction":-1,"question_num":191,"has_decoy":false}]