[{"rt":1195.2000000029802,"stimulus":"[A] option 1, [L] option 2, [G] neither","key_press":65,"name":"choice","trial_type":"html-keyboard-response","trial_index":10,"time_elapsed":20469,"internal_node_id":"0.0-10.0","subject":"S1C0830","sona":"41450","block":4,"time":"2021-09-17T21:22:45.473Z","response":"1st","certainty":"high","char":"A","transposition":0,"order":["swapped","shifted"],"probe_pitches":[0,3,-2,6,2,1,3,2],"shifted_pitches":[0,3,-2,7,2,1,3,2],"swapped_pitches":[0,3,-2,2,6,1,3,2],"shift_direction":1,"question_num":1,"has_decoy":false},{"rt":673.2999999970198,"stimulus":"[A] option 1, [L] option 2, [G] neither","key_press":76,"name":"choice","trial_type":"html-keyboard-response","trial_index":21,"time_elapsed":35600,"internal_node_id":"0.0-21.0","subject":"S1C0830","sona":"41450","block":4,"time":"2021-09-17T21:22:45.473Z","response":"2nd","certainty":"high","char":"L","transposition":-1,"order":["swapped","shifted"],"probe_pitches":[2,4,11,9,4,11,2,7],"shifted_pitches":[2,4,11,10,4,11,2,7],"swapped_pitches":[2,4,11,4,9,11,2,7],"shift_direction":1,"question_num":11,"has_decoy":false},{"rt":461.29999999701977,"stimulus":"[A] option 1, [L] option 2, [G] neither","key_press":76,"name":"choice","trial_type":"html-keyboard-response","trial_index":32,"time_elapsed":50877,"internal_node_id":"0.0-32.0","subject":"S1C0830","sona":"41450","block":4,"time":"2021-09-17T21:22:45.473Z","response":"2nd","certainty":"high","char":"L","transposition":-3,"order":["shifted","swapped"],"probe_pitches":[-1,3,1,9,3,0,7,1],"shifted_pitches":[-1,3,1,9,2,0,7,1],"swapped_pitches":[-1,3,1,3,9,0,7,1],"shift_direction":-1,"question_num":21,"has_decoy":false},{"rt":1392.2999999970198,"stimulus":"[A] option 1, [L] option 2, [G] neither","key_press":76,"name":"choice","trial_type":"html-keyboard-response","trial_index":43,"time_elapsed":69108,"internal_node_id":"0.0-43.0","subject":"S1C0830","sona":"41450","block":4,"time":"2021-09-17T21:22:45.473Z","response":"2nd","certainty":"high","char":"L","transposition":-3,"order":["swapped","shifted"],"probe_pitches":[8,6,3,11,8,-1,1,6],"shifted_pitches":[8,6,3,12,8,-1,1,6],"swapped_pitches":[8,6,3,8,11,-1,1,6],"shift_direction":1,"question_num":31,"has_decoy":false},{"rt":964,"stimulus":"[A] option 1, [L] option 2, [G] neither","key_press":65,"name":"choice","trial_type":"html-keyboard-response","trial_index":54,"time_elapsed":84983,"internal_node_id":"0.0-54.0","subject":"S1C0830","sona":"41450","block":4,"time":"2021-09-17T21:22:45.473Z","response":"1st","certainty":"high","char":"A","transposition":-1,"order":["shifted","swapped"],"probe_pitches":[6,9,2,6,11,9,11,4],"shifted_pitches":[6,9,2,5,11,9,11,4],"swapped_pitches":[6,9,2,11,6,9,11,4],"shift_direction":-1,"question_num":41,"has_decoy":false},{"rt":1453.4000000059605,"stimulus":"[A] option 1, [L] option 2, [G] neither","key_press":76,"name":"choice","trial_type":"html-keyboard-response","trial_index":65,"time_elapsed":106608,"internal_node_id":"0.0-65.0","subject":"S1C0830","sona":"41450","block":4,"time":"2021-09-17T21:22:45.473Z","response":"2nd","certainty":"high","char":"L","transposition":1,"order":["shifted","swapped"],"probe_pitches":[8,10,8,3,5,8,2,7],"shifted_pitches":[8,10,8,3,4,8,2,7],"swapped_pitches":[8,10,8,5,3,8,2,7],"shift_direction":-1,"question_num":51,"has_decoy":false},{"rt":438.69999998807907,"stimulus":"[A] option 1, [L] option 2, [G] neither","key_press":65,"name":"choice","trial_type":"html-keyboard-response","trial_index":76,"time_elapsed":123545,"internal_node_id":"0.0-76.0","subject":"S1C0830","sona":"41450","block":4,"time":"2021-09-17T21:22:45.473Z","response":"1st","certainty":"high","char":"A","transposition":-2,"order":["shifted","swapped"],"probe_pitches":[4,-1,6,11,9,-1,4,2],"shifted_pitches":[4,-1,6,12,9,-1,4,2],"swapped_pitches":[4,-1,6,9,11,-1,4,2],"shift_direction":1,"question_num":61,"has_decoy":false},{"rt":510.40000000596046,"stimulus":"[A] option 1, [L] option 2, [G] neither","key_press":76,"name":"choice","trial_type":"html-keyboard-response","trial_index":87,"time_elapsed":143499,"internal_node_id":"0.0-87.0","subject":"S1C0830","sona":"41450","block":4,"time":"2021-09-17T21:22:45.473Z","response":"2nd","certainty":"high","char":"L","transposition":-1,"order":["swapped","shifted"],"probe_pitches":[9,3,-2,-1,2,6,8,6],"shifted_pitches":[9,3,-2,0,2,6,8,6],"swapped_pitches":[9,3,-2,2,-1,6,8,6],"shift_direction":1,"question_num":71,"has_decoy":false},{"rt":482.70000000298023,"stimulus":"[A] option 1, [L] option 2, [G] neither","key_press":71,"name":"choice","trial_type":"html-keyboard-response","trial_index":98,"time_elapsed":158927,"internal_node_id":"0.0-98.0","subject":"S1C0830","sona":"41450","block":4,"time":"2021-09-17T21:22:45.473Z","response":"neither","certainty":"high","char":"G","transposition":-2,"order":["shifted","swapped"],"probe_pitches":[8,9,7,9,6,-2,8,7],"shifted_pitches":[8,9,7,9,5,-2,8,7],"swapped_pitches":[8,9,7,6,9,-2,8,7],"shift_direction":-1,"question_num":81,"has_decoy":false},{"rt":1365.1000000089407,"stimulus":"[A] option 1, [L] option 2, [G] neither","key_press":76,"name":"choice","trial_type":"html-keyboard-response","trial_index":109,"time_elapsed":176598,"internal_node_id":"0.0-109.0","subject":"S1C0830","sona":"41450","block":4,"time":"2021-09-17T21:22:45.473Z","response":"2nd","certainty":"high","char":"L","transposition":0,"order":["swapped","shifted"],"probe_pitches":[1,4,6,1,8,6,11,-1],"shifted_pitches":[1,4,6,1,7,6,11,-1],"swapped_pitches":[1,4,6,8,1,6,11,-1],"shift_direction":-1,"question_num":91,"has_decoy":false},{"rt":396.40000000596046,"stimulus":"[A] option 1, [L] option 2, [G] neither","key_press":65,"name":"choice","trial_type":"html-keyboard-response","trial_index":120,"time_elapsed":191421,"internal_node_id":"0.0-120.0","subject":"S1C0830","sona":"41450","block":4,"time":"2021-09-17T21:22:45.473Z","response":"1st","certainty":"high","char":"A","transposition":-3,"order":["swapped","shifted"],"probe_pitches":[-2,0,-2,4,9,0,9,-2],"shifted_pitches":[-2,0,-2,3,9,0,9,-2],"swapped_pitches":[-2,0,-2,9,4,0,9,-2],"shift_direction":-1,"question_num":101,"has_decoy":false},{"rt":433.59999999403954,"stimulus":"[A] option 1, [L] option 2, [G] neither","key_press":76,"name":"choice","trial_type":"html-keyboard-response","trial_index":131,"time_elapsed":206247,"internal_node_id":"0.0-131.0","subject":"S1C0830","sona":"41450","block":4,"time":"2021-09-17T21:22:45.473Z","response":"2nd","certainty":"high","char":"L","transposition":3,"order":["swapped","shifted"],"probe_pitches":[6,1,-1,3,6,-1,8,1],"shifted_pitches":[6,1,-1,3,5,-1,8,1],"swapped_pitches":[6,1,-1,6,3,-1,8,1],"shift_direction":-1,"question_num":111,"has_decoy":false},{"rt":4006.8999999910593,"stimulus":"[A] option 1, [L] option 2, [G] neither","key_press":65,"name":"choice","trial_type":"html-keyboard-response","trial_index":142,"time_elapsed":224594,"internal_node_id":"0.0-142.0","subject":"S1C0830","sona":"41450","block":4,"time":"2021-09-17T21:22:45.473Z","response":"1st","certainty":"high","char":"A","transposition":2,"order":["shifted","swapped"],"probe_pitches":[5,1,4,6,8,3,0,4],"shifted_pitches":[5,1,4,6,9,3,0,4],"swapped_pitches":[5,1,4,8,6,3,0,4],"shift_direction":1,"question_num":121,"has_decoy":false},{"rt":889.1000000089407,"stimulus":"[A] option 1, [L] option 2, [G] neither","key_press":76,"name":"choice","trial_type":"html-keyboard-response","trial_index":153,"time_elapsed":241081,"internal_node_id":"0.0-153.0","subject":"S1C0830","sona":"41450","block":4,"time":"2021-09-17T21:22:45.473Z","response":"2nd","certainty":"high","char":"L","transposition":3,"order":["swapped","shifted"],"probe_pitches":[0,5,8,2,3,10,9,6],"shifted_pitches":[0,5,8,1,3,10,9,6],"swapped_pitches":[0,5,8,3,2,10,9,6],"shift_direction":-1,"question_num":131,"has_decoy":false},{"rt":442.6000000089407,"stimulus":"[A] option 1, [L] option 2, [G] neither","key_press":76,"name":"choice","trial_type":"html-keyboard-response","trial_index":164,"time_elapsed":256858,"internal_node_id":"0.0-164.0","subject":"S1C0830","sona":"41450","block":4,"time":"2021-09-17T21:22:45.473Z","response":"2nd","certainty":"high","char":"L","transposition":-2,"order":["shifted","swapped"],"probe_pitches":[-2,0,5,0,7,1,9,1],"shifted_pitches":[-2,0,5,0,8,1,9,1],"swapped_pitches":[-2,0,5,7,0,1,9,1],"shift_direction":1,"question_num":141,"has_decoy":false},{"rt":500.79999999701977,"stimulus":"[A] option 1, [L] option 2, [G] neither","key_press":65,"name":"choice","trial_type":"html-keyboard-response","trial_index":175,"time_elapsed":272372,"internal_node_id":"0.0-175.0","subject":"S1C0830","sona":"41450","block":4,"time":"2021-09-17T21:22:45.473Z","response":"1st","certainty":"high","char":"A","transposition":-3,"order":["shifted","swapped"],"probe_pitches":[4,-1,1,6,9,4,9,6],"shifted_pitches":[4,-1,1,5,9,4,9,6],"swapped_pitches":[4,-1,1,9,6,4,9,6],"shift_direction":-1,"question_num":151,"has_decoy":false},{"rt":1616.2000000029802,"stimulus":"[A] option 1, [L] option 2, [G] neither","key_press":76,"name":"choice","trial_type":"html-keyboard-response","trial_index":186,"time_elapsed":288532,"internal_node_id":"0.0-186.0","subject":"S1C0830","sona":"41450","block":4,"time":"2021-09-17T21:22:45.473Z","response":"2nd","certainty":"high","char":"L","transposition":-2,"order":["shifted","swapped"],"probe_pitches":[9,7,2,-1,7,4,11,-1],"shifted_pitches":[9,7,2,-1,8,4,11,-1],"swapped_pitches":[9,7,2,7,-1,4,11,-1],"shift_direction":1,"question_num":161,"has_decoy":false},{"rt":926.6999999880791,"stimulus":"[A] option 1, [L] option 2, [G] neither","key_press":76,"name":"choice","trial_type":"html-keyboard-response","trial_index":197,"time_elapsed":303816,"internal_node_id":"0.0-197.0","subject":"S1C0830","sona":"41450","block":4,"time":"2021-09-17T21:22:45.473Z","response":"2nd","certainty":"high","char":"L","transposition":2,"order":["shifted","swapped"],"probe_pitches":[8,6,4,6,1,-1,1,8],"shifted_pitches":[8,6,4,6,2,-1,1,8],"swapped_pitches":[8,6,4,1,6,-1,1,8],"shift_direction":1,"question_num":171,"has_decoy":false},{"rt":346.20000000298023,"stimulus":"[A] option 1, [L] option 2, [G] neither","key_press":71,"name":"choice","trial_type":"html-keyboard-response","trial_index":208,"time_elapsed":318670,"internal_node_id":"0.0-208.0","subject":"S1C0830","sona":"41450","block":4,"time":"2021-09-17T21:22:45.473Z","response":"neither","certainty":"high","char":"G","transposition":-1,"order":["swapped","shifted"],"probe_pitches":[2,8,1,5,0,-2,9,0],"shifted_pitches":[2,8,1,6,0,-2,9,0],"swapped_pitches":[2,8,1,0,5,-2,9,0],"shift_direction":1,"question_num":181,"has_decoy":false},{"rt":705.8999999910593,"stimulus":"[A] option 1, [L] option 2, [G] neither","key_press":76,"name":"choice","trial_type":"html-keyboard-response","trial_index":219,"time_elapsed":334123,"internal_node_id":"0.0-219.0","subject":"S1C0830","sona":"41450","block":4,"time":"2021-09-17T21:22:45.473Z","response":"2nd","certainty":"high","char":"L","transposition":1,"order":["swapped","shifted"],"probe_pitches":[6,1,-1,4,6,9,1,11],"shifted_pitches":[6,1,-1,4,5,9,1,11],"swapped_pitches":[6,1,-1,6,4,9,1,11],"shift_direction":-1,"question_num":191,"has_decoy":false}]