[{"rt":9054.20000000298,"stimulus":"[A] option 1, [L] option 2, [G] neither","key_press":65,"name":"choice","trial_type":"html-keyboard-response","trial_index":15,"time_elapsed":81508,"internal_node_id":"0.0-15.0","response":"1st","certainty":"high","char":"A","transposition":-2,"order":["shifted","swapped"],"probe_pitches":[12,15,8,15,10,3,5,3],"shifted_pitches":[12,15,8,14,10,3,5,3],"swapped_pitches":[12,15,8,10,15,3,5,3],"shift_direction":-1,"question_num":1,"has_decoy":false,"subject":"S1C0830","sona":"41450","block":1,"time":"2021-09-17T21:05:23.449Z"},{"rt":5399.20000000298,"stimulus":"[A] option 1, [L] option 2, [G] neither","key_press":76,"name":"choice","trial_type":"html-keyboard-response","trial_index":26,"time_elapsed":102749,"internal_node_id":"0.0-26.0","response":"2nd","certainty":"high","char":"L","transposition":1,"order":["shifted","swapped"],"probe_pitches":[5,0,-3,0,9,2,5,8],"shifted_pitches":[5,0,-3,-1,9,2,5,8],"swapped_pitches":[5,0,-3,9,0,2,5,8],"shift_direction":-1,"question_num":11,"has_decoy":false,"subject":"S1C0830","sona":"41450","block":1,"time":"2021-09-17T21:05:23.449Z"},{"rt":1487.8999999910593,"stimulus":"[A] option 1, [L] option 2, [G] neither","key_press":71,"name":"choice","trial_type":"html-keyboard-response","trial_index":37,"time_elapsed":119024,"internal_node_id":"0.0-37.0","response":"neither","certainty":"high","char":"G","transposition":-3,"order":["swapped","shifted"],"probe_pitches":[3,5,4,1,3,-2,8,4],"shifted_pitches":[3,5,4,1,2,-2,8,4],"swapped_pitches":[3,5,4,3,1,-2,8,4],"shift_direction":-1,"question_num":21,"has_decoy":false,"subject":"S1C0830","sona":"41450","block":1,"time":"2021-09-17T21:05:23.449Z"},{"rt":6970.800000011921,"stimulus":"[A] option 1, [L] option 2, [G] neither","key_press":71,"name":"choice","trial_type":"html-keyboard-response","trial_index":48,"time_elapsed":143032,"internal_node_id":"0.0-48.0","response":"neither","certainty":"high","char":"G","transposition":-3,"order":["swapped","shifted"],"probe_pitches":[8,9,8,6,-2,5,1,9],"shifted_pitches":[8,9,8,7,-2,5,1,9],"swapped_pitches":[8,9,8,-2,6,5,1,9],"shift_direction":1,"question_num":31,"has_decoy":false,"subject":"S1C0830","sona":"41450","block":1,"time":"2021-09-17T21:05:23.449Z"},{"rt":5277.100000008941,"stimulus":"[A] option 1, [L] option 2, [G] neither","key_press":71,"name":"choice","trial_type":"html-keyboard-response","trial_index":59,"time_elapsed":169772,"internal_node_id":"0.0-59.0","response":"neither","certainty":"high","char":"G","transposition":-2,"order":["swapped","shifted"],"probe_pitches":[5,3,-2,6,2,0,-1,4],"shifted_pitches":[5,3,-2,6,1,0,-1,4],"swapped_pitches":[5,3,-2,2,6,0,-1,4],"shift_direction":-1,"question_num":41,"has_decoy":false,"subject":"S1C0830","sona":"41450","block":1,"time":"2021-09-17T21:05:23.449Z"},{"rt":8070.29999999702,"stimulus":"[A] option 1, [L] option 2, [G] neither","key_press":71,"name":"choice","trial_type":"html-keyboard-response","trial_index":70,"time_elapsed":193137,"internal_node_id":"0.0-70.0","response":"neither","certainty":"high","char":"G","transposition":-1,"order":["swapped","shifted"],"probe_pitches":[7,3,4,9,5,4,9,-1],"shifted_pitches":[7,3,4,8,5,4,9,-1],"swapped_pitches":[7,3,4,5,9,4,9,-1],"shift_direction":-1,"question_num":51,"has_decoy":false,"subject":"S1C0830","sona":"41450","block":1,"time":"2021-09-17T21:05:23.449Z"},{"rt":1164.5,"stimulus":"[A] option 1, [L] option 2, [G] neither","key_press":76,"name":"choice","trial_type":"html-keyboard-response","trial_index":81,"time_elapsed":210741,"internal_node_id":"0.0-81.0","response":"2nd","certainty":"high","char":"L","transposition":-2,"order":["swapped","shifted"],"probe_pitches":[2,0,5,7,-1,-3,3,1],"shifted_pitches":[2,0,5,6,-1,-3,3,1],"swapped_pitches":[2,0,5,-1,7,-3,3,1],"shift_direction":-1,"question_num":61,"has_decoy":false,"subject":"S1C0830","sona":"41450","block":1,"time":"2021-09-17T21:05:23.449Z"},{"rt":611.2999999970198,"stimulus":"[A] option 1, [L] option 2, [G] neither","key_press":76,"name":"choice","trial_type":"html-keyboard-response","trial_index":92,"time_elapsed":225397,"internal_node_id":"0.0-92.0","response":"2nd","certainty":"high","char":"L","transposition":1,"order":["swapped","shifted"],"probe_pitches":[13,8,15,13,8,11,6,13],"shifted_pitches":[13,8,15,13,9,11,6,13],"swapped_pitches":[13,8,15,8,13,11,6,13],"shift_direction":1,"question_num":71,"has_decoy":false,"subject":"S1C0830","sona":"41450","block":1,"time":"2021-09-17T21:05:23.449Z"},{"rt":776.9000000059605,"stimulus":"[A] option 1, [L] option 2, [G] neither","key_press":76,"name":"choice","trial_type":"html-keyboard-response","trial_index":103,"time_elapsed":242016,"internal_node_id":"0.0-103.0","response":"2nd","certainty":"high","char":"L","transposition":-1,"order":["swapped","shifted"],"probe_pitches":[5,10,8,3,10,12,10,8],"shifted_pitches":[5,10,8,3,11,12,10,8],"swapped_pitches":[5,10,8,10,3,12,10,8],"shift_direction":1,"question_num":81,"has_decoy":false,"subject":"S1C0830","sona":"41450","block":1,"time":"2021-09-17T21:05:23.449Z"},{"rt":1185.1000000089407,"stimulus":"[A] option 1, [L] option 2, [G] neither","key_press":65,"name":"choice","trial_type":"html-keyboard-response","trial_index":114,"time_elapsed":257406,"internal_node_id":"0.0-114.0","response":"1st","certainty":"high","char":"A","transposition":3,"order":["shifted","swapped"],"probe_pitches":[6,9,2,6,4,2,9,0],"shifted_pitches":[6,9,2,6,5,2,9,0],"swapped_pitches":[6,9,2,4,6,2,9,0],"shift_direction":1,"question_num":91,"has_decoy":false,"subject":"S1C0830","sona":"41450","block":1,"time":"2021-09-17T21:05:23.449Z"},{"rt":387.20000000298023,"stimulus":"[A] option 1, [L] option 2, [G] neither","key_press":76,"name":"choice","trial_type":"html-keyboard-response","trial_index":125,"time_elapsed":272229,"internal_node_id":"0.0-125.0","response":"2nd","certainty":"high","char":"L","transposition":0,"order":["swapped","shifted"],"probe_pitches":[7,3,5,7,10,12,10,5],"shifted_pitches":[7,3,5,6,10,12,10,5],"swapped_pitches":[7,3,5,10,7,12,10,5],"shift_direction":-1,"question_num":101,"has_decoy":false,"subject":"S1C0830","sona":"41450","block":1,"time":"2021-09-17T21:05:23.449Z"},{"rt":732.3999999910593,"stimulus":"[A] option 1, [L] option 2, [G] neither","key_press":65,"name":"choice","trial_type":"html-keyboard-response","trial_index":136,"time_elapsed":288462,"internal_node_id":"0.0-136.0","response":"1st","certainty":"high","char":"A","transposition":-1,"order":["shifted","swapped"],"probe_pitches":[8,5,-2,3,8,2,6,7],"shifted_pitches":[8,5,-2,4,8,2,6,7],"swapped_pitches":[8,5,-2,8,3,2,6,7],"shift_direction":1,"question_num":111,"has_decoy":false,"subject":"S1C0830","sona":"41450","block":1,"time":"2021-09-17T21:05:23.449Z"},{"rt":435.79999999701977,"stimulus":"[A] option 1, [L] option 2, [G] neither","key_press":65,"name":"choice","trial_type":"html-keyboard-response","trial_index":147,"time_elapsed":304175,"internal_node_id":"0.0-147.0","response":"1st","certainty":"high","char":"A","transposition":-3,"order":["swapped","shifted"],"probe_pitches":[3,7,3,7,15,12,10,5],"shifted_pitches":[3,7,3,7,14,12,10,5],"swapped_pitches":[3,7,3,15,7,12,10,5],"shift_direction":-1,"question_num":121,"has_decoy":false,"subject":"S1C0830","sona":"41450","block":1,"time":"2021-09-17T21:05:23.449Z"},{"rt":2458.3999999910593,"stimulus":"[A] option 1, [L] option 2, [G] neither","key_press":71,"name":"choice","trial_type":"html-keyboard-response","trial_index":158,"time_elapsed":322059,"internal_node_id":"0.0-158.0","response":"neither","certainty":"high","char":"G","transposition":0,"order":["shifted","swapped"],"probe_pitches":[7,4,7,6,2,1,9,-1],"shifted_pitches":[7,4,7,6,3,1,9,-1],"swapped_pitches":[7,4,7,2,6,1,9,-1],"shift_direction":1,"question_num":131,"has_decoy":false,"subject":"S1C0830","sona":"41450","block":1,"time":"2021-09-17T21:05:23.449Z"},{"rt":359.90000000596046,"stimulus":"[A] option 1, [L] option 2, [G] neither","key_press":76,"name":"choice","trial_type":"html-keyboard-response","trial_index":169,"time_elapsed":337139,"internal_node_id":"0.0-169.0","response":"2nd","certainty":"high","char":"L","transposition":-3,"order":["shifted","swapped"],"probe_pitches":[8,3,10,3,8,13,8,6],"shifted_pitches":[8,3,10,2,8,13,8,6],"swapped_pitches":[8,3,10,8,3,13,8,6],"shift_direction":-1,"question_num":141,"has_decoy":false,"subject":"S1C0830","sona":"41450","block":1,"time":"2021-09-17T21:05:23.449Z"},{"rt":315.30000001192093,"stimulus":"[A] option 1, [L] option 2, [G] neither","key_press":65,"name":"choice","trial_type":"html-keyboard-response","trial_index":180,"time_elapsed":360726,"internal_node_id":"0.0-180.0","response":"1st","certainty":"high","char":"A","transposition":-1,"order":["shifted","swapped"],"probe_pitches":[8,3,8,13,15,11,6,13],"shifted_pitches":[8,3,8,13,16,11,6,13],"swapped_pitches":[8,3,8,15,13,11,6,13],"shift_direction":1,"question_num":151,"has_decoy":false,"subject":"S1C0830","sona":"41450","block":1,"time":"2021-09-17T21:05:23.449Z"},{"rt":2131.8999999910593,"stimulus":"[A] option 1, [L] option 2, [G] neither","key_press":65,"name":"choice","trial_type":"html-keyboard-response","trial_index":191,"time_elapsed":378783,"internal_node_id":"0.0-191.0","response":"1st","certainty":"high","char":"A","transposition":2,"order":["shifted","swapped"],"probe_pitches":[3,6,13,8,6,10,3,13],"shifted_pitches":[3,6,13,8,5,10,3,13],"swapped_pitches":[3,6,13,6,8,10,3,13],"shift_direction":-1,"question_num":161,"has_decoy":false,"subject":"S1C0830","sona":"41450","block":1,"time":"2021-09-17T21:05:23.449Z"},{"rt":341.1000000089407,"stimulus":"[A] option 1, [L] option 2, [G] neither","key_press":65,"name":"choice","trial_type":"html-keyboard-response","trial_index":202,"time_elapsed":397023,"internal_node_id":"0.0-202.0","response":"1st","certainty":"high","char":"A","transposition":3,"order":["shifted","swapped"],"probe_pitches":[10,13,15,8,5,10,5,13],"shifted_pitches":[10,13,15,9,5,10,5,13],"swapped_pitches":[10,13,15,5,8,10,5,13],"shift_direction":1,"question_num":171,"has_decoy":false,"subject":"S1C0830","sona":"41450","block":1,"time":"2021-09-17T21:05:23.449Z"},{"rt":1456.4000000059605,"stimulus":"[A] option 1, [L] option 2, [G] neither","key_press":71,"name":"choice","trial_type":"html-keyboard-response","trial_index":213,"time_elapsed":417657,"internal_node_id":"0.0-213.0","response":"neither","certainty":"high","char":"G","transposition":-2,"order":["swapped","shifted"],"probe_pitches":[10,8,13,5,8,3,5,3],"shifted_pitches":[10,8,13,6,8,3,5,3],"swapped_pitches":[10,8,13,8,5,3,5,3],"shift_direction":1,"question_num":181,"has_decoy":false,"subject":"S1C0830","sona":"41450","block":1,"time":"2021-09-17T21:05:23.449Z"},{"rt":491.59999999403954,"stimulus":"[A] option 1, [L] option 2, [G] neither","key_press":71,"name":"choice","trial_type":"html-keyboard-response","trial_index":224,"time_elapsed":433445,"internal_node_id":"0.0-224.0","response":"neither","certainty":"high","char":"G","transposition":2,"order":["shifted","swapped"],"probe_pitches":[7,6,8,5,-1,9,6,-2],"shifted_pitches":[7,6,8,5,0,9,6,-2],"swapped_pitches":[7,6,8,-1,5,9,6,-2],"shift_direction":1,"question_num":191,"has_decoy":false,"subject":"S1C0830","sona":"41450","block":1,"time":"2021-09-17T21:05:23.449Z"}]