[{"rt":370.5,"stimulus":"[A] option 1, [L] option 2, [G] neither","key_press":65,"name":"choice","trial_type":"html-keyboard-response","trial_index":10,"time_elapsed":15817,"internal_node_id":"0.0-10.0","subject":"S1C0830","sona":"41450","block":6,"time":"2021-09-17T21:33:51.082Z","response":"1st","certainty":"high","char":"A","transposition":-2,"order":["shifted","swapped"],"probe_pitches":[-1,4,6,11,9,6,4,1],"shifted_pitches":[-1,4,6,10,9,6,4,1],"swapped_pitches":[-1,4,6,9,11,6,4,1],"shift_direction":-1,"question_num":1,"has_decoy":false},{"rt":2538.2999999970198,"stimulus":"[A] option 1, [L] option 2, [G] neither","key_press":71,"name":"choice","trial_type":"html-keyboard-response","trial_index":21,"time_elapsed":33419,"internal_node_id":"0.0-21.0","subject":"S1C0830","sona":"41450","block":6,"time":"2021-09-17T21:33:51.082Z","response":"neither","certainty":"high","char":"G","transposition":-3,"order":["shifted","swapped"],"probe_pitches":[1,6,1,3,-1,1,11,8],"shifted_pitches":[1,6,1,3,-2,1,11,8],"swapped_pitches":[1,6,1,-1,3,1,11,8],"shift_direction":-1,"question_num":11,"has_decoy":false},{"rt":1122.3999999910593,"stimulus":"[A] option 1, [L] option 2, [G] neither","key_press":76,"name":"choice","trial_type":"html-keyboard-response","trial_index":32,"time_elapsed":51155,"internal_node_id":"0.0-32.0","subject":"S1C0830","sona":"41450","block":6,"time":"2021-09-17T21:33:51.082Z","response":"2nd","certainty":"high","char":"L","transposition":-1,"order":["swapped","shifted"],"probe_pitches":[-1,1,6,8,11,6,-1,4],"shifted_pitches":[-1,1,6,7,11,6,-1,4],"swapped_pitches":[-1,1,6,11,8,6,-1,4],"shift_direction":-1,"question_num":21,"has_decoy":false},{"rt":359,"stimulus":"[A] option 1, [L] option 2, [G] neither","key_press":76,"name":"choice","trial_type":"html-keyboard-response","trial_index":43,"time_elapsed":66295,"internal_node_id":"0.0-43.0","subject":"S1C0830","sona":"41450","block":6,"time":"2021-09-17T21:33:51.082Z","response":"2nd","certainty":"high","char":"L","transposition":2,"order":["swapped","shifted"],"probe_pitches":[-1,5,10,8,0,7,2,-1],"shifted_pitches":[-1,5,10,9,0,7,2,-1],"swapped_pitches":[-1,5,10,0,8,7,2,-1],"shift_direction":1,"question_num":31,"has_decoy":false},{"rt":860.1000000089407,"stimulus":"[A] option 1, [L] option 2, [G] neither","key_press":71,"name":"choice","trial_type":"html-keyboard-response","trial_index":54,"time_elapsed":82657,"internal_node_id":"0.0-54.0","subject":"S1C0830","sona":"41450","block":6,"time":"2021-09-17T21:33:51.082Z","response":"neither","certainty":"high","char":"G","transposition":-2,"order":["shifted","swapped"],"probe_pitches":[5,8,6,2,10,9,6,7],"shifted_pitches":[5,8,6,3,10,9,6,7],"swapped_pitches":[5,8,6,10,2,9,6,7],"shift_direction":1,"question_num":41,"has_decoy":false},{"rt":988.5,"stimulus":"[A] option 1, [L] option 2, [G] neither","key_press":71,"name":"choice","trial_type":"html-keyboard-response","trial_index":65,"time_elapsed":98428,"internal_node_id":"0.0-65.0","subject":"S1C0830","sona":"41450","block":6,"time":"2021-09-17T21:33:51.082Z","response":"neither","certainty":"high","char":"G","transposition":3,"order":["shifted","swapped"],"probe_pitches":[9,4,7,-1,4,2,4,-1],"shifted_pitches":[9,4,7,-1,5,2,4,-1],"swapped_pitches":[9,4,7,4,-1,2,4,-1],"shift_direction":1,"question_num":51,"has_decoy":false},{"rt":2620.8999999910593,"stimulus":"[A] option 1, [L] option 2, [G] neither","key_press":71,"name":"choice","trial_type":"html-keyboard-response","trial_index":76,"time_elapsed":115398,"internal_node_id":"0.0-76.0","subject":"S1C0830","sona":"41450","block":6,"time":"2021-09-17T21:33:51.082Z","response":"neither","certainty":"high","char":"G","transposition":1,"order":["shifted","swapped"],"probe_pitches":[-2,2,9,4,0,6,2,7],"shifted_pitches":[-2,2,9,4,1,6,2,7],"swapped_pitches":[-2,2,9,0,4,6,2,7],"shift_direction":1,"question_num":61,"has_decoy":false},{"rt":8743.40000000596,"stimulus":"[A] option 1, [L] option 2, [G] neither","key_press":71,"name":"choice","trial_type":"html-keyboard-response","trial_index":87,"time_elapsed":139051,"internal_node_id":"0.0-87.0","subject":"S1C0830","sona":"41450","block":6,"time":"2021-09-17T21:33:51.082Z","response":"neither","certainty":"high","char":"G","transposition":-2,"order":["swapped","shifted"],"probe_pitches":[11,9,4,11,6,2,-1,6],"shifted_pitches":[11,9,4,12,6,2,-1,6],"swapped_pitches":[11,9,4,6,11,2,-1,6],"shift_direction":1,"question_num":71,"has_decoy":false},{"rt":444,"stimulus":"[A] option 1, [L] option 2, [G] neither","key_press":65,"name":"choice","trial_type":"html-keyboard-response","trial_index":98,"time_elapsed":154997,"internal_node_id":"0.0-98.0","subject":"S1C0830","sona":"41450","block":6,"time":"2021-09-17T21:33:51.082Z","response":"1st","certainty":"high","char":"A","transposition":-3,"order":["swapped","shifted"],"probe_pitches":[8,7,2,-2,3,9,0,7],"shifted_pitches":[8,7,2,-2,4,9,0,7],"swapped_pitches":[8,7,2,3,-2,9,0,7],"shift_direction":1,"question_num":81,"has_decoy":false},{"rt":393,"stimulus":"[A] option 1, [L] option 2, [G] neither","key_press":65,"name":"choice","trial_type":"html-keyboard-response","trial_index":109,"time_elapsed":169698,"internal_node_id":"0.0-109.0","subject":"S1C0830","sona":"41450","block":6,"time":"2021-09-17T21:33:51.082Z","response":"1st","certainty":"high","char":"A","transposition":2,"order":["swapped","shifted"],"probe_pitches":[9,11,4,1,9,11,6,4],"shifted_pitches":[9,11,4,2,9,11,6,4],"swapped_pitches":[9,11,4,9,1,11,6,4],"shift_direction":1,"question_num":91,"has_decoy":false},{"rt":561.7000000029802,"stimulus":"[A] option 1, [L] option 2, [G] neither","key_press":71,"name":"choice","trial_type":"html-keyboard-response","trial_index":120,"time_elapsed":184634,"internal_node_id":"0.0-120.0","subject":"S1C0830","sona":"41450","block":6,"time":"2021-09-17T21:33:51.082Z","response":"neither","certainty":"high","char":"G","transposition":-1,"order":["shifted","swapped"],"probe_pitches":[9,6,1,9,4,5,0,10],"shifted_pitches":[9,6,1,8,4,5,0,10],"swapped_pitches":[9,6,1,4,9,5,0,10],"shift_direction":-1,"question_num":101,"has_decoy":false},{"rt":381.5,"stimulus":"[A] option 1, [L] option 2, [G] neither","key_press":65,"name":"choice","trial_type":"html-keyboard-response","trial_index":131,"time_elapsed":199345,"internal_node_id":"0.0-131.0","subject":"S1C0830","sona":"41450","block":6,"time":"2021-09-17T21:33:51.082Z","response":"1st","certainty":"high","char":"A","transposition":-3,"order":["swapped","shifted"],"probe_pitches":[8,2,5,6,10,3,9,0],"shifted_pitches":[8,2,5,7,10,3,9,0],"swapped_pitches":[8,2,5,10,6,3,9,0],"shift_direction":1,"question_num":111,"has_decoy":false},{"rt":1928,"stimulus":"[A] option 1, [L] option 2, [G] neither","key_press":71,"name":"choice","trial_type":"html-keyboard-response","trial_index":142,"time_elapsed":216107,"internal_node_id":"0.0-142.0","subject":"S1C0830","sona":"41450","block":6,"time":"2021-09-17T21:33:51.082Z","response":"neither","certainty":"high","char":"G","transposition":-1,"order":["swapped","shifted"],"probe_pitches":[10,8,5,10,1,2,5,-1],"shifted_pitches":[10,8,5,10,0,2,5,-1],"swapped_pitches":[10,8,5,1,10,2,5,-1],"shift_direction":-1,"question_num":121,"has_decoy":false},{"rt":476,"stimulus":"[A] option 1, [L] option 2, [G] neither","key_press":76,"name":"choice","trial_type":"html-keyboard-response","trial_index":153,"time_elapsed":230959,"internal_node_id":"0.0-153.0","subject":"S1C0830","sona":"41450","block":6,"time":"2021-09-17T21:33:51.082Z","response":"2nd","certainty":"high","char":"L","transposition":-3,"order":["swapped","shifted"],"probe_pitches":[-1,4,2,-1,6,2,9,2],"shifted_pitches":[-1,4,2,-2,6,2,9,2],"swapped_pitches":[-1,4,2,6,-1,2,9,2],"shift_direction":-1,"question_num":131,"has_decoy":false},{"rt":372.40000000596046,"stimulus":"[A] option 1, [L] option 2, [G] neither","key_press":65,"name":"choice","trial_type":"html-keyboard-response","trial_index":164,"time_elapsed":245655,"internal_node_id":"0.0-164.0","subject":"S1C0830","sona":"41450","block":6,"time":"2021-09-17T21:33:51.082Z","response":"1st","certainty":"high","char":"A","transposition":-2,"order":["swapped","shifted"],"probe_pitches":[-2,0,7,1,6,9,3,0],"shifted_pitches":[-2,0,7,1,5,9,3,0],"swapped_pitches":[-2,0,7,6,1,9,3,0],"shift_direction":-1,"question_num":141,"has_decoy":false},{"rt":2087.0999999940395,"stimulus":"[A] option 1, [L] option 2, [G] neither","key_press":65,"name":"choice","trial_type":"html-keyboard-response","trial_index":175,"time_elapsed":262158,"internal_node_id":"0.0-175.0","subject":"S1C0830","sona":"41450","block":6,"time":"2021-09-17T21:33:51.082Z","response":"1st","certainty":"high","char":"A","transposition":1,"order":["shifted","swapped"],"probe_pitches":[-1,1,4,-1,6,11,8,11],"shifted_pitches":[-1,1,4,-1,7,11,8,11],"swapped_pitches":[-1,1,4,6,-1,11,8,11],"shift_direction":1,"question_num":151,"has_decoy":false},{"rt":1332.7000000029802,"stimulus":"[A] option 1, [L] option 2, [G] neither","key_press":76,"name":"choice","trial_type":"html-keyboard-response","trial_index":186,"time_elapsed":277856,"internal_node_id":"0.0-186.0","subject":"S1C0830","sona":"41450","block":6,"time":"2021-09-17T21:33:51.082Z","response":"2nd","certainty":"high","char":"L","transposition":3,"order":["shifted","swapped"],"probe_pitches":[10,7,8,1,7,0,2,1],"shifted_pitches":[10,7,8,1,6,0,2,1],"swapped_pitches":[10,7,8,7,1,0,2,1],"shift_direction":-1,"question_num":161,"has_decoy":false},{"rt":2158,"stimulus":"[A] option 1, [L] option 2, [G] neither","key_press":71,"name":"choice","trial_type":"html-keyboard-response","trial_index":197,"time_elapsed":294330,"internal_node_id":"0.0-197.0","subject":"S1C0830","sona":"41450","block":6,"time":"2021-09-17T21:33:51.082Z","response":"neither","certainty":"high","char":"G","transposition":0,"order":["shifted","swapped"],"probe_pitches":[1,0,-1,3,-2,-1,7,10],"shifted_pitches":[1,0,-1,2,-2,-1,7,10],"swapped_pitches":[1,0,-1,-2,3,-1,7,10],"shift_direction":-1,"question_num":171,"has_decoy":false},{"rt":742.9000000059605,"stimulus":"[A] option 1, [L] option 2, [G] neither","key_press":71,"name":"choice","trial_type":"html-keyboard-response","trial_index":208,"time_elapsed":309410,"internal_node_id":"0.0-208.0","subject":"S1C0830","sona":"41450","block":6,"time":"2021-09-17T21:33:51.082Z","response":"neither","certainty":"high","char":"G","transposition":-1,"order":["shifted","swapped"],"probe_pitches":[6,11,8,1,3,-1,3,11],"shifted_pitches":[6,11,8,1,4,-1,3,11],"swapped_pitches":[6,11,8,3,1,-1,3,11],"shift_direction":1,"question_num":181,"has_decoy":false},{"rt":619.8999999910593,"stimulus":"[A] option 1, [L] option 2, [G] neither","key_press":76,"name":"choice","trial_type":"html-keyboard-response","trial_index":219,"time_elapsed":324407,"internal_node_id":"0.0-219.0","subject":"S1C0830","sona":"41450","block":6,"time":"2021-09-17T21:33:51.082Z","response":"2nd","certainty":"high","char":"L","transposition":0,"order":["swapped","shifted"],"probe_pitches":[9,11,7,2,-1,4,9,7],"shifted_pitches":[9,11,7,2,-2,4,9,7],"swapped_pitches":[9,11,7,-1,2,4,9,7],"shift_direction":-1,"question_num":191,"has_decoy":false}]