[{"rt":4759.300000011921,"stimulus":"[A] option 1, [L] option 2, [G] neither","key_press":71,"name":"choice","trial_type":"html-keyboard-response","trial_index":10,"time_elapsed":27745,"internal_node_id":"0.0-10.0","subject":"S1C1635","sona":"39847","block":6,"time":"2021-09-18T22:25:01.381Z","response":"neither","certainty":"high","char":"G","transposition":2,"order":["shifted","swapped"],"probe_pitches":[-1,3,6,11,8,0,3,4,7,9,10,-1,10,3,-1,0],"shifted_pitches":[-1,3,6,11,8,0,3,5,7,9,10,-1,10,3,-1,0],"swapped_pitches":[-1,3,6,11,8,0,3,7,4,9,10,-1,10,3,-1,0],"shift_direction":1,"question_num":1,"has_decoy":false},{"rt":6772.9000000059605,"stimulus":"[A] option 1, [L] option 2, [G] neither","key_press":65,"name":"choice","trial_type":"html-keyboard-response","trial_index":21,"time_elapsed":59493,"internal_node_id":"0.0-21.0","subject":"S1C1635","sona":"39847","block":6,"time":"2021-09-18T22:25:01.381Z","response":"1st","certainty":"high","char":"A","transposition":-3,"order":["shifted","swapped"],"probe_pitches":[3,6,13,15,8,15,13,15,6,8,3,13,10,8,6,15],"shifted_pitches":[3,6,13,15,8,15,13,16,6,8,3,13,10,8,6,15],"swapped_pitches":[3,6,13,15,8,15,13,6,15,8,3,13,10,8,6,15],"shift_direction":1,"question_num":11,"has_decoy":false},{"rt":8452.299999982119,"stimulus":"[A] option 1, [L] option 2, [G] neither","key_press":71,"name":"choice","trial_type":"html-keyboard-response","trial_index":32,"time_elapsed":93605,"internal_node_id":"0.0-32.0","subject":"S1C1635","sona":"39847","block":6,"time":"2021-09-18T22:25:01.381Z","response":"neither","certainty":"high","char":"G","transposition":-1,"order":["shifted","swapped"],"probe_pitches":[3,8,12,10,12,5,12,10,3,15,10,12,15,12,5,8],"shifted_pitches":[3,8,12,10,12,5,12,9,3,15,10,12,15,12,5,8],"swapped_pitches":[3,8,12,10,12,5,12,3,10,15,10,12,15,12,5,8],"shift_direction":-1,"question_num":21,"has_decoy":false},{"rt":34350.80000001192,"stimulus":"[A] option 1, [L] option 2, [G] neither","key_press":65,"name":"choice","trial_type":"html-keyboard-response","trial_index":43,"time_elapsed":150924,"internal_node_id":"0.0-43.0","subject":"S1C1635","sona":"39847","block":6,"time":"2021-09-18T22:25:01.381Z","response":"1st","certainty":"high","char":"A","transposition":-2,"order":["swapped","shifted"],"probe_pitches":[5,-1,6,2,9,11,5,2,11,5,2,11,1,2,4,-1],"shifted_pitches":[5,-1,6,2,9,11,5,3,11,5,2,11,1,2,4,-1],"swapped_pitches":[5,-1,6,2,9,11,5,11,2,5,2,11,1,2,4,-1],"shift_direction":1,"question_num":31,"has_decoy":false},{"rt":3624.199999988079,"stimulus":"[A] option 1, [L] option 2, [G] neither","key_press":71,"name":"choice","trial_type":"html-keyboard-response","trial_index":54,"time_elapsed":177361,"internal_node_id":"0.0-54.0","subject":"S1C1635","sona":"39847","block":6,"time":"2021-09-18T22:25:01.381Z","response":"neither","certainty":"high","char":"G","transposition":0,"order":["shifted","swapped"],"probe_pitches":[4,7,0,8,2,7,2,9,8,1,2,0,4,2,-1,6],"shifted_pitches":[4,7,0,8,2,7,2,10,8,1,2,0,4,2,-1,6],"swapped_pitches":[4,7,0,8,2,7,2,8,9,1,2,0,4,2,-1,6],"shift_direction":1,"question_num":41,"has_decoy":false},{"rt":6536.9000000059605,"stimulus":"[A] option 1, [L] option 2, [G] neither","key_press":76,"name":"choice","trial_type":"html-keyboard-response","trial_index":65,"time_elapsed":206370,"internal_node_id":"0.0-65.0","subject":"S1C1635","sona":"39847","block":6,"time":"2021-09-18T22:25:01.381Z","response":"2nd","certainty":"high","char":"L","transposition":-2,"order":["swapped","shifted"],"probe_pitches":[8,6,2,9,6,7,11,1,5,10,2,8,11,7,9,8],"shifted_pitches":[8,6,2,9,6,7,11,1,4,10,2,8,11,7,9,8],"swapped_pitches":[8,6,2,9,6,7,11,5,1,10,2,8,11,7,9,8],"shift_direction":-1,"question_num":51,"has_decoy":false},{"rt":2397.300000011921,"stimulus":"[A] option 1, [L] option 2, [G] neither","key_press":76,"name":"choice","trial_type":"html-keyboard-response","trial_index":76,"time_elapsed":231356,"internal_node_id":"0.0-76.0","subject":"S1C1635","sona":"39847","block":6,"time":"2021-09-18T22:25:01.381Z","response":"2nd","certainty":"high","char":"L","transposition":-2,"order":["swapped","shifted"],"probe_pitches":[11,15,13,6,15,11,15,13,8,11,8,6,8,13,8,13],"shifted_pitches":[11,15,13,6,15,11,15,14,8,11,8,6,8,13,8,13],"swapped_pitches":[11,15,13,6,15,11,15,8,13,11,8,6,8,13,8,13],"shift_direction":1,"question_num":61,"has_decoy":false},{"rt":14794.40000000596,"stimulus":"[A] option 1, [L] option 2, [G] neither","key_press":76,"name":"choice","trial_type":"html-keyboard-response","trial_index":87,"time_elapsed":268699,"internal_node_id":"0.0-87.0","subject":"S1C1635","sona":"39847","block":6,"time":"2021-09-18T22:25:01.381Z","response":"2nd","certainty":"high","char":"L","transposition":3,"order":["swapped","shifted"],"probe_pitches":[0,6,11,4,5,6,7,1,11,3,8,4,10,-1,10,4],"shifted_pitches":[0,6,11,4,5,6,7,2,11,3,8,4,10,-1,10,4],"swapped_pitches":[0,6,11,4,5,6,7,11,1,3,8,4,10,-1,10,4],"shift_direction":1,"question_num":71,"has_decoy":false},{"rt":11302.699999988079,"stimulus":"[A] option 1, [L] option 2, [G] neither","key_press":65,"name":"choice","trial_type":"html-keyboard-response","trial_index":98,"time_elapsed":302604,"internal_node_id":"0.0-98.0","subject":"S1C1635","sona":"39847","block":6,"time":"2021-09-18T22:25:01.381Z","response":"1st","certainty":"high","char":"A","transposition":-3,"order":["shifted","swapped"],"probe_pitches":[6,5,3,0,2,10,11,8,2,6,8,9,10,3,8,5],"shifted_pitches":[6,5,3,0,2,10,11,8,1,6,8,9,10,3,8,5],"swapped_pitches":[6,5,3,0,2,10,11,2,8,6,8,9,10,3,8,5],"shift_direction":-1,"question_num":81,"has_decoy":false},{"rt":5393.5,"stimulus":"[A] option 1, [L] option 2, [G] neither","key_press":71,"name":"choice","trial_type":"html-keyboard-response","trial_index":109,"time_elapsed":339694,"internal_node_id":"0.0-109.0","subject":"S1C1635","sona":"39847","block":6,"time":"2021-09-18T22:25:01.381Z","response":"neither","certainty":"high","char":"G","transposition":-1,"order":["swapped","shifted"],"probe_pitches":[3,8,5,10,12,3,8,10,3,5,12,5,8,15,12,3],"shifted_pitches":[3,8,5,10,12,3,8,10,4,5,12,5,8,15,12,3],"swapped_pitches":[3,8,5,10,12,3,8,3,10,5,12,5,8,15,12,3],"shift_direction":1,"question_num":91,"has_decoy":false},{"rt":11483.09999999404,"stimulus":"[A] option 1, [L] option 2, [G] neither","key_press":71,"name":"choice","trial_type":"html-keyboard-response","trial_index":120,"time_elapsed":382083,"internal_node_id":"0.0-120.0","subject":"S1C1635","sona":"39847","block":6,"time":"2021-09-18T22:25:01.381Z","response":"neither","certainty":"high","char":"G","transposition":-2,"order":["swapped","shifted"],"probe_pitches":[11,15,11,13,8,13,3,13,8,11,8,11,6,3,15,8],"shifted_pitches":[11,15,11,13,8,13,3,13,7,11,8,11,6,3,15,8],"swapped_pitches":[11,15,11,13,8,13,3,8,13,11,8,11,6,3,15,8],"shift_direction":-1,"question_num":101,"has_decoy":false},{"rt":6067.699999988079,"stimulus":"[A] option 1, [L] option 2, [G] neither","key_press":65,"name":"choice","trial_type":"html-keyboard-response","trial_index":131,"time_elapsed":433615,"internal_node_id":"0.0-131.0","subject":"S1C1635","sona":"39847","block":6,"time":"2021-09-18T22:25:01.381Z","response":"1st","certainty":"high","char":"A","transposition":-1,"order":["swapped","shifted"],"probe_pitches":[2,6,-1,3,4,9,5,1,9,7,0,3,0,6,0,4],"shifted_pitches":[2,6,-1,3,4,9,5,1,8,7,0,3,0,6,0,4],"swapped_pitches":[2,6,-1,3,4,9,5,9,1,7,0,3,0,6,0,4],"shift_direction":-1,"question_num":111,"has_decoy":false},{"rt":10368.59999999404,"stimulus":"[A] option 1, [L] option 2, [G] neither","key_press":71,"name":"choice","trial_type":"html-keyboard-response","trial_index":142,"time_elapsed":470295,"internal_node_id":"0.0-142.0","subject":"S1C1635","sona":"39847","block":6,"time":"2021-09-18T22:25:01.381Z","response":"neither","certainty":"high","char":"G","transposition":2,"order":["swapped","shifted"],"probe_pitches":[13,15,10,6,13,3,8,10,15,13,15,13,8,15,3,13],"shifted_pitches":[13,15,10,6,13,3,8,9,15,13,15,13,8,15,3,13],"swapped_pitches":[13,15,10,6,13,3,8,15,10,13,15,13,8,15,3,13],"shift_direction":-1,"question_num":121,"has_decoy":false},{"rt":9324.199999988079,"stimulus":"[A] option 1, [L] option 2, [G] neither","key_press":71,"name":"choice","trial_type":"html-keyboard-response","trial_index":153,"time_elapsed":502453,"internal_node_id":"0.0-153.0","subject":"S1C1635","sona":"39847","block":6,"time":"2021-09-18T22:25:01.381Z","response":"neither","certainty":"high","char":"G","transposition":1,"order":["shifted","swapped"],"probe_pitches":[10,12,10,5,3,5,3,7,12,15,12,15,12,3,15,3],"shifted_pitches":[10,12,10,5,3,5,3,8,12,15,12,15,12,3,15,3],"swapped_pitches":[10,12,10,5,3,5,3,12,7,15,12,15,12,3,15,3],"shift_direction":1,"question_num":131,"has_decoy":false},{"rt":8295.5,"stimulus":"[A] option 1, [L] option 2, [G] neither","key_press":76,"name":"choice","trial_type":"html-keyboard-response","trial_index":164,"time_elapsed":536465,"internal_node_id":"0.0-164.0","subject":"S1C1635","sona":"39847","block":6,"time":"2021-09-18T22:25:01.381Z","response":"2nd","certainty":"high","char":"L","transposition":3,"order":["shifted","swapped"],"probe_pitches":[5,3,8,10,13,5,8,5,10,8,10,13,8,10,8,3],"shifted_pitches":[5,3,8,10,13,5,8,5,9,8,10,13,8,10,8,3],"swapped_pitches":[5,3,8,10,13,5,8,10,5,8,10,13,8,10,8,3],"shift_direction":-1,"question_num":141,"has_decoy":false},{"rt":10771.5,"stimulus":"[A] option 1, [L] option 2, [G] neither","key_press":76,"name":"choice","trial_type":"html-keyboard-response","trial_index":175,"time_elapsed":571806,"internal_node_id":"0.0-175.0","subject":"S1C1635","sona":"39847","block":6,"time":"2021-09-18T22:25:01.381Z","response":"2nd","certainty":"high","char":"L","transposition":-3,"order":["swapped","shifted"],"probe_pitches":[2,6,8,10,4,11,1,9,8,1,8,6,2,10,3,1],"shifted_pitches":[2,6,8,10,4,11,1,9,7,1,8,6,2,10,3,1],"swapped_pitches":[2,6,8,10,4,11,1,8,9,1,8,6,2,10,3,1],"shift_direction":-1,"question_num":151,"has_decoy":false},{"rt":2052.4000000059605,"stimulus":"[A] option 1, [L] option 2, [G] neither","key_press":71,"name":"choice","trial_type":"html-keyboard-response","trial_index":186,"time_elapsed":597162,"internal_node_id":"0.0-186.0","subject":"S1C1635","sona":"39847","block":6,"time":"2021-09-18T22:25:01.381Z","response":"neither","certainty":"high","char":"G","transposition":-1,"order":["shifted","swapped"],"probe_pitches":[7,11,8,7,4,7,0,5,9,10,0,9,3,0,-1,9],"shifted_pitches":[7,11,8,7,4,7,0,6,9,10,0,9,3,0,-1,9],"swapped_pitches":[7,11,8,7,4,7,0,9,5,10,0,9,3,0,-1,9],"shift_direction":1,"question_num":161,"has_decoy":false},{"rt":6787.4000000059605,"stimulus":"[A] option 1, [L] option 2, [G] neither","key_press":76,"name":"choice","trial_type":"html-keyboard-response","trial_index":197,"time_elapsed":628986,"internal_node_id":"0.0-197.0","subject":"S1C1635","sona":"39847","block":6,"time":"2021-09-18T22:25:01.381Z","response":"2nd","certainty":"high","char":"L","transposition":0,"order":["shifted","swapped"],"probe_pitches":[10,5,3,5,10,7,3,7,5,3,12,10,15,12,5,15],"shifted_pitches":[10,5,3,5,10,7,3,7,4,3,12,10,15,12,5,15],"swapped_pitches":[10,5,3,5,10,7,3,5,7,3,12,10,15,12,5,15],"shift_direction":-1,"question_num":171,"has_decoy":false},{"rt":13628.5,"stimulus":"[A] option 1, [L] option 2, [G] neither","key_press":71,"name":"choice","trial_type":"html-keyboard-response","trial_index":208,"time_elapsed":667529,"internal_node_id":"0.0-208.0","subject":"S1C1635","sona":"39847","block":6,"time":"2021-09-18T22:25:01.381Z","response":"neither","certainty":"high","char":"G","transposition":-3,"order":["swapped","shifted"],"probe_pitches":[8,10,15,13,10,8,3,13,8,10,13,8,13,5,15,10],"shifted_pitches":[8,10,15,13,10,8,3,13,9,10,13,8,13,5,15,10],"swapped_pitches":[8,10,15,13,10,8,3,8,13,10,13,8,13,5,15,10],"shift_direction":1,"question_num":181,"has_decoy":false},{"rt":18870.5,"stimulus":"[A] option 1, [L] option 2, [G] neither","key_press":71,"name":"choice","trial_type":"html-keyboard-response","trial_index":219,"time_elapsed":716442,"internal_node_id":"0.0-219.0","subject":"S1C1635","sona":"39847","block":6,"time":"2021-09-18T22:25:01.381Z","response":"neither","certainty":"high","char":"G","transposition":1,"order":["shifted","swapped"],"probe_pitches":[4,10,6,11,8,6,2,7,10,6,1,2,7,2,-1,8],"shifted_pitches":[4,10,6,11,8,6,2,7,9,6,1,2,7,2,-1,8],"swapped_pitches":[4,10,6,11,8,6,2,10,7,6,1,2,7,2,-1,8],"shift_direction":-1,"question_num":191,"has_decoy":false}]