[{"rt":1349.300000011921,"stimulus":"[A] option 1, [L] option 2, [G] neither","key_press":76,"name":"choice","trial_type":"html-keyboard-response","trial_index":10,"time_elapsed":32152,"internal_node_id":"0.0-10.0","subject":"S1C1635","sona":"39847","block":4,"time":"2021-09-18T22:01:31.784Z","response":"2nd","certainty":"high","char":"L","transposition":2,"order":["shifted","swapped"],"probe_pitches":[5,4,6,8,7,6,4,2,11,12,13,4,3,7,3,5],"shifted_pitches":[5,4,6,8,7,6,4,2,10,12,13,4,3,7,3,5],"swapped_pitches":[5,4,6,8,7,6,4,11,2,12,13,4,3,7,3,5],"shift_direction":-1,"question_num":1,"has_decoy":false},{"rt":2273,"stimulus":"[A] option 1, [L] option 2, [G] neither","key_press":76,"name":"choice","trial_type":"html-keyboard-response","trial_index":21,"time_elapsed":59417,"internal_node_id":"0.0-21.0","subject":"S1C1635","sona":"39847","block":4,"time":"2021-09-18T22:01:31.784Z","response":"2nd","certainty":"high","char":"L","transposition":0,"order":["shifted","swapped"],"probe_pitches":[8,12,13,12,14,6,2,4,3,12,2,12,4,14,12,11],"shifted_pitches":[8,12,13,12,14,6,2,5,3,12,2,12,4,14,12,11],"swapped_pitches":[8,12,13,12,14,6,2,3,4,12,2,12,4,14,12,11],"shift_direction":1,"question_num":11,"has_decoy":false},{"rt":7491,"stimulus":"[A] option 1, [L] option 2, [G] neither","key_press":71,"name":"choice","trial_type":"html-keyboard-response","trial_index":32,"time_elapsed":91756,"internal_node_id":"0.0-32.0","subject":"S1C1635","sona":"39847","block":4,"time":"2021-09-18T22:01:31.784Z","response":"neither","certainty":"high","char":"G","transposition":1,"order":["swapped","shifted"],"probe_pitches":[4,6,-1,4,-1,9,-1,2,9,4,9,2,9,2,-1,6],"shifted_pitches":[4,6,-1,4,-1,9,-1,2,8,4,9,2,9,2,-1,6],"swapped_pitches":[4,6,-1,4,-1,9,-1,9,2,4,9,2,9,2,-1,6],"shift_direction":-1,"question_num":21,"has_decoy":false},{"rt":10785.59999999404,"stimulus":"[A] option 1, [L] option 2, [G] neither","key_press":65,"name":"choice","trial_type":"html-keyboard-response","trial_index":43,"time_elapsed":133514,"internal_node_id":"0.0-43.0","subject":"S1C1635","sona":"39847","block":4,"time":"2021-09-18T22:01:31.784Z","response":"1st","certainty":"high","char":"A","transposition":1,"order":["shifted","swapped"],"probe_pitches":[2,3,2,4,7,11,2,11,4,9,7,13,4,6,5,14],"shifted_pitches":[2,3,2,4,7,11,2,12,4,9,7,13,4,6,5,14],"swapped_pitches":[2,3,2,4,7,11,2,4,11,9,7,13,4,6,5,14],"shift_direction":1,"question_num":31,"has_decoy":false},{"rt":9518,"stimulus":"[A] option 1, [L] option 2, [G] neither","key_press":76,"name":"choice","trial_type":"html-keyboard-response","trial_index":54,"time_elapsed":166627,"internal_node_id":"0.0-54.0","subject":"S1C1635","sona":"39847","block":4,"time":"2021-09-18T22:01:31.784Z","response":"2nd","certainty":"high","char":"L","transposition":2,"order":["shifted","swapped"],"probe_pitches":[4,7,11,9,11,7,4,9,11,2,-1,9,11,7,4,11],"shifted_pitches":[4,7,11,9,11,7,4,9,10,2,-1,9,11,7,4,11],"swapped_pitches":[4,7,11,9,11,7,4,11,9,2,-1,9,11,7,4,11],"shift_direction":-1,"question_num":41,"has_decoy":false},{"rt":9692.5,"stimulus":"[A] option 1, [L] option 2, [G] neither","key_press":65,"name":"choice","trial_type":"html-keyboard-response","trial_index":65,"time_elapsed":203148,"internal_node_id":"0.0-65.0","subject":"S1C1635","sona":"39847","block":4,"time":"2021-09-18T22:01:31.784Z","response":"1st","certainty":"high","char":"A","transposition":-1,"order":["swapped","shifted"],"probe_pitches":[6,4,1,6,11,1,-1,6,9,11,-1,11,6,-1,1,6],"shifted_pitches":[6,4,1,6,11,1,-1,6,10,11,-1,11,6,-1,1,6],"swapped_pitches":[6,4,1,6,11,1,-1,9,6,11,-1,11,6,-1,1,6],"shift_direction":1,"question_num":51,"has_decoy":false},{"rt":3372.7000000178814,"stimulus":"[A] option 1, [L] option 2, [G] neither","key_press":76,"name":"choice","trial_type":"html-keyboard-response","trial_index":76,"time_elapsed":233698,"internal_node_id":"0.0-76.0","subject":"S1C1635","sona":"39847","block":4,"time":"2021-09-18T22:01:31.784Z","response":"2nd","certainty":"high","char":"L","transposition":-2,"order":["swapped","shifted"],"probe_pitches":[11,7,12,8,9,7,11,6,5,9,12,6,12,9,7,9],"shifted_pitches":[11,7,12,8,9,7,11,6,4,9,12,6,12,9,7,9],"swapped_pitches":[11,7,12,8,9,7,11,5,6,9,12,6,12,9,7,9],"shift_direction":-1,"question_num":61,"has_decoy":false},{"rt":5851.100000023842,"stimulus":"[A] option 1, [L] option 2, [G] neither","key_press":65,"name":"choice","trial_type":"html-keyboard-response","trial_index":87,"time_elapsed":266380,"internal_node_id":"0.0-87.0","subject":"S1C1635","sona":"39847","block":4,"time":"2021-09-18T22:01:31.784Z","response":"1st","certainty":"high","char":"A","transposition":-2,"order":["shifted","swapped"],"probe_pitches":[8,3,2,8,13,14,10,5,4,11,8,7,5,12,14,5],"shifted_pitches":[8,3,2,8,13,14,10,6,4,11,8,7,5,12,14,5],"swapped_pitches":[8,3,2,8,13,14,10,4,5,11,8,7,5,12,14,5],"shift_direction":1,"question_num":71,"has_decoy":false},{"rt":3440.5999999940395,"stimulus":"[A] option 1, [L] option 2, [G] neither","key_press":65,"name":"choice","trial_type":"html-keyboard-response","trial_index":98,"time_elapsed":295895,"internal_node_id":"0.0-98.0","subject":"S1C1635","sona":"39847","block":4,"time":"2021-09-18T22:01:31.784Z","response":"1st","certainty":"high","char":"A","transposition":3,"order":["shifted","swapped"],"probe_pitches":[8,3,1,3,8,1,8,3,11,8,6,3,8,11,1,8],"shifted_pitches":[8,3,1,3,8,1,8,2,11,8,6,3,8,11,1,8],"swapped_pitches":[8,3,1,3,8,1,8,11,3,8,6,3,8,11,1,8],"shift_direction":-1,"question_num":81,"has_decoy":false},{"rt":3216.600000023842,"stimulus":"[A] option 1, [L] option 2, [G] neither","key_press":71,"name":"choice","trial_type":"html-keyboard-response","trial_index":109,"time_elapsed":328803,"internal_node_id":"0.0-109.0","subject":"S1C1635","sona":"39847","block":4,"time":"2021-09-18T22:01:31.784Z","response":"neither","certainty":"high","char":"G","transposition":-2,"order":["shifted","swapped"],"probe_pitches":[8,11,6,3,8,3,1,3,-1,8,6,8,1,-1,3,6],"shifted_pitches":[8,11,6,3,8,3,1,4,-1,8,6,8,1,-1,3,6],"swapped_pitches":[8,11,6,3,8,3,1,-1,3,8,6,8,1,-1,3,6],"shift_direction":1,"question_num":91,"has_decoy":false},{"rt":18246.19999998808,"stimulus":"[A] option 1, [L] option 2, [G] neither","key_press":65,"name":"choice","trial_type":"html-keyboard-response","trial_index":120,"time_elapsed":371604,"internal_node_id":"0.0-120.0","subject":"S1C1635","sona":"39847","block":4,"time":"2021-09-18T22:01:31.784Z","response":"1st","certainty":"high","char":"A","transposition":-3,"order":["swapped","shifted"],"probe_pitches":[10,13,7,6,13,11,2,10,9,12,4,10,5,12,10,3],"shifted_pitches":[10,13,7,6,13,11,2,10,8,12,4,10,5,12,10,3],"swapped_pitches":[10,13,7,6,13,11,2,9,10,12,4,10,5,12,10,3],"shift_direction":-1,"question_num":101,"has_decoy":false},{"rt":3425.899999976158,"stimulus":"[A] option 1, [L] option 2, [G] neither","key_press":71,"name":"choice","trial_type":"html-keyboard-response","trial_index":131,"time_elapsed":408885,"internal_node_id":"0.0-131.0","subject":"S1C1635","sona":"39847","block":4,"time":"2021-09-18T22:01:31.784Z","response":"neither","certainty":"high","char":"G","transposition":-1,"order":["swapped","shifted"],"probe_pitches":[1,-1,4,1,-1,6,1,4,-1,1,11,1,9,6,-1,11],"shifted_pitches":[1,-1,4,1,-1,6,1,3,-1,1,11,1,9,6,-1,11],"swapped_pitches":[1,-1,4,1,-1,6,1,-1,4,1,11,1,9,6,-1,11],"shift_direction":-1,"question_num":111,"has_decoy":false},{"rt":1786.5,"stimulus":"[A] option 1, [L] option 2, [G] neither","key_press":76,"name":"choice","trial_type":"html-keyboard-response","trial_index":142,"time_elapsed":438654,"internal_node_id":"0.0-142.0","subject":"S1C1635","sona":"39847","block":4,"time":"2021-09-18T22:01:31.784Z","response":"2nd","certainty":"high","char":"L","transposition":3,"order":["swapped","shifted"],"probe_pitches":[14,11,14,8,5,2,13,7,8,11,3,11,7,3,13,10],"shifted_pitches":[14,11,14,8,5,2,13,7,9,11,3,11,7,3,13,10],"swapped_pitches":[14,11,14,8,5,2,13,8,7,11,3,11,7,3,13,10],"shift_direction":1,"question_num":121,"has_decoy":false},{"rt":13516.90000000596,"stimulus":"[A] option 1, [L] option 2, [G] neither","key_press":71,"name":"choice","trial_type":"html-keyboard-response","trial_index":153,"time_elapsed":482321,"internal_node_id":"0.0-153.0","subject":"S1C1635","sona":"39847","block":4,"time":"2021-09-18T22:01:31.784Z","response":"neither","certainty":"high","char":"G","transposition":-3,"order":["swapped","shifted"],"probe_pitches":[7,2,5,10,5,9,3,10,5,13,9,12,8,10,9,10],"shifted_pitches":[7,2,5,10,5,9,3,11,5,13,9,12,8,10,9,10],"swapped_pitches":[7,2,5,10,5,9,3,5,10,13,9,12,8,10,9,10],"shift_direction":1,"question_num":131,"has_decoy":false},{"rt":6174.699999988079,"stimulus":"[A] option 1, [L] option 2, [G] neither","key_press":65,"name":"choice","trial_type":"html-keyboard-response","trial_index":164,"time_elapsed":525032,"internal_node_id":"0.0-164.0","subject":"S1C1635","sona":"39847","block":4,"time":"2021-09-18T22:01:31.784Z","response":"1st","certainty":"high","char":"A","transposition":-1,"order":["swapped","shifted"],"probe_pitches":[5,10,14,6,4,7,9,2,12,14,6,12,11,14,7,10],"shifted_pitches":[5,10,14,6,4,7,9,1,12,14,6,12,11,14,7,10],"swapped_pitches":[5,10,14,6,4,7,9,12,2,14,6,12,11,14,7,10],"shift_direction":-1,"question_num":141,"has_decoy":false},{"rt":3246.5,"stimulus":"[A] option 1, [L] option 2, [G] neither","key_press":76,"name":"choice","trial_type":"html-keyboard-response","trial_index":175,"time_elapsed":559496,"internal_node_id":"0.0-175.0","subject":"S1C1635","sona":"39847","block":4,"time":"2021-09-18T22:01:31.784Z","response":"2nd","certainty":"high","char":"L","transposition":-3,"order":["shifted","swapped"],"probe_pitches":[4,9,6,11,9,6,11,-1,6,2,-1,2,-1,4,9,11],"shifted_pitches":[4,9,6,11,9,6,11,0,6,2,-1,2,-1,4,9,11],"swapped_pitches":[4,9,6,11,9,6,11,6,-1,2,-1,2,-1,4,9,11],"shift_direction":1,"question_num":151,"has_decoy":false},{"rt":9139.09999999404,"stimulus":"[A] option 1, [L] option 2, [G] neither","key_press":65,"name":"choice","trial_type":"html-keyboard-response","trial_index":186,"time_elapsed":600279,"internal_node_id":"0.0-186.0","subject":"S1C1635","sona":"39847","block":4,"time":"2021-09-18T22:01:31.784Z","response":"1st","certainty":"high","char":"A","transposition":0,"order":["swapped","shifted"],"probe_pitches":[2,-1,4,2,-1,2,11,2,4,9,11,7,9,4,11,-1],"shifted_pitches":[2,-1,4,2,-1,2,11,3,4,9,11,7,9,4,11,-1],"swapped_pitches":[2,-1,4,2,-1,2,11,4,2,9,11,7,9,4,11,-1],"shift_direction":1,"question_num":161,"has_decoy":false},{"rt":7452.200000017881,"stimulus":"[A] option 1, [L] option 2, [G] neither","key_press":71,"name":"choice","trial_type":"html-keyboard-response","trial_index":197,"time_elapsed":640930,"internal_node_id":"0.0-197.0","subject":"S1C1635","sona":"39847","block":4,"time":"2021-09-18T22:01:31.784Z","response":"neither","certainty":"high","char":"G","transposition":-2,"order":["shifted","swapped"],"probe_pitches":[8,4,-1,6,8,11,4,11,1,4,8,11,1,4,-1,4],"shifted_pitches":[8,4,-1,6,8,11,4,11,2,4,8,11,1,4,-1,4],"swapped_pitches":[8,4,-1,6,8,11,4,1,11,4,8,11,1,4,-1,4],"shift_direction":1,"question_num":171,"has_decoy":false},{"rt":2748.199999988079,"stimulus":"[A] option 1, [L] option 2, [G] neither","key_press":76,"name":"choice","trial_type":"html-keyboard-response","trial_index":208,"time_elapsed":667346,"internal_node_id":"0.0-208.0","subject":"S1C1635","sona":"39847","block":4,"time":"2021-09-18T22:01:31.784Z","response":"2nd","certainty":"high","char":"L","transposition":-1,"order":["shifted","swapped"],"probe_pitches":[10,9,13,6,5,3,2,4,8,11,5,4,8,12,14,13],"shifted_pitches":[10,9,13,6,5,3,2,4,7,11,5,4,8,12,14,13],"swapped_pitches":[10,9,13,6,5,3,2,8,4,11,5,4,8,12,14,13],"shift_direction":-1,"question_num":181,"has_decoy":false},{"rt":8631.59999999404,"stimulus":"[A] option 1, [L] option 2, [G] neither","key_press":76,"name":"choice","trial_type":"html-keyboard-response","trial_index":219,"time_elapsed":700217,"internal_node_id":"0.0-219.0","subject":"S1C1635","sona":"39847","block":4,"time":"2021-09-18T22:01:31.784Z","response":"2nd","certainty":"high","char":"L","transposition":-3,"order":["swapped","shifted"],"probe_pitches":[6,1,6,4,1,-1,6,-1,1,6,4,11,8,-1,4,8],"shifted_pitches":[6,1,6,4,1,-1,6,-1,0,6,4,11,8,-1,4,8],"swapped_pitches":[6,1,6,4,1,-1,6,1,-1,6,4,11,8,-1,4,8],"shift_direction":-1,"question_num":191,"has_decoy":false}]