[{"rt":9057.40000000596,"stimulus":"[A] option 1, [L] option 2, [G] neither","key_press":76,"name":"choice","trial_type":"html-keyboard-response","trial_index":10,"time_elapsed":33584,"internal_node_id":"0.0-10.0","subject":"S1C1635","sona":"39847","block":2,"time":"2021-09-18T21:36:40.527Z","response":"2nd","certainty":"high","char":"L","transposition":1,"order":["shifted","swapped"],"probe_pitches":[4,8,3,8,6,5,3,12,7,10,4,12,3,4,8,5],"shifted_pitches":[4,8,3,8,6,5,3,11,7,10,4,12,3,4,8,5],"swapped_pitches":[4,8,3,8,6,5,3,7,12,10,4,12,3,4,8,5],"shift_direction":-1,"question_num":1,"has_decoy":false},{"rt":4135.899999976158,"stimulus":"[A] option 1, [L] option 2, [G] neither","key_press":65,"name":"choice","trial_type":"html-keyboard-response","trial_index":21,"time_elapsed":61143,"internal_node_id":"0.0-21.0","subject":"S1C1635","sona":"39847","block":2,"time":"2021-09-18T21:36:40.527Z","response":"1st","certainty":"high","char":"A","transposition":2,"order":["swapped","shifted"],"probe_pitches":[14,11,4,6,4,5,10,9,13,5,11,9,5,9,10,3],"shifted_pitches":[14,11,4,6,4,5,10,8,13,5,11,9,5,9,10,3],"swapped_pitches":[14,11,4,6,4,5,10,13,9,5,11,9,5,9,10,3],"shift_direction":-1,"question_num":11,"has_decoy":false},{"rt":4750.800000011921,"stimulus":"[A] option 1, [L] option 2, [G] neither","key_press":76,"name":"choice","trial_type":"html-keyboard-response","trial_index":32,"time_elapsed":93790,"internal_node_id":"0.0-32.0","subject":"S1C1635","sona":"39847","block":2,"time":"2021-09-18T21:36:40.527Z","response":"2nd","certainty":"high","char":"L","transposition":-3,"order":["shifted","swapped"],"probe_pitches":[7,5,10,2,10,12,2,10,12,14,12,10,12,2,5,14],"shifted_pitches":[7,5,10,2,10,12,2,11,12,14,12,10,12,2,5,14],"swapped_pitches":[7,5,10,2,10,12,2,12,10,14,12,10,12,2,5,14],"shift_direction":1,"question_num":21,"has_decoy":false},{"rt":1385.5,"stimulus":"[A] option 1, [L] option 2, [G] neither","key_press":65,"name":"choice","trial_type":"html-keyboard-response","trial_index":43,"time_elapsed":125551,"internal_node_id":"0.0-43.0","subject":"S1C1635","sona":"39847","block":2,"time":"2021-09-18T21:36:40.527Z","response":"1st","certainty":"high","char":"A","transposition":-2,"order":["swapped","shifted"],"probe_pitches":[14,12,7,6,10,7,2,3,14,10,12,14,7,6,11,10],"shifted_pitches":[14,12,7,6,10,7,2,3,13,10,12,14,7,6,11,10],"swapped_pitches":[14,12,7,6,10,7,2,14,3,10,12,14,7,6,11,10],"shift_direction":-1,"question_num":31,"has_decoy":false},{"rt":5132.5999999940395,"stimulus":"[A] option 1, [L] option 2, [G] neither","key_press":76,"name":"choice","trial_type":"html-keyboard-response","trial_index":54,"time_elapsed":153383,"internal_node_id":"0.0-54.0","subject":"S1C1635","sona":"39847","block":2,"time":"2021-09-18T21:36:40.527Z","response":"2nd","certainty":"high","char":"L","transposition":-1,"order":["shifted","swapped"],"probe_pitches":[9,3,2,10,11,12,2,11,4,2,7,14,4,10,8,9],"shifted_pitches":[9,3,2,10,11,12,2,11,5,2,7,14,4,10,8,9],"swapped_pitches":[9,3,2,10,11,12,2,4,11,2,7,14,4,10,8,9],"shift_direction":1,"question_num":41,"has_decoy":false},{"rt":1360.5999999940395,"stimulus":"[A] option 1, [L] option 2, [G] neither","key_press":76,"name":"choice","trial_type":"html-keyboard-response","trial_index":65,"time_elapsed":181282,"internal_node_id":"0.0-65.0","subject":"S1C1635","sona":"39847","block":2,"time":"2021-09-18T21:36:40.527Z","response":"2nd","certainty":"high","char":"L","transposition":-2,"order":["swapped","shifted"],"probe_pitches":[3,2,8,3,2,8,13,2,11,9,5,14,3,11,13,2],"shifted_pitches":[3,2,8,3,2,8,13,2,12,9,5,14,3,11,13,2],"swapped_pitches":[3,2,8,3,2,8,13,11,2,9,5,14,3,11,13,2],"shift_direction":1,"question_num":51,"has_decoy":false},{"rt":3215.0999999940395,"stimulus":"[A] option 1, [L] option 2, [G] neither","key_press":65,"name":"choice","trial_type":"html-keyboard-response","trial_index":76,"time_elapsed":208949,"internal_node_id":"0.0-76.0","subject":"S1C1635","sona":"39847","block":2,"time":"2021-09-18T21:36:40.527Z","response":"1st","certainty":"high","char":"A","transposition":-1,"order":["shifted","swapped"],"probe_pitches":[4,9,14,9,14,7,4,9,7,2,7,14,9,2,9,11],"shifted_pitches":[4,9,14,9,14,7,4,8,7,2,7,14,9,2,9,11],"swapped_pitches":[4,9,14,9,14,7,4,7,9,2,7,14,9,2,9,11],"shift_direction":-1,"question_num":61,"has_decoy":false},{"rt":1797.300000011921,"stimulus":"[A] option 1, [L] option 2, [G] neither","key_press":76,"name":"choice","trial_type":"html-keyboard-response","trial_index":87,"time_elapsed":236390,"internal_node_id":"0.0-87.0","subject":"S1C1635","sona":"39847","block":2,"time":"2021-09-18T21:36:40.527Z","response":"2nd","certainty":"high","char":"L","transposition":0,"order":["shifted","swapped"],"probe_pitches":[4,2,7,9,7,14,4,7,9,14,11,4,11,14,2,11],"shifted_pitches":[4,2,7,9,7,14,4,7,10,14,11,4,11,14,2,11],"swapped_pitches":[4,2,7,9,7,14,4,9,7,14,11,4,11,14,2,11],"shift_direction":1,"question_num":71,"has_decoy":false},{"rt":1474.9000000059605,"stimulus":"[A] option 1, [L] option 2, [G] neither","key_press":65,"name":"choice","trial_type":"html-keyboard-response","trial_index":98,"time_elapsed":262954,"internal_node_id":"0.0-98.0","subject":"S1C1635","sona":"39847","block":2,"time":"2021-09-18T21:36:40.527Z","response":"1st","certainty":"high","char":"A","transposition":-2,"order":["shifted","swapped"],"probe_pitches":[5,7,2,7,2,7,12,9,2,14,9,2,14,2,5,9],"shifted_pitches":[5,7,2,7,2,7,12,9,1,14,9,2,14,2,5,9],"swapped_pitches":[5,7,2,7,2,7,12,2,9,14,9,2,14,2,5,9],"shift_direction":-1,"question_num":81,"has_decoy":false},{"rt":8342.40000000596,"stimulus":"[A] option 1, [L] option 2, [G] neither","key_press":71,"name":"choice","trial_type":"html-keyboard-response","trial_index":109,"time_elapsed":302430,"internal_node_id":"0.0-109.0","subject":"S1C1635","sona":"39847","block":2,"time":"2021-09-18T21:36:40.527Z","response":"neither","certainty":"high","char":"G","transposition":-1,"order":["swapped","shifted"],"probe_pitches":[7,9,12,9,7,9,14,5,12,14,5,12,14,7,14,2],"shifted_pitches":[7,9,12,9,7,9,14,6,12,14,5,12,14,7,14,2],"swapped_pitches":[7,9,12,9,7,9,14,12,5,14,5,12,14,7,14,2],"shift_direction":1,"question_num":91,"has_decoy":false},{"rt":5809,"stimulus":"[A] option 1, [L] option 2, [G] neither","key_press":71,"name":"choice","trial_type":"html-keyboard-response","trial_index":120,"time_elapsed":331503,"internal_node_id":"0.0-120.0","subject":"S1C1635","sona":"39847","block":2,"time":"2021-09-18T21:36:40.527Z","response":"neither","certainty":"high","char":"G","transposition":-3,"order":["swapped","shifted"],"probe_pitches":[3,4,11,14,12,13,11,5,10,8,7,8,10,3,14,13],"shifted_pitches":[3,4,11,14,12,13,11,6,10,8,7,8,10,3,14,13],"swapped_pitches":[3,4,11,14,12,13,11,10,5,8,7,8,10,3,14,13],"shift_direction":1,"question_num":101,"has_decoy":false},{"rt":13004.899999976158,"stimulus":"[A] option 1, [L] option 2, [G] neither","key_press":76,"name":"choice","trial_type":"html-keyboard-response","trial_index":131,"time_elapsed":373021,"internal_node_id":"0.0-131.0","subject":"S1C1635","sona":"39847","block":2,"time":"2021-09-18T21:36:40.527Z","response":"2nd","certainty":"high","char":"L","transposition":-2,"order":["shifted","swapped"],"probe_pitches":[9,4,2,6,9,4,9,14,2,6,4,11,14,2,9,4],"shifted_pitches":[9,4,2,6,9,4,9,14,3,6,4,11,14,2,9,4],"swapped_pitches":[9,4,2,6,9,4,9,2,14,6,4,11,14,2,9,4],"shift_direction":1,"question_num":111,"has_decoy":false},{"rt":6108.0999999940395,"stimulus":"[A] option 1, [L] option 2, [G] neither","key_press":65,"name":"choice","trial_type":"html-keyboard-response","trial_index":142,"time_elapsed":403659,"internal_node_id":"0.0-142.0","subject":"S1C1635","sona":"39847","block":2,"time":"2021-09-18T21:36:40.527Z","response":"1st","certainty":"high","char":"A","transposition":3,"order":["shifted","swapped"],"probe_pitches":[6,12,6,11,10,13,3,8,4,14,12,8,5,7,14,6],"shifted_pitches":[6,12,6,11,10,13,3,9,4,14,12,8,5,7,14,6],"swapped_pitches":[6,12,6,11,10,13,3,4,8,14,12,8,5,7,14,6],"shift_direction":1,"question_num":121,"has_decoy":false},{"rt":3413.7000000178814,"stimulus":"[A] option 1, [L] option 2, [G] neither","key_press":76,"name":"choice","trial_type":"html-keyboard-response","trial_index":153,"time_elapsed":430149,"internal_node_id":"0.0-153.0","subject":"S1C1635","sona":"39847","block":2,"time":"2021-09-18T21:36:40.527Z","response":"2nd","certainty":"high","char":"L","transposition":0,"order":["shifted","swapped"],"probe_pitches":[12,9,10,2,9,11,4,8,14,4,9,10,11,8,10,13],"shifted_pitches":[12,9,10,2,9,11,4,7,14,4,9,10,11,8,10,13],"swapped_pitches":[12,9,10,2,9,11,4,14,8,4,9,10,11,8,10,13],"shift_direction":-1,"question_num":131,"has_decoy":false},{"rt":4859.800000011921,"stimulus":"[A] option 1, [L] option 2, [G] neither","key_press":71,"name":"choice","trial_type":"html-keyboard-response","trial_index":164,"time_elapsed":460257,"internal_node_id":"0.0-164.0","subject":"S1C1635","sona":"39847","block":2,"time":"2021-09-18T21:36:40.527Z","response":"neither","certainty":"high","char":"G","transposition":-1,"order":["swapped","shifted"],"probe_pitches":[13,14,9,10,5,9,6,5,3,8,7,12,14,7,6,2],"shifted_pitches":[13,14,9,10,5,9,6,5,4,8,7,12,14,7,6,2],"swapped_pitches":[13,14,9,10,5,9,6,3,5,8,7,12,14,7,6,2],"shift_direction":1,"question_num":141,"has_decoy":false},{"rt":5475.4000000059605,"stimulus":"[A] option 1, [L] option 2, [G] neither","key_press":76,"name":"choice","trial_type":"html-keyboard-response","trial_index":175,"time_elapsed":491364,"internal_node_id":"0.0-175.0","subject":"S1C1635","sona":"39847","block":2,"time":"2021-09-18T21:36:40.527Z","response":"2nd","certainty":"high","char":"L","transposition":1,"order":["swapped","shifted"],"probe_pitches":[2,4,7,2,9,4,7,12,4,2,4,2,14,9,14,2],"shifted_pitches":[2,4,7,2,9,4,7,12,3,2,4,2,14,9,14,2],"swapped_pitches":[2,4,7,2,9,4,7,4,12,2,4,2,14,9,14,2],"shift_direction":-1,"question_num":151,"has_decoy":false},{"rt":3577.0999999940395,"stimulus":"[A] option 1, [L] option 2, [G] neither","key_press":76,"name":"choice","trial_type":"html-keyboard-response","trial_index":186,"time_elapsed":523674,"internal_node_id":"0.0-186.0","subject":"S1C1635","sona":"39847","block":2,"time":"2021-09-18T21:36:40.527Z","response":"2nd","certainty":"high","char":"L","transposition":2,"order":["swapped","shifted"],"probe_pitches":[7,9,4,12,14,12,7,9,14,2,7,2,7,2,7,12],"shifted_pitches":[7,9,4,12,14,12,7,9,15,2,7,2,7,2,7,12],"swapped_pitches":[7,9,4,12,14,12,7,14,9,2,7,2,7,2,7,12],"shift_direction":1,"question_num":161,"has_decoy":false},{"rt":6493.800000011921,"stimulus":"[A] option 1, [L] option 2, [G] neither","key_press":65,"name":"choice","trial_type":"html-keyboard-response","trial_index":197,"time_elapsed":554634,"internal_node_id":"0.0-197.0","subject":"S1C1635","sona":"39847","block":2,"time":"2021-09-18T21:36:40.527Z","response":"1st","certainty":"high","char":"A","transposition":3,"order":["swapped","shifted"],"probe_pitches":[4,9,6,9,4,6,11,2,4,14,11,9,14,2,9,6],"shifted_pitches":[4,9,6,9,4,6,11,1,4,14,11,9,14,2,9,6],"swapped_pitches":[4,9,6,9,4,6,11,4,2,14,11,9,14,2,9,6],"shift_direction":-1,"question_num":171,"has_decoy":false},{"rt":4061.2999999821186,"stimulus":"[A] option 1, [L] option 2, [G] neither","key_press":76,"name":"choice","trial_type":"html-keyboard-response","trial_index":208,"time_elapsed":583685,"internal_node_id":"0.0-208.0","subject":"S1C1635","sona":"39847","block":2,"time":"2021-09-18T21:36:40.527Z","response":"2nd","certainty":"high","char":"L","transposition":-3,"order":["swapped","shifted"],"probe_pitches":[14,10,7,5,7,2,12,2,7,5,12,5,7,2,7,10],"shifted_pitches":[14,10,7,5,7,2,12,1,7,5,12,5,7,2,7,10],"swapped_pitches":[14,10,7,5,7,2,12,7,2,5,12,5,7,2,7,10],"shift_direction":-1,"question_num":181,"has_decoy":false},{"rt":7379.9000000059605,"stimulus":"[A] option 1, [L] option 2, [G] neither","key_press":65,"name":"choice","trial_type":"html-keyboard-response","trial_index":219,"time_elapsed":616401,"internal_node_id":"0.0-219.0","subject":"S1C1635","sona":"39847","block":2,"time":"2021-09-18T21:36:40.527Z","response":"1st","certainty":"high","char":"A","transposition":-3,"order":["shifted","swapped"],"probe_pitches":[2,5,11,9,3,7,5,3,11,13,2,13,4,7,5,2],"shifted_pitches":[2,5,11,9,3,7,5,3,10,13,2,13,4,7,5,2],"swapped_pitches":[2,5,11,9,3,7,5,11,3,13,2,13,4,7,5,2],"shift_direction":-1,"question_num":191,"has_decoy":false}]