[{"rt":4695.9000000059605,"stimulus":"[A] option 1, [L] option 2, [G] neither","key_press":71,"name":"choice","trial_type":"html-keyboard-response","trial_index":10,"time_elapsed":36656,"internal_node_id":"0.0-10.0","subject":"S1C1635","sona":"39847","block":3,"time":"2021-09-18T21:49:39.253Z","response":"neither","certainty":"high","char":"G","transposition":1,"order":["shifted","swapped"],"probe_pitches":[6,4,6,-1,4,1,6,4,-1,11,8,4,1,4,6,-1],"shifted_pitches":[6,4,6,-1,4,1,6,3,-1,11,8,4,1,4,6,-1],"swapped_pitches":[6,4,6,-1,4,1,6,-1,4,11,8,4,1,4,6,-1],"shift_direction":-1,"question_num":1,"has_decoy":false},{"rt":4105.100000023842,"stimulus":"[A] option 1, [L] option 2, [G] neither","key_press":76,"name":"choice","trial_type":"html-keyboard-response","trial_index":21,"time_elapsed":66872,"internal_node_id":"0.0-21.0","subject":"S1C1635","sona":"39847","block":3,"time":"2021-09-18T21:49:39.253Z","response":"2nd","certainty":"high","char":"L","transposition":2,"order":["swapped","shifted"],"probe_pitches":[11,8,5,0,1,-1,5,7,10,8,0,11,10,9,10,8],"shifted_pitches":[11,8,5,0,1,-1,5,6,10,8,0,11,10,9,10,8],"swapped_pitches":[11,8,5,0,1,-1,5,10,7,8,0,11,10,9,10,8],"shift_direction":-1,"question_num":11,"has_decoy":false},{"rt":2189.5,"stimulus":"[A] option 1, [L] option 2, [G] neither","key_press":65,"name":"choice","trial_type":"html-keyboard-response","trial_index":32,"time_elapsed":106050,"internal_node_id":"0.0-32.0","subject":"S1C1635","sona":"39847","block":3,"time":"2021-09-18T21:49:39.253Z","response":"1st","certainty":"high","char":"A","transposition":-3,"order":["swapped","shifted"],"probe_pitches":[8,10,4,-1,7,9,8,1,3,5,8,6,9,11,-1,8],"shifted_pitches":[8,10,4,-1,7,9,8,1,2,5,8,6,9,11,-1,8],"swapped_pitches":[8,10,4,-1,7,9,8,3,1,5,8,6,9,11,-1,8],"shift_direction":-1,"question_num":21,"has_decoy":false},{"rt":4377.5,"stimulus":"[A] option 1, [L] option 2, [G] neither","key_press":65,"name":"choice","trial_type":"html-keyboard-response","trial_index":43,"time_elapsed":144146,"internal_node_id":"0.0-43.0","subject":"S1C1635","sona":"39847","block":3,"time":"2021-09-18T21:49:39.253Z","response":"1st","certainty":"high","char":"A","transposition":-1,"order":["swapped","shifted"],"probe_pitches":[1,-1,4,8,5,3,2,-1,5,7,9,-1,8,6,-1,2],"shifted_pitches":[1,-1,4,8,5,3,2,-2,5,7,9,-1,8,6,-1,2],"swapped_pitches":[1,-1,4,8,5,3,2,5,-1,7,9,-1,8,6,-1,2],"shift_direction":-1,"question_num":31,"has_decoy":false},{"rt":6241.799999982119,"stimulus":"[A] option 1, [L] option 2, [G] neither","key_press":71,"name":"choice","trial_type":"html-keyboard-response","trial_index":54,"time_elapsed":178661,"internal_node_id":"0.0-54.0","subject":"S1C1635","sona":"39847","block":3,"time":"2021-09-18T21:49:39.253Z","response":"neither","certainty":"high","char":"G","transposition":-3,"order":["shifted","swapped"],"probe_pitches":[7,6,-1,5,0,3,0,7,8,11,4,10,11,3,6,8],"shifted_pitches":[7,6,-1,5,0,3,0,7,9,11,4,10,11,3,6,8],"swapped_pitches":[7,6,-1,5,0,3,0,8,7,11,4,10,11,3,6,8],"shift_direction":1,"question_num":41,"has_decoy":false},{"rt":5505.300000011921,"stimulus":"[A] option 1, [L] option 2, [G] neither","key_press":65,"name":"choice","trial_type":"html-keyboard-response","trial_index":65,"time_elapsed":215599,"internal_node_id":"0.0-65.0","subject":"S1C1635","sona":"39847","block":3,"time":"2021-09-18T21:49:39.253Z","response":"1st","certainty":"high","char":"A","transposition":-1,"order":["swapped","shifted"],"probe_pitches":[-1,4,6,9,6,-1,1,4,6,1,6,-1,1,11,6,11],"shifted_pitches":[-1,4,6,9,6,-1,1,4,5,1,6,-1,1,11,6,11],"swapped_pitches":[-1,4,6,9,6,-1,1,6,4,1,6,-1,1,11,6,11],"shift_direction":-1,"question_num":51,"has_decoy":false},{"rt":5222,"stimulus":"[A] option 1, [L] option 2, [G] neither","key_press":71,"name":"choice","trial_type":"html-keyboard-response","trial_index":76,"time_elapsed":244463,"internal_node_id":"0.0-76.0","subject":"S1C1635","sona":"39847","block":3,"time":"2021-09-18T21:49:39.253Z","response":"neither","certainty":"high","char":"G","transposition":-3,"order":["shifted","swapped"],"probe_pitches":[2,4,6,4,6,9,4,2,-1,4,6,-1,2,4,2,6],"shifted_pitches":[2,4,6,4,6,9,4,3,-1,4,6,-1,2,4,2,6],"swapped_pitches":[2,4,6,4,6,9,4,-1,2,4,6,-1,2,4,2,6],"shift_direction":1,"question_num":61,"has_decoy":false},{"rt":3220.9000000059605,"stimulus":"[A] option 1, [L] option 2, [G] neither","key_press":65,"name":"choice","trial_type":"html-keyboard-response","trial_index":87,"time_elapsed":348494,"internal_node_id":"0.0-87.0","subject":"S1C1635","sona":"39847","block":3,"time":"2021-09-18T21:49:39.253Z","response":"1st","certainty":"high","char":"A","transposition":1,"order":["swapped","shifted"],"probe_pitches":[10,5,8,0,5,7,1,3,9,6,1,5,6,1,9,5],"shifted_pitches":[10,5,8,0,5,7,1,4,9,6,1,5,6,1,9,5],"swapped_pitches":[10,5,8,0,5,7,1,9,3,6,1,5,6,1,9,5],"shift_direction":1,"question_num":71,"has_decoy":false},{"rt":2344.4000000059605,"stimulus":"[A] option 1, [L] option 2, [G] neither","key_press":71,"name":"choice","trial_type":"html-keyboard-response","trial_index":98,"time_elapsed":375335,"internal_node_id":"0.0-98.0","subject":"S1C1635","sona":"39847","block":3,"time":"2021-09-18T21:49:39.253Z","response":"neither","certainty":"high","char":"G","transposition":-2,"order":["shifted","swapped"],"probe_pitches":[9,10,9,7,8,11,6,4,7,6,9,7,6,5,0,6],"shifted_pitches":[9,10,9,7,8,11,6,3,7,6,9,7,6,5,0,6],"swapped_pitches":[9,10,9,7,8,11,6,7,4,6,9,7,6,5,0,6],"shift_direction":-1,"question_num":81,"has_decoy":false},{"rt":7050.200000017881,"stimulus":"[A] option 1, [L] option 2, [G] neither","key_press":71,"name":"choice","trial_type":"html-keyboard-response","trial_index":109,"time_elapsed":411156,"internal_node_id":"0.0-109.0","subject":"S1C1635","sona":"39847","block":3,"time":"2021-09-18T21:49:39.253Z","response":"neither","certainty":"high","char":"G","transposition":0,"order":["shifted","swapped"],"probe_pitches":[-1,1,-1,4,2,10,3,4,6,2,1,8,-1,9,2,5],"shifted_pitches":[-1,1,-1,4,2,10,3,4,7,2,1,8,-1,9,2,5],"swapped_pitches":[-1,1,-1,4,2,10,3,6,4,2,1,8,-1,9,2,5],"shift_direction":1,"question_num":91,"has_decoy":false},{"rt":1234.699999988079,"stimulus":"[A] option 1, [L] option 2, [G] neither","key_press":65,"name":"choice","trial_type":"html-keyboard-response","trial_index":120,"time_elapsed":439261,"internal_node_id":"0.0-120.0","subject":"S1C1635","sona":"39847","block":3,"time":"2021-09-18T21:49:39.253Z","response":"1st","certainty":"high","char":"A","transposition":-1,"order":["swapped","shifted"],"probe_pitches":[9,11,9,4,11,4,5,7,2,4,-1,5,3,1,0,2],"shifted_pitches":[9,11,9,4,11,4,5,8,2,4,-1,5,3,1,0,2],"swapped_pitches":[9,11,9,4,11,4,5,2,7,4,-1,5,3,1,0,2],"shift_direction":1,"question_num":101,"has_decoy":false},{"rt":1290,"stimulus":"[A] option 1, [L] option 2, [G] neither","key_press":76,"name":"choice","trial_type":"html-keyboard-response","trial_index":131,"time_elapsed":465631,"internal_node_id":"0.0-131.0","subject":"S1C1635","sona":"39847","block":3,"time":"2021-09-18T21:49:39.253Z","response":"2nd","certainty":"high","char":"L","transposition":-3,"order":["swapped","shifted"],"probe_pitches":[2,4,-1,2,4,7,11,4,9,7,9,-1,2,4,9,7],"shifted_pitches":[2,4,-1,2,4,7,11,4,10,7,9,-1,2,4,9,7],"swapped_pitches":[2,4,-1,2,4,7,11,9,4,7,9,-1,2,4,9,7],"shift_direction":1,"question_num":111,"has_decoy":false},{"rt":12047.300000011921,"stimulus":"[A] option 1, [L] option 2, [G] neither","key_press":65,"name":"choice","trial_type":"html-keyboard-response","trial_index":142,"time_elapsed":502208,"internal_node_id":"0.0-142.0","subject":"S1C1635","sona":"39847","block":3,"time":"2021-09-18T21:49:39.253Z","response":"1st","certainty":"high","char":"A","transposition":-1,"order":["shifted","swapped"],"probe_pitches":[4,2,9,6,11,4,9,11,4,2,6,4,6,4,11,6],"shifted_pitches":[4,2,9,6,11,4,9,11,3,2,6,4,6,4,11,6],"swapped_pitches":[4,2,9,6,11,4,9,4,11,2,6,4,6,4,11,6],"shift_direction":-1,"question_num":121,"has_decoy":false},{"rt":394.19999998807907,"stimulus":"[A] option 1, [L] option 2, [G] neither","key_press":76,"name":"choice","trial_type":"html-keyboard-response","trial_index":153,"time_elapsed":533579,"internal_node_id":"0.0-153.0","subject":"S1C1635","sona":"39847","block":3,"time":"2021-09-18T21:49:39.253Z","response":"2nd","certainty":"high","char":"L","transposition":-2,"order":["shifted","swapped"],"probe_pitches":[6,7,6,9,3,-1,7,10,2,3,7,11,0,7,6,5],"shifted_pitches":[6,7,6,9,3,-1,7,10,1,3,7,11,0,7,6,5],"swapped_pitches":[6,7,6,9,3,-1,7,2,10,3,7,11,0,7,6,5],"shift_direction":-1,"question_num":131,"has_decoy":false},{"rt":5119.4000000059605,"stimulus":"[A] option 1, [L] option 2, [G] neither","key_press":71,"name":"choice","trial_type":"html-keyboard-response","trial_index":164,"time_elapsed":563815,"internal_node_id":"0.0-164.0","subject":"S1C1635","sona":"39847","block":3,"time":"2021-09-18T21:49:39.253Z","response":"neither","certainty":"high","char":"G","transposition":-2,"order":["swapped","shifted"],"probe_pitches":[4,-1,2,9,2,-1,7,2,4,11,4,7,11,2,7,-1],"shifted_pitches":[4,-1,2,9,2,-1,7,3,4,11,4,7,11,2,7,-1],"swapped_pitches":[4,-1,2,9,2,-1,7,4,2,11,4,7,11,2,7,-1],"shift_direction":1,"question_num":141,"has_decoy":false},{"rt":15030.40000000596,"stimulus":"[A] option 1, [L] option 2, [G] neither","key_press":76,"name":"choice","trial_type":"html-keyboard-response","trial_index":175,"time_elapsed":605438,"internal_node_id":"0.0-175.0","subject":"S1C1635","sona":"39847","block":3,"time":"2021-09-18T21:49:39.253Z","response":"2nd","certainty":"high","char":"L","transposition":-2,"order":["shifted","swapped"],"probe_pitches":[4,-1,1,-1,6,9,4,1,6,11,1,6,1,-1,4,9],"shifted_pitches":[4,-1,1,-1,6,9,4,0,6,11,1,6,1,-1,4,9],"swapped_pitches":[4,-1,1,-1,6,9,4,6,1,11,1,6,1,-1,4,9],"shift_direction":-1,"question_num":151,"has_decoy":false},{"rt":1036.199999988079,"stimulus":"[A] option 1, [L] option 2, [G] neither","key_press":76,"name":"choice","trial_type":"html-keyboard-response","trial_index":186,"time_elapsed":631354,"internal_node_id":"0.0-186.0","subject":"S1C1635","sona":"39847","block":3,"time":"2021-09-18T21:49:39.253Z","response":"2nd","certainty":"high","char":"L","transposition":0,"order":["swapped","shifted"],"probe_pitches":[3,8,1,8,6,8,3,11,1,8,6,3,11,1,6,3],"shifted_pitches":[3,8,1,8,6,8,3,11,2,8,6,3,11,1,6,3],"swapped_pitches":[3,8,1,8,6,8,3,1,11,8,6,3,11,1,6,3],"shift_direction":1,"question_num":161,"has_decoy":false},{"rt":9198.90000000596,"stimulus":"[A] option 1, [L] option 2, [G] neither","key_press":65,"name":"choice","trial_type":"html-keyboard-response","trial_index":197,"time_elapsed":664994,"internal_node_id":"0.0-197.0","subject":"S1C1635","sona":"39847","block":3,"time":"2021-09-18T21:49:39.253Z","response":"1st","certainty":"high","char":"A","transposition":3,"order":["shifted","swapped"],"probe_pitches":[6,8,1,4,8,11,6,4,8,-1,1,6,4,8,1,4],"shifted_pitches":[6,8,1,4,8,11,6,4,9,-1,1,6,4,8,1,4],"swapped_pitches":[6,8,1,4,8,11,6,8,4,-1,1,6,4,8,1,4],"shift_direction":1,"question_num":171,"has_decoy":false},{"rt":5394.5999999940395,"stimulus":"[A] option 1, [L] option 2, [G] neither","key_press":76,"name":"choice","trial_type":"html-keyboard-response","trial_index":208,"time_elapsed":700546,"internal_node_id":"0.0-208.0","subject":"S1C1635","sona":"39847","block":3,"time":"2021-09-18T21:49:39.253Z","response":"2nd","certainty":"high","char":"L","transposition":3,"order":["shifted","swapped"],"probe_pitches":[10,11,9,3,8,3,11,10,4,1,6,7,2,1,3,11],"shifted_pitches":[10,11,9,3,8,3,11,10,5,1,6,7,2,1,3,11],"swapped_pitches":[10,11,9,3,8,3,11,4,10,1,6,7,2,1,3,11],"shift_direction":1,"question_num":181,"has_decoy":false},{"rt":5265.5,"stimulus":"[A] option 1, [L] option 2, [G] neither","key_press":71,"name":"choice","trial_type":"html-keyboard-response","trial_index":219,"time_elapsed":736896,"internal_node_id":"0.0-219.0","subject":"S1C1635","sona":"39847","block":3,"time":"2021-09-18T21:49:39.253Z","response":"neither","certainty":"high","char":"G","transposition":2,"order":["swapped","shifted"],"probe_pitches":[11,6,8,3,-1,6,-1,11,1,3,1,6,11,-1,6,1],"shifted_pitches":[11,6,8,3,-1,6,-1,10,1,3,1,6,11,-1,6,1],"swapped_pitches":[11,6,8,3,-1,6,-1,1,11,3,1,6,11,-1,6,1],"shift_direction":-1,"question_num":191,"has_decoy":false}]