[{"rt":7017.799999982119,"stimulus":"[A] option 1, [L] option 2, [G] neither","key_press":76,"name":"choice","trial_type":"html-keyboard-response","trial_index":15,"time_elapsed":87460,"internal_node_id":"0.0-15.0","response":"2nd","certainty":"high","char":"L","transposition":-1,"order":["shifted","swapped"],"probe_pitches":[9,5,12,5,6,0,3,0,5,6,8,7,10,9,6,9],"shifted_pitches":[9,5,12,5,6,0,3,0,4,6,8,7,10,9,6,9],"swapped_pitches":[9,5,12,5,6,0,3,5,0,6,8,7,10,9,6,9],"shift_direction":-1,"question_num":1,"has_decoy":false,"subject":"S1C1635","sona":"39847","block":1,"time":"2021-09-18T21:26:14.748Z"},{"rt":6256.700000017881,"stimulus":"[A] option 1, [L] option 2, [G] neither","key_press":71,"name":"choice","trial_type":"html-keyboard-response","trial_index":26,"time_elapsed":118283,"internal_node_id":"0.0-26.0","response":"neither","certainty":"high","char":"G","transposition":1,"order":["swapped","shifted"],"probe_pitches":[11,8,4,7,12,7,12,5,8,3,4,5,3,7,9,2],"shifted_pitches":[11,8,4,7,12,7,12,6,8,3,4,5,3,7,9,2],"swapped_pitches":[11,8,4,7,12,7,12,8,5,3,4,5,3,7,9,2],"shift_direction":1,"question_num":11,"has_decoy":false,"subject":"S1C1635","sona":"39847","block":1,"time":"2021-09-18T21:26:14.748Z"},{"rt":2250.4000000059605,"stimulus":"[A] option 1, [L] option 2, [G] neither","key_press":65,"name":"choice","trial_type":"html-keyboard-response","trial_index":37,"time_elapsed":148304,"internal_node_id":"0.0-37.0","response":"1st","certainty":"high","char":"A","transposition":-2,"order":["swapped","shifted"],"probe_pitches":[3,6,8,13,11,13,15,6,11,13,11,15,8,6,3,6],"shifted_pitches":[3,6,8,13,11,13,15,5,11,13,11,15,8,6,3,6],"swapped_pitches":[3,6,8,13,11,13,15,11,6,13,11,15,8,6,3,6],"shift_direction":-1,"question_num":21,"has_decoy":false,"subject":"S1C1635","sona":"39847","block":1,"time":"2021-09-18T21:26:14.748Z"},{"rt":6855.100000023842,"stimulus":"[A] option 1, [L] option 2, [G] neither","key_press":76,"name":"choice","trial_type":"html-keyboard-response","trial_index":48,"time_elapsed":183613,"internal_node_id":"0.0-48.0","response":"2nd","certainty":"high","char":"L","transposition":0,"order":["swapped","shifted"],"probe_pitches":[10,13,10,3,5,3,5,8,15,13,10,15,13,8,13,10],"shifted_pitches":[10,13,10,3,5,3,5,9,15,13,10,15,13,8,13,10],"swapped_pitches":[10,13,10,3,5,3,5,15,8,13,10,15,13,8,13,10],"shift_direction":1,"question_num":31,"has_decoy":false,"subject":"S1C1635","sona":"39847","block":1,"time":"2021-09-18T21:26:14.748Z"},{"rt":1218.9000000059605,"stimulus":"[A] option 1, [L] option 2, [G] neither","key_press":65,"name":"choice","trial_type":"html-keyboard-response","trial_index":59,"time_elapsed":210132,"internal_node_id":"0.0-59.0","response":"1st","certainty":"high","char":"A","transposition":-2,"order":["swapped","shifted"],"probe_pitches":[2,6,5,6,5,0,8,10,7,6,3,8,4,0,3,1],"shifted_pitches":[2,6,5,6,5,0,8,9,7,6,3,8,4,0,3,1],"swapped_pitches":[2,6,5,6,5,0,8,7,10,6,3,8,4,0,3,1],"shift_direction":-1,"question_num":41,"has_decoy":false,"subject":"S1C1635","sona":"39847","block":1,"time":"2021-09-18T21:26:14.748Z"},{"rt":2784.5,"stimulus":"[A] option 1, [L] option 2, [G] neither","key_press":65,"name":"choice","trial_type":"html-keyboard-response","trial_index":70,"time_elapsed":239486,"internal_node_id":"0.0-70.0","response":"1st","certainty":"high","char":"A","transposition":-2,"order":["shifted","swapped"],"probe_pitches":[10,5,10,15,12,15,5,7,12,5,3,12,3,7,5,3],"shifted_pitches":[10,5,10,15,12,15,5,7,13,5,3,12,3,7,5,3],"swapped_pitches":[10,5,10,15,12,15,5,12,7,5,3,12,3,7,5,3],"shift_direction":1,"question_num":51,"has_decoy":false,"subject":"S1C1635","sona":"39847","block":1,"time":"2021-09-18T21:26:14.748Z"},{"rt":3187.4000000059605,"stimulus":"[A] option 1, [L] option 2, [G] neither","key_press":71,"name":"choice","trial_type":"html-keyboard-response","trial_index":81,"time_elapsed":270211,"internal_node_id":"0.0-81.0","response":"neither","certainty":"high","char":"G","transposition":1,"order":["shifted","swapped"],"probe_pitches":[13,15,8,13,15,10,3,13,6,15,13,3,15,8,15,10],"shifted_pitches":[13,15,8,13,15,10,3,13,5,15,13,3,15,8,15,10],"swapped_pitches":[13,15,8,13,15,10,3,6,13,15,13,3,15,8,15,10],"shift_direction":-1,"question_num":61,"has_decoy":false,"subject":"S1C1635","sona":"39847","block":1,"time":"2021-09-18T21:26:14.748Z"},{"rt":1194.4000000059605,"stimulus":"[A] option 1, [L] option 2, [G] neither","key_press":76,"name":"choice","trial_type":"html-keyboard-response","trial_index":92,"time_elapsed":299312,"internal_node_id":"0.0-92.0","response":"2nd","certainty":"high","char":"L","transposition":-3,"order":["swapped","shifted"],"probe_pitches":[3,5,8,10,12,8,5,3,10,15,12,5,12,3,8,5],"shifted_pitches":[3,5,8,10,12,8,5,3,9,15,12,5,12,3,8,5],"swapped_pitches":[3,5,8,10,12,8,5,10,3,15,12,5,12,3,8,5],"shift_direction":-1,"question_num":71,"has_decoy":false,"subject":"S1C1635","sona":"39847","block":1,"time":"2021-09-18T21:26:14.748Z"},{"rt":2192.9000000059605,"stimulus":"[A] option 1, [L] option 2, [G] neither","key_press":65,"name":"choice","trial_type":"html-keyboard-response","trial_index":103,"time_elapsed":331973,"internal_node_id":"0.0-103.0","response":"1st","certainty":"high","char":"A","transposition":-3,"order":["shifted","swapped"],"probe_pitches":[13,15,10,8,5,13,15,13,3,15,5,8,15,13,8,10],"shifted_pitches":[13,15,10,8,5,13,15,13,4,15,5,8,15,13,8,10],"swapped_pitches":[13,15,10,8,5,13,15,3,13,15,5,8,15,13,8,10],"shift_direction":1,"question_num":81,"has_decoy":false,"subject":"S1C1635","sona":"39847","block":1,"time":"2021-09-18T21:26:14.748Z"},{"rt":5893,"stimulus":"[A] option 1, [L] option 2, [G] neither","key_press":76,"name":"choice","trial_type":"html-keyboard-response","trial_index":114,"time_elapsed":363845,"internal_node_id":"0.0-114.0","response":"2nd","certainty":"high","char":"L","transposition":-1,"order":["shifted","swapped"],"probe_pitches":[12,15,12,15,7,3,7,12,3,5,10,3,12,7,12,3],"shifted_pitches":[12,15,12,15,7,3,7,12,4,5,10,3,12,7,12,3],"swapped_pitches":[12,15,12,15,7,3,7,3,12,5,10,3,12,7,12,3],"shift_direction":1,"question_num":91,"has_decoy":false,"subject":"S1C1635","sona":"39847","block":1,"time":"2021-09-18T21:26:14.748Z"},{"rt":5177.300000011921,"stimulus":"[A] option 1, [L] option 2, [G] neither","key_press":71,"name":"choice","trial_type":"html-keyboard-response","trial_index":125,"time_elapsed":396916,"internal_node_id":"0.0-125.0","response":"neither","certainty":"high","char":"G","transposition":-1,"order":["swapped","shifted"],"probe_pitches":[7,10,8,11,10,7,11,4,10,1,11,8,1,0,4,5],"shifted_pitches":[7,10,8,11,10,7,11,3,10,1,11,8,1,0,4,5],"swapped_pitches":[7,10,8,11,10,7,11,10,4,1,11,8,1,0,4,5],"shift_direction":-1,"question_num":101,"has_decoy":false,"subject":"S1C1635","sona":"39847","block":1,"time":"2021-09-18T21:26:14.748Z"},{"rt":2070.5999999940395,"stimulus":"[A] option 1, [L] option 2, [G] neither","key_press":76,"name":"choice","trial_type":"html-keyboard-response","trial_index":136,"time_elapsed":431021,"internal_node_id":"0.0-136.0","response":"2nd","certainty":"high","char":"L","transposition":3,"order":["swapped","shifted"],"probe_pitches":[8,13,15,10,15,13,6,3,8,10,8,6,8,15,13,10],"shifted_pitches":[8,13,15,10,15,13,6,2,8,10,8,6,8,15,13,10],"swapped_pitches":[8,13,15,10,15,13,6,8,3,10,8,6,8,15,13,10],"shift_direction":-1,"question_num":111,"has_decoy":false,"subject":"S1C1635","sona":"39847","block":1,"time":"2021-09-18T21:26:14.748Z"},{"rt":2181.5,"stimulus":"[A] option 1, [L] option 2, [G] neither","key_press":76,"name":"choice","trial_type":"html-keyboard-response","trial_index":147,"time_elapsed":459192,"internal_node_id":"0.0-147.0","response":"2nd","certainty":"high","char":"L","transposition":3,"order":["swapped","shifted"],"probe_pitches":[6,0,5,1,7,6,0,9,1,12,10,0,6,4,9,5],"shifted_pitches":[6,0,5,1,7,6,0,9,2,12,10,0,6,4,9,5],"swapped_pitches":[6,0,5,1,7,6,0,1,9,12,10,0,6,4,9,5],"shift_direction":1,"question_num":121,"has_decoy":false,"subject":"S1C1635","sona":"39847","block":1,"time":"2021-09-18T21:26:14.748Z"},{"rt":4775,"stimulus":"[A] option 1, [L] option 2, [G] neither","key_press":65,"name":"choice","trial_type":"html-keyboard-response","trial_index":158,"time_elapsed":492474,"internal_node_id":"0.0-158.0","response":"1st","certainty":"high","char":"A","transposition":2,"order":["swapped","shifted"],"probe_pitches":[7,9,6,2,9,11,6,2,9,11,1,0,8,6,0,3],"shifted_pitches":[7,9,6,2,9,11,6,2,10,11,1,0,8,6,0,3],"swapped_pitches":[7,9,6,2,9,11,6,9,2,11,1,0,8,6,0,3],"shift_direction":1,"question_num":131,"has_decoy":false,"subject":"S1C1635","sona":"39847","block":1,"time":"2021-09-18T21:26:14.748Z"},{"rt":676.1999999880791,"stimulus":"[A] option 1, [L] option 2, [G] neither","key_press":65,"name":"choice","trial_type":"html-keyboard-response","trial_index":169,"time_elapsed":517863,"internal_node_id":"0.0-169.0","response":"1st","certainty":"high","char":"A","transposition":2,"order":["shifted","swapped"],"probe_pitches":[8,12,15,10,12,15,5,10,8,5,15,10,8,5,12,8],"shifted_pitches":[8,12,15,10,12,15,5,11,8,5,15,10,8,5,12,8],"swapped_pitches":[8,12,15,10,12,15,5,8,10,5,15,10,8,5,12,8],"shift_direction":1,"question_num":141,"has_decoy":false,"subject":"S1C1635","sona":"39847","block":1,"time":"2021-09-18T21:26:14.748Z"},{"rt":4059.0999999940395,"stimulus":"[A] option 1, [L] option 2, [G] neither","key_press":71,"name":"choice","trial_type":"html-keyboard-response","trial_index":180,"time_elapsed":546644,"internal_node_id":"0.0-180.0","response":"neither","certainty":"high","char":"G","transposition":-3,"order":["shifted","swapped"],"probe_pitches":[2,1,4,1,9,7,4,11,7,5,0,3,10,3,0,9],"shifted_pitches":[2,1,4,1,9,7,4,11,8,5,0,3,10,3,0,9],"swapped_pitches":[2,1,4,1,9,7,4,7,11,5,0,3,10,3,0,9],"shift_direction":1,"question_num":151,"has_decoy":false,"subject":"S1C1635","sona":"39847","block":1,"time":"2021-09-18T21:26:14.748Z"},{"rt":5065.5999999940395,"stimulus":"[A] option 1, [L] option 2, [G] neither","key_press":65,"name":"choice","trial_type":"html-keyboard-response","trial_index":191,"time_elapsed":581480,"internal_node_id":"0.0-191.0","response":"1st","certainty":"high","char":"A","transposition":-1,"order":["swapped","shifted"],"probe_pitches":[13,11,8,11,6,3,11,13,15,3,11,3,15,11,3,6],"shifted_pitches":[13,11,8,11,6,3,11,12,15,3,11,3,15,11,3,6],"swapped_pitches":[13,11,8,11,6,3,11,15,13,3,11,3,15,11,3,6],"shift_direction":-1,"question_num":161,"has_decoy":false,"subject":"S1C1635","sona":"39847","block":1,"time":"2021-09-18T21:26:14.748Z"},{"rt":1103.800000011921,"stimulus":"[A] option 1, [L] option 2, [G] neither","key_press":76,"name":"choice","trial_type":"html-keyboard-response","trial_index":202,"time_elapsed":610165,"internal_node_id":"0.0-202.0","response":"2nd","certainty":"high","char":"L","transposition":0,"order":["shifted","swapped"],"probe_pitches":[6,0,1,4,2,5,6,0,8,1,3,9,10,4,9,12],"shifted_pitches":[6,0,1,4,2,5,6,-1,8,1,3,9,10,4,9,12],"swapped_pitches":[6,0,1,4,2,5,6,8,0,1,3,9,10,4,9,12],"shift_direction":-1,"question_num":171,"has_decoy":false,"subject":"S1C1635","sona":"39847","block":1,"time":"2021-09-18T21:26:14.748Z"},{"rt":6949.399999976158,"stimulus":"[A] option 1, [L] option 2, [G] neither","key_press":76,"name":"choice","trial_type":"html-keyboard-response","trial_index":213,"time_elapsed":639808,"internal_node_id":"0.0-213.0","response":"2nd","certainty":"high","char":"L","transposition":-3,"order":["shifted","swapped"],"probe_pitches":[0,2,4,0,9,2,0,8,12,6,8,5,3,8,5,12],"shifted_pitches":[0,2,4,0,9,2,0,7,12,6,8,5,3,8,5,12],"swapped_pitches":[0,2,4,0,9,2,0,12,8,6,8,5,3,8,5,12],"shift_direction":-1,"question_num":181,"has_decoy":false,"subject":"S1C1635","sona":"39847","block":1,"time":"2021-09-18T21:26:14.748Z"},{"rt":6123.9000000059605,"stimulus":"[A] option 1, [L] option 2, [G] neither","key_press":76,"name":"choice","trial_type":"html-keyboard-response","trial_index":224,"time_elapsed":670919,"internal_node_id":"0.0-224.0","response":"2nd","certainty":"high","char":"L","transposition":-2,"order":["shifted","swapped"],"probe_pitches":[8,3,4,2,4,8,1,11,4,2,9,10,2,7,9,0],"shifted_pitches":[8,3,4,2,4,8,1,11,5,2,9,10,2,7,9,0],"swapped_pitches":[8,3,4,2,4,8,1,4,11,2,9,10,2,7,9,0],"shift_direction":1,"question_num":191,"has_decoy":false,"subject":"S1C1635","sona":"39847","block":1,"time":"2021-09-18T21:26:14.748Z"}]