[{"rt":2007.199999988079,"stimulus":"[A] option 1, [L] option 2, [G] neither","key_press":76,"name":"choice","trial_type":"html-keyboard-response","trial_index":10,"time_elapsed":33527,"internal_node_id":"0.0-10.0","subject":"S1C1635","sona":"39847","block":5,"time":"2021-09-18T22:12:56.531Z","response":"2nd","certainty":"high","char":"L","transposition":-2,"order":["shifted","swapped"],"probe_pitches":[3,7,11,5,8,10,9,2,6,9,10,8,3,-1,6,-1],"shifted_pitches":[3,7,11,5,8,10,9,1,6,9,10,8,3,-1,6,-1],"swapped_pitches":[3,7,11,5,8,10,9,6,2,9,10,8,3,-1,6,-1],"shift_direction":-1,"question_num":1,"has_decoy":false},{"rt":5456,"stimulus":"[A] option 1, [L] option 2, [G] neither","key_press":76,"name":"choice","trial_type":"html-keyboard-response","trial_index":21,"time_elapsed":67519,"internal_node_id":"0.0-21.0","subject":"S1C1635","sona":"39847","block":5,"time":"2021-09-18T22:12:56.531Z","response":"2nd","certainty":"high","char":"L","transposition":-2,"order":["shifted","swapped"],"probe_pitches":[11,10,3,7,8,0,2,4,-1,9,11,-1,1,0,8,0],"shifted_pitches":[11,10,3,7,8,0,2,5,-1,9,11,-1,1,0,8,0],"swapped_pitches":[11,10,3,7,8,0,2,-1,4,9,11,-1,1,0,8,0],"shift_direction":1,"question_num":11,"has_decoy":false},{"rt":4086.199999988079,"stimulus":"[A] option 1, [L] option 2, [G] neither","key_press":65,"name":"choice","trial_type":"html-keyboard-response","trial_index":32,"time_elapsed":105270,"internal_node_id":"0.0-32.0","subject":"S1C1635","sona":"39847","block":5,"time":"2021-09-18T22:12:56.531Z","response":"1st","certainty":"high","char":"A","transposition":-3,"order":["shifted","swapped"],"probe_pitches":[11,9,11,9,4,9,4,1,-1,9,4,6,4,6,-1,11],"shifted_pitches":[11,9,11,9,4,9,4,1,0,9,4,6,4,6,-1,11],"swapped_pitches":[11,9,11,9,4,9,4,-1,1,9,4,6,4,6,-1,11],"shift_direction":1,"question_num":21,"has_decoy":false},{"rt":1974.9000000059605,"stimulus":"[A] option 1, [L] option 2, [G] neither","key_press":65,"name":"choice","trial_type":"html-keyboard-response","trial_index":43,"time_elapsed":133757,"internal_node_id":"0.0-43.0","subject":"S1C1635","sona":"39847","block":5,"time":"2021-09-18T22:12:56.531Z","response":"1st","certainty":"high","char":"A","transposition":-1,"order":["swapped","shifted"],"probe_pitches":[6,1,8,3,-1,6,11,1,-1,11,6,3,1,8,11,8],"shifted_pitches":[6,1,8,3,-1,6,11,0,-1,11,6,3,1,8,11,8],"swapped_pitches":[6,1,8,3,-1,6,11,-1,1,11,6,3,1,8,11,8],"shift_direction":-1,"question_num":31,"has_decoy":false},{"rt":8723.59999999404,"stimulus":"[A] option 1, [L] option 2, [G] neither","key_press":71,"name":"choice","trial_type":"html-keyboard-response","trial_index":54,"time_elapsed":177194,"internal_node_id":"0.0-54.0","subject":"S1C1635","sona":"39847","block":5,"time":"2021-09-18T22:12:56.531Z","response":"neither","certainty":"high","char":"G","transposition":-2,"order":["shifted","swapped"],"probe_pitches":[11,6,8,1,6,-1,1,-1,11,6,1,11,1,8,4,8],"shifted_pitches":[11,6,8,1,6,-1,1,-1,10,6,1,11,1,8,4,8],"swapped_pitches":[11,6,8,1,6,-1,1,11,-1,6,1,11,1,8,4,8],"shift_direction":-1,"question_num":41,"has_decoy":false},{"rt":4602,"stimulus":"[A] option 1, [L] option 2, [G] neither","key_press":71,"name":"choice","trial_type":"html-keyboard-response","trial_index":65,"time_elapsed":205211,"internal_node_id":"0.0-65.0","subject":"S1C1635","sona":"39847","block":5,"time":"2021-09-18T22:12:56.531Z","response":"neither","certainty":"high","char":"G","transposition":1,"order":["swapped","shifted"],"probe_pitches":[9,11,4,9,11,2,11,-1,9,6,-1,9,2,9,-1,2],"shifted_pitches":[9,11,4,9,11,2,11,0,9,6,-1,9,2,9,-1,2],"swapped_pitches":[9,11,4,9,11,2,11,9,-1,6,-1,9,2,9,-1,2],"shift_direction":1,"question_num":51,"has_decoy":false},{"rt":6480.0999999940395,"stimulus":"[A] option 1, [L] option 2, [G] neither","key_press":71,"name":"choice","trial_type":"html-keyboard-response","trial_index":76,"time_elapsed":238386,"internal_node_id":"0.0-76.0","subject":"S1C1635","sona":"39847","block":5,"time":"2021-09-18T22:12:56.531Z","response":"neither","certainty":"high","char":"G","transposition":-1,"order":["swapped","shifted"],"probe_pitches":[3,8,5,10,6,10,8,-1,10,0,5,7,3,1,7,2],"shifted_pitches":[3,8,5,10,6,10,8,-1,9,0,5,7,3,1,7,2],"swapped_pitches":[3,8,5,10,6,10,8,10,-1,0,5,7,3,1,7,2],"shift_direction":-1,"question_num":61,"has_decoy":false},{"rt":10267.600000023842,"stimulus":"[A] option 1, [L] option 2, [G] neither","key_press":76,"name":"choice","trial_type":"html-keyboard-response","trial_index":87,"time_elapsed":283886,"internal_node_id":"0.0-87.0","subject":"S1C1635","sona":"39847","block":5,"time":"2021-09-18T22:12:56.531Z","response":"2nd","certainty":"high","char":"L","transposition":-3,"order":["swapped","shifted"],"probe_pitches":[1,3,8,4,11,5,11,8,1,3,11,0,9,11,5,9],"shifted_pitches":[1,3,8,4,11,5,11,7,1,3,11,0,9,11,5,9],"swapped_pitches":[1,3,8,4,11,5,11,1,8,3,11,0,9,11,5,9],"shift_direction":-1,"question_num":71,"has_decoy":false},{"rt":4576.299999982119,"stimulus":"[A] option 1, [L] option 2, [G] neither","key_press":65,"name":"choice","trial_type":"html-keyboard-response","trial_index":98,"time_elapsed":317662,"internal_node_id":"0.0-98.0","subject":"S1C1635","sona":"39847","block":5,"time":"2021-09-18T22:12:56.531Z","response":"1st","certainty":"high","char":"A","transposition":-1,"order":["shifted","swapped"],"probe_pitches":[1,0,6,7,1,8,1,5,7,0,7,8,11,8,6,9],"shifted_pitches":[1,0,6,7,1,8,1,4,7,0,7,8,11,8,6,9],"swapped_pitches":[1,0,6,7,1,8,1,7,5,0,7,8,11,8,6,9],"shift_direction":-1,"question_num":81,"has_decoy":false},{"rt":11503,"stimulus":"[A] option 1, [L] option 2, [G] neither","key_press":71,"name":"choice","trial_type":"html-keyboard-response","trial_index":109,"time_elapsed":357032,"internal_node_id":"0.0-109.0","subject":"S1C1635","sona":"39847","block":5,"time":"2021-09-18T22:12:56.531Z","response":"neither","certainty":"high","char":"G","transposition":0,"order":["swapped","shifted"],"probe_pitches":[4,9,2,7,2,7,4,2,-1,4,7,-1,9,11,-1,4],"shifted_pitches":[4,9,2,7,2,7,4,3,-1,4,7,-1,9,11,-1,4],"swapped_pitches":[4,9,2,7,2,7,4,-1,2,4,7,-1,9,11,-1,4],"shift_direction":1,"question_num":91,"has_decoy":false},{"rt":15049.700000017881,"stimulus":"[A] option 1, [L] option 2, [G] neither","key_press":65,"name":"choice","trial_type":"html-keyboard-response","trial_index":120,"time_elapsed":398868,"internal_node_id":"0.0-120.0","subject":"S1C1635","sona":"39847","block":5,"time":"2021-09-18T22:12:56.531Z","response":"1st","certainty":"high","char":"A","transposition":-3,"order":["swapped","shifted"],"probe_pitches":[1,0,4,1,6,4,11,7,3,-1,0,3,9,-1,6,0],"shifted_pitches":[1,0,4,1,6,4,11,7,2,-1,0,3,9,-1,6,0],"swapped_pitches":[1,0,4,1,6,4,11,3,7,-1,0,3,9,-1,6,0],"shift_direction":-1,"question_num":101,"has_decoy":false},{"rt":1945.7000000178814,"stimulus":"[A] option 1, [L] option 2, [G] neither","key_press":76,"name":"choice","trial_type":"html-keyboard-response","trial_index":131,"time_elapsed":428100,"internal_node_id":"0.0-131.0","subject":"S1C1635","sona":"39847","block":5,"time":"2021-09-18T22:12:56.531Z","response":"2nd","certainty":"high","char":"L","transposition":0,"order":["swapped","shifted"],"probe_pitches":[-1,1,0,8,2,8,0,3,9,-1,6,1,6,11,8,0],"shifted_pitches":[-1,1,0,8,2,8,0,3,10,-1,6,1,6,11,8,0],"swapped_pitches":[-1,1,0,8,2,8,0,9,3,-1,6,1,6,11,8,0],"shift_direction":1,"question_num":111,"has_decoy":false},{"rt":3148.5999999940395,"stimulus":"[A] option 1, [L] option 2, [G] neither","key_press":65,"name":"choice","trial_type":"html-keyboard-response","trial_index":142,"time_elapsed":457895,"internal_node_id":"0.0-142.0","subject":"S1C1635","sona":"39847","block":5,"time":"2021-09-18T22:12:56.531Z","response":"1st","certainty":"high","char":"A","transposition":2,"order":["shifted","swapped"],"probe_pitches":[10,7,3,10,6,9,0,3,7,10,9,11,4,9,0,5],"shifted_pitches":[10,7,3,10,6,9,0,3,8,10,9,11,4,9,0,5],"swapped_pitches":[10,7,3,10,6,9,0,7,3,10,9,11,4,9,0,5],"shift_direction":1,"question_num":121,"has_decoy":false},{"rt":6214.5,"stimulus":"[A] option 1, [L] option 2, [G] neither","key_press":65,"name":"choice","trial_type":"html-keyboard-response","trial_index":153,"time_elapsed":494870,"internal_node_id":"0.0-153.0","subject":"S1C1635","sona":"39847","block":5,"time":"2021-09-18T22:12:56.531Z","response":"1st","certainty":"high","char":"A","transposition":3,"order":["shifted","swapped"],"probe_pitches":[1,4,11,4,-1,6,4,9,-1,6,4,11,1,6,4,-1],"shifted_pitches":[1,4,11,4,-1,6,4,10,-1,6,4,11,1,6,4,-1],"swapped_pitches":[1,4,11,4,-1,6,4,-1,9,6,4,11,1,6,4,-1],"shift_direction":1,"question_num":131,"has_decoy":false},{"rt":4478.200000017881,"stimulus":"[A] option 1, [L] option 2, [G] neither","key_press":76,"name":"choice","trial_type":"html-keyboard-response","trial_index":164,"time_elapsed":525855,"internal_node_id":"0.0-164.0","subject":"S1C1635","sona":"39847","block":5,"time":"2021-09-18T22:12:56.531Z","response":"2nd","certainty":"high","char":"L","transposition":3,"order":["shifted","swapped"],"probe_pitches":[1,-1,1,2,7,6,1,2,11,0,5,9,4,10,-1,5],"shifted_pitches":[1,-1,1,2,7,6,1,3,11,0,5,9,4,10,-1,5],"swapped_pitches":[1,-1,1,2,7,6,1,11,2,0,5,9,4,10,-1,5],"shift_direction":1,"question_num":141,"has_decoy":false},{"rt":2587.199999988079,"stimulus":"[A] option 1, [L] option 2, [G] neither","key_press":65,"name":"choice","trial_type":"html-keyboard-response","trial_index":175,"time_elapsed":555959,"internal_node_id":"0.0-175.0","subject":"S1C1635","sona":"39847","block":5,"time":"2021-09-18T22:12:56.531Z","response":"1st","certainty":"high","char":"A","transposition":-3,"order":["shifted","swapped"],"probe_pitches":[3,6,-1,1,-1,3,11,3,8,11,6,3,-1,11,8,6],"shifted_pitches":[3,6,-1,1,-1,3,11,3,9,11,6,3,-1,11,8,6],"swapped_pitches":[3,6,-1,1,-1,3,11,8,3,11,6,3,-1,11,8,6],"shift_direction":1,"question_num":151,"has_decoy":false},{"rt":3205.100000023842,"stimulus":"[A] option 1, [L] option 2, [G] neither","key_press":76,"name":"choice","trial_type":"html-keyboard-response","trial_index":186,"time_elapsed":584401,"internal_node_id":"0.0-186.0","subject":"S1C1635","sona":"39847","block":5,"time":"2021-09-18T22:12:56.531Z","response":"2nd","certainty":"high","char":"L","transposition":1,"order":["swapped","shifted"],"probe_pitches":[3,1,4,7,3,2,8,9,5,-1,3,0,10,5,10,2],"shifted_pitches":[3,1,4,7,3,2,8,9,6,-1,3,0,10,5,10,2],"swapped_pitches":[3,1,4,7,3,2,8,5,9,-1,3,0,10,5,10,2],"shift_direction":1,"question_num":161,"has_decoy":false},{"rt":8721,"stimulus":"[A] option 1, [L] option 2, [G] neither","key_press":65,"name":"choice","trial_type":"html-keyboard-response","trial_index":197,"time_elapsed":616217,"internal_node_id":"0.0-197.0","subject":"S1C1635","sona":"39847","block":5,"time":"2021-09-18T22:12:56.531Z","response":"1st","certainty":"high","char":"A","transposition":2,"order":["swapped","shifted"],"probe_pitches":[-1,4,9,7,11,4,11,4,-1,9,4,7,4,9,11,2],"shifted_pitches":[-1,4,9,7,11,4,11,3,-1,9,4,7,4,9,11,2],"swapped_pitches":[-1,4,9,7,11,4,11,-1,4,9,4,7,4,9,11,2],"shift_direction":-1,"question_num":171,"has_decoy":false},{"rt":7005.5,"stimulus":"[A] option 1, [L] option 2, [G] neither","key_press":76,"name":"choice","trial_type":"html-keyboard-response","trial_index":208,"time_elapsed":647077,"internal_node_id":"0.0-208.0","subject":"S1C1635","sona":"39847","block":5,"time":"2021-09-18T22:12:56.531Z","response":"2nd","certainty":"high","char":"L","transposition":-1,"order":["swapped","shifted"],"probe_pitches":[11,9,2,4,2,6,4,6,11,-1,9,2,6,4,9,2],"shifted_pitches":[11,9,2,4,2,6,4,6,10,-1,9,2,6,4,9,2],"swapped_pitches":[11,9,2,4,2,6,4,11,6,-1,9,2,6,4,9,2],"shift_direction":-1,"question_num":181,"has_decoy":false},{"rt":3356.4000000059605,"stimulus":"[A] option 1, [L] option 2, [G] neither","key_press":71,"name":"choice","trial_type":"html-keyboard-response","trial_index":219,"time_elapsed":676182,"internal_node_id":"0.0-219.0","subject":"S1C1635","sona":"39847","block":5,"time":"2021-09-18T22:12:56.531Z","response":"neither","certainty":"high","char":"G","transposition":-2,"order":["shifted","swapped"],"probe_pitches":[4,6,1,6,-1,6,8,4,11,6,4,6,1,4,8,4],"shifted_pitches":[4,6,1,6,-1,6,8,4,10,6,4,6,1,4,8,4],"swapped_pitches":[4,6,1,6,-1,6,8,11,4,6,4,6,1,4,8,4],"shift_direction":-1,"question_num":191,"has_decoy":false}]