[{"rt":1051.5,"stimulus":"[A] option 1, [L] option 2, [G] neither","key_press":65,"name":"choice","trial_type":"html-keyboard-response","trial_index":10,"time_elapsed":18937,"internal_node_id":"0.0-10.0","subject":"S1C0809","sona":"41416","block":2,"time":"2021-09-06T19:10:39.684Z","response":"1st","certainty":"high","char":"A","transposition":-2,"order":["shifted","swapped"],"probe_pitches":[7,11,13,5,7,3,12,10],"shifted_pitches":[7,11,13,6,7,3,12,10],"swapped_pitches":[7,11,13,7,5,3,12,10],"shift_direction":1,"question_num":1,"has_decoy":false},{"rt":1401.800000011921,"stimulus":"[A] option 1, [L] option 2, [G] neither","key_press":76,"name":"choice","trial_type":"html-keyboard-response","trial_index":21,"time_elapsed":34627,"internal_node_id":"0.0-21.0","subject":"S1C0809","sona":"41416","block":2,"time":"2021-09-06T19:10:39.684Z","response":"2nd","certainty":"high","char":"L","transposition":-3,"order":["swapped","shifted"],"probe_pitches":[5,9,4,7,11,12,10,9],"shifted_pitches":[5,9,4,8,11,12,10,9],"swapped_pitches":[5,9,4,11,7,12,10,9],"shift_direction":1,"question_num":11,"has_decoy":false},{"rt":2543.2999999970198,"stimulus":"[A] option 1, [L] option 2, [G] neither","key_press":76,"name":"choice","trial_type":"html-keyboard-response","trial_index":32,"time_elapsed":51544,"internal_node_id":"0.0-32.0","subject":"S1C0809","sona":"41416","block":2,"time":"2021-09-06T19:10:39.684Z","response":"2nd","certainty":"high","char":"L","transposition":2,"order":["swapped","shifted"],"probe_pitches":[2,5,2,7,12,5,2,10],"shifted_pitches":[2,5,2,7,11,5,2,10],"swapped_pitches":[2,5,2,12,7,5,2,10],"shift_direction":-1,"question_num":21,"has_decoy":false},{"rt":8271.39999999106,"stimulus":"[A] option 1, [L] option 2, [G] neither","key_press":76,"name":"choice","trial_type":"html-keyboard-response","trial_index":43,"time_elapsed":74099,"internal_node_id":"0.0-43.0","subject":"S1C0809","sona":"41416","block":2,"time":"2021-09-06T19:10:39.684Z","response":"2nd","certainty":"high","char":"L","transposition":1,"order":["shifted","swapped"],"probe_pitches":[15,12,13,15,11,6,3,13],"shifted_pitches":[15,12,13,14,11,6,3,13],"swapped_pitches":[15,12,13,11,15,6,3,13],"shift_direction":-1,"question_num":31,"has_decoy":false},{"rt":4006.3999999910593,"stimulus":"[A] option 1, [L] option 2, [G] neither","key_press":65,"name":"choice","trial_type":"html-keyboard-response","trial_index":54,"time_elapsed":92698,"internal_node_id":"0.0-54.0","subject":"S1C0809","sona":"41416","block":2,"time":"2021-09-06T19:10:39.684Z","response":"1st","certainty":"high","char":"A","transposition":0,"order":["swapped","shifted"],"probe_pitches":[4,3,7,9,3,6,3,7],"shifted_pitches":[4,3,7,10,3,6,3,7],"swapped_pitches":[4,3,7,3,9,6,3,7],"shift_direction":1,"question_num":41,"has_decoy":false},{"rt":2863.5,"stimulus":"[A] option 1, [L] option 2, [G] neither","key_press":65,"name":"choice","trial_type":"html-keyboard-response","trial_index":65,"time_elapsed":110358,"internal_node_id":"0.0-65.0","subject":"S1C0809","sona":"41416","block":2,"time":"2021-09-06T19:10:39.684Z","response":"1st","certainty":"high","char":"A","transposition":-2,"order":["swapped","shifted"],"probe_pitches":[4,9,6,4,12,15,9,8],"shifted_pitches":[4,9,6,4,11,15,9,8],"swapped_pitches":[4,9,6,12,4,15,9,8],"shift_direction":-1,"question_num":51,"has_decoy":false},{"rt":922,"stimulus":"[A] option 1, [L] option 2, [G] neither","key_press":65,"name":"choice","trial_type":"html-keyboard-response","trial_index":76,"time_elapsed":126633,"internal_node_id":"0.0-76.0","subject":"S1C0809","sona":"41416","block":2,"time":"2021-09-06T19:10:39.684Z","response":"1st","certainty":"high","char":"A","transposition":-2,"order":["swapped","shifted"],"probe_pitches":[14,9,6,9,14,11,4,11],"shifted_pitches":[14,9,6,8,14,11,4,11],"swapped_pitches":[14,9,6,14,9,11,4,11],"shift_direction":-1,"question_num":61,"has_decoy":false},{"rt":723.1000000089407,"stimulus":"[A] option 1, [L] option 2, [G] neither","key_press":76,"name":"choice","trial_type":"html-keyboard-response","trial_index":87,"time_elapsed":141789,"internal_node_id":"0.0-87.0","subject":"S1C0809","sona":"41416","block":2,"time":"2021-09-06T19:10:39.684Z","response":"2nd","certainty":"high","char":"L","transposition":0,"order":["swapped","shifted"],"probe_pitches":[4,7,2,9,12,4,14,7],"shifted_pitches":[4,7,2,10,12,4,14,7],"swapped_pitches":[4,7,2,12,9,4,14,7],"shift_direction":1,"question_num":71,"has_decoy":false},{"rt":6209.20000000298,"stimulus":"[A] option 1, [L] option 2, [G] neither","key_press":65,"name":"choice","trial_type":"html-keyboard-response","trial_index":98,"time_elapsed":163616,"internal_node_id":"0.0-98.0","subject":"S1C0809","sona":"41416","block":2,"time":"2021-09-06T19:10:39.684Z","response":"1st","certainty":"high","char":"A","transposition":-1,"order":["swapped","shifted"],"probe_pitches":[11,9,6,9,14,11,4,9],"shifted_pitches":[11,9,6,9,15,11,4,9],"swapped_pitches":[11,9,6,14,9,11,4,9],"shift_direction":1,"question_num":81,"has_decoy":false},{"rt":497.6000000089407,"stimulus":"[A] option 1, [L] option 2, [G] neither","key_press":76,"name":"choice","trial_type":"html-keyboard-response","trial_index":109,"time_elapsed":179611,"internal_node_id":"0.0-109.0","subject":"S1C0809","sona":"41416","block":2,"time":"2021-09-06T19:10:39.684Z","response":"2nd","certainty":"high","char":"L","transposition":-3,"order":["shifted","swapped"],"probe_pitches":[12,7,12,14,5,9,12,2],"shifted_pitches":[12,7,12,13,5,9,12,2],"swapped_pitches":[12,7,12,5,14,9,12,2],"shift_direction":-1,"question_num":91,"has_decoy":false},{"rt":473.40000000596046,"stimulus":"[A] option 1, [L] option 2, [G] neither","key_press":65,"name":"choice","trial_type":"html-keyboard-response","trial_index":120,"time_elapsed":194648,"internal_node_id":"0.0-120.0","subject":"S1C0809","sona":"41416","block":2,"time":"2021-09-06T19:10:39.684Z","response":"1st","certainty":"high","char":"A","transposition":3,"order":["swapped","shifted"],"probe_pitches":[7,13,11,15,10,12,11,7],"shifted_pitches":[7,13,11,15,9,12,11,7],"swapped_pitches":[7,13,11,10,15,12,11,7],"shift_direction":-1,"question_num":101,"has_decoy":false},{"rt":4088.7999999970198,"stimulus":"[A] option 1, [L] option 2, [G] neither","key_press":71,"name":"choice","trial_type":"html-keyboard-response","trial_index":131,"time_elapsed":213117,"internal_node_id":"0.0-131.0","subject":"S1C0809","sona":"41416","block":2,"time":"2021-09-06T19:10:39.684Z","response":"neither","certainty":"high","char":"G","transposition":-2,"order":["shifted","swapped"],"probe_pitches":[11,14,7,2,11,9,4,2],"shifted_pitches":[11,14,7,2,12,9,4,2],"swapped_pitches":[11,14,7,11,2,9,4,2],"shift_direction":1,"question_num":111,"has_decoy":false},{"rt":745.2000000029802,"stimulus":"[A] option 1, [L] option 2, [G] neither","key_press":76,"name":"choice","trial_type":"html-keyboard-response","trial_index":142,"time_elapsed":228478,"internal_node_id":"0.0-142.0","subject":"S1C0809","sona":"41416","block":2,"time":"2021-09-06T19:10:39.684Z","response":"2nd","certainty":"high","char":"L","transposition":-1,"order":["shifted","swapped"],"probe_pitches":[10,5,9,6,8,9,10,5],"shifted_pitches":[10,5,9,6,7,9,10,5],"swapped_pitches":[10,5,9,8,6,9,10,5],"shift_direction":-1,"question_num":121,"has_decoy":false},{"rt":1379.2000000029802,"stimulus":"[A] option 1, [L] option 2, [G] neither","key_press":76,"name":"choice","trial_type":"html-keyboard-response","trial_index":153,"time_elapsed":246349,"internal_node_id":"0.0-153.0","subject":"S1C0809","sona":"41416","block":2,"time":"2021-09-06T19:10:39.684Z","response":"2nd","certainty":"high","char":"L","transposition":1,"order":["shifted","swapped"],"probe_pitches":[14,9,14,12,7,5,2,7],"shifted_pitches":[14,9,14,13,7,5,2,7],"swapped_pitches":[14,9,14,7,12,5,2,7],"shift_direction":1,"question_num":131,"has_decoy":false},{"rt":919.2000000029802,"stimulus":"[A] option 1, [L] option 2, [G] neither","key_press":76,"name":"choice","trial_type":"html-keyboard-response","trial_index":164,"time_elapsed":261762,"internal_node_id":"0.0-164.0","subject":"S1C0809","sona":"41416","block":2,"time":"2021-09-06T19:10:39.684Z","response":"2nd","certainty":"high","char":"L","transposition":-3,"order":["shifted","swapped"],"probe_pitches":[7,9,14,11,9,14,4,7],"shifted_pitches":[7,9,14,12,9,14,4,7],"swapped_pitches":[7,9,14,9,11,14,4,7],"shift_direction":1,"question_num":141,"has_decoy":false},{"rt":439.20000000298023,"stimulus":"[A] option 1, [L] option 2, [G] neither","key_press":76,"name":"choice","trial_type":"html-keyboard-response","trial_index":175,"time_elapsed":276556,"internal_node_id":"0.0-175.0","subject":"S1C0809","sona":"41416","block":2,"time":"2021-09-06T19:10:39.684Z","response":"2nd","certainty":"high","char":"L","transposition":-3,"order":["shifted","swapped"],"probe_pitches":[8,12,9,14,6,15,11,15],"shifted_pitches":[8,12,9,14,5,15,11,15],"swapped_pitches":[8,12,9,6,14,15,11,15],"shift_direction":-1,"question_num":151,"has_decoy":false},{"rt":1396.800000011921,"stimulus":"[A] option 1, [L] option 2, [G] neither","key_press":71,"name":"choice","trial_type":"html-keyboard-response","trial_index":186,"time_elapsed":292677,"internal_node_id":"0.0-186.0","subject":"S1C0809","sona":"41416","block":2,"time":"2021-09-06T19:10:39.684Z","response":"neither","certainty":"high","char":"G","transposition":3,"order":["shifted","swapped"],"probe_pitches":[12,7,12,7,4,12,2,9],"shifted_pitches":[12,7,12,7,3,12,2,9],"swapped_pitches":[12,7,12,4,7,12,2,9],"shift_direction":-1,"question_num":161,"has_decoy":false},{"rt":1496.5999999940395,"stimulus":"[A] option 1, [L] option 2, [G] neither","key_press":65,"name":"choice","trial_type":"html-keyboard-response","trial_index":197,"time_elapsed":308697,"internal_node_id":"0.0-197.0","subject":"S1C0809","sona":"41416","block":2,"time":"2021-09-06T19:10:39.684Z","response":"1st","certainty":"high","char":"A","transposition":2,"order":["shifted","swapped"],"probe_pitches":[7,8,6,4,12,3,6,3],"shifted_pitches":[7,8,6,4,13,3,6,3],"swapped_pitches":[7,8,6,12,4,3,6,3],"shift_direction":1,"question_num":171,"has_decoy":false},{"rt":644.2999999970198,"stimulus":"[A] option 1, [L] option 2, [G] neither","key_press":76,"name":"choice","trial_type":"html-keyboard-response","trial_index":208,"time_elapsed":323708,"internal_node_id":"0.0-208.0","subject":"S1C0809","sona":"41416","block":2,"time":"2021-09-06T19:10:39.684Z","response":"2nd","certainty":"high","char":"L","transposition":-1,"order":["swapped","shifted"],"probe_pitches":[4,5,7,11,15,5,14,13],"shifted_pitches":[4,5,7,12,15,5,14,13],"swapped_pitches":[4,5,7,15,11,5,14,13],"shift_direction":1,"question_num":181,"has_decoy":false},{"rt":493.69999998807907,"stimulus":"[A] option 1, [L] option 2, [G] neither","key_press":76,"name":"choice","trial_type":"html-keyboard-response","trial_index":219,"time_elapsed":338803,"internal_node_id":"0.0-219.0","subject":"S1C0809","sona":"41416","block":2,"time":"2021-09-06T19:10:39.684Z","response":"2nd","certainty":"high","char":"L","transposition":-1,"order":["swapped","shifted"],"probe_pitches":[5,2,5,7,12,10,14,5],"shifted_pitches":[5,2,5,7,11,10,14,5],"swapped_pitches":[5,2,5,12,7,10,14,5],"shift_direction":-1,"question_num":191,"has_decoy":false}]