[{"rt":1514.7999999970198,"stimulus":"[A] option 1, [L] option 2, [G] neither","key_press":71,"name":"choice","trial_type":"html-keyboard-response","trial_index":10,"time_elapsed":19847,"internal_node_id":"0.0-10.0","subject":"S1C0809","sona":"41416","block":6,"time":"2021-09-06T19:41:09.014Z","response":"neither","certainty":"high","char":"G","transposition":-2,"order":["shifted","swapped"],"probe_pitches":[6,3,8,3,1,6,10,1],"shifted_pitches":[6,3,8,2,1,6,10,1],"swapped_pitches":[6,3,8,1,3,6,10,1],"shift_direction":-1,"question_num":1,"has_decoy":false},{"rt":378.90000000596046,"stimulus":"[A] option 1, [L] option 2, [G] neither","key_press":76,"name":"choice","trial_type":"html-keyboard-response","trial_index":21,"time_elapsed":36343,"internal_node_id":"0.0-21.0","subject":"S1C0809","sona":"41416","block":6,"time":"2021-09-06T19:41:09.014Z","response":"2nd","certainty":"high","char":"L","transposition":3,"order":["swapped","shifted"],"probe_pitches":[3,-1,3,6,-1,2,-1,7],"shifted_pitches":[3,-1,3,5,-1,2,-1,7],"swapped_pitches":[3,-1,3,-1,6,2,-1,7],"shift_direction":-1,"question_num":11,"has_decoy":false},{"rt":558.5999999940395,"stimulus":"[A] option 1, [L] option 2, [G] neither","key_press":71,"name":"choice","trial_type":"html-keyboard-response","trial_index":32,"time_elapsed":51376,"internal_node_id":"0.0-32.0","subject":"S1C0809","sona":"41416","block":6,"time":"2021-09-06T19:41:09.014Z","response":"neither","certainty":"high","char":"G","transposition":-3,"order":["shifted","swapped"],"probe_pitches":[0,3,8,0,3,7,11,0],"shifted_pitches":[0,3,8,1,3,7,11,0],"swapped_pitches":[0,3,8,3,0,7,11,0],"shift_direction":1,"question_num":21,"has_decoy":false},{"rt":347.40000000596046,"stimulus":"[A] option 1, [L] option 2, [G] neither","key_press":76,"name":"choice","trial_type":"html-keyboard-response","trial_index":43,"time_elapsed":73192,"internal_node_id":"0.0-43.0","subject":"S1C0809","sona":"41416","block":6,"time":"2021-09-06T19:41:09.014Z","response":"2nd","certainty":"high","char":"L","transposition":0,"order":["swapped","shifted"],"probe_pitches":[11,6,8,6,3,1,11,13],"shifted_pitches":[11,6,8,5,3,1,11,13],"swapped_pitches":[11,6,8,3,6,1,11,13],"shift_direction":-1,"question_num":31,"has_decoy":false},{"rt":414.79999999701977,"stimulus":"[A] option 1, [L] option 2, [G] neither","key_press":76,"name":"choice","trial_type":"html-keyboard-response","trial_index":54,"time_elapsed":88064,"internal_node_id":"0.0-54.0","subject":"S1C0809","sona":"41416","block":6,"time":"2021-09-06T19:41:09.014Z","response":"2nd","certainty":"high","char":"L","transposition":-2,"order":["swapped","shifted"],"probe_pitches":[3,5,10,5,8,13,3,8],"shifted_pitches":[3,5,10,5,9,13,3,8],"swapped_pitches":[3,5,10,8,5,13,3,8],"shift_direction":1,"question_num":41,"has_decoy":false},{"rt":483.79999999701977,"stimulus":"[A] option 1, [L] option 2, [G] neither","key_press":76,"name":"choice","trial_type":"html-keyboard-response","trial_index":65,"time_elapsed":102886,"internal_node_id":"0.0-65.0","subject":"S1C0809","sona":"41416","block":6,"time":"2021-09-06T19:41:09.014Z","response":"2nd","certainty":"high","char":"L","transposition":1,"order":["shifted","swapped"],"probe_pitches":[10,6,10,7,6,1,5,4],"shifted_pitches":[10,6,10,8,6,1,5,4],"swapped_pitches":[10,6,10,6,7,1,5,4],"shift_direction":1,"question_num":51,"has_decoy":false},{"rt":1503.5,"stimulus":"[A] option 1, [L] option 2, [G] neither","key_press":76,"name":"choice","trial_type":"html-keyboard-response","trial_index":76,"time_elapsed":118754,"internal_node_id":"0.0-76.0","subject":"S1C0809","sona":"41416","block":6,"time":"2021-09-06T19:41:09.014Z","response":"2nd","certainty":"high","char":"L","transposition":-1,"order":["shifted","swapped"],"probe_pitches":[3,5,2,6,10,1,4,0],"shifted_pitches":[3,5,2,6,9,1,4,0],"swapped_pitches":[3,5,2,10,6,1,4,0],"shift_direction":-1,"question_num":61,"has_decoy":false},{"rt":537.5,"stimulus":"[A] option 1, [L] option 2, [G] neither","key_press":65,"name":"choice","trial_type":"html-keyboard-response","trial_index":87,"time_elapsed":133793,"internal_node_id":"0.0-87.0","subject":"S1C0809","sona":"41416","block":6,"time":"2021-09-06T19:41:09.014Z","response":"1st","certainty":"high","char":"A","transposition":-3,"order":["shifted","swapped"],"probe_pitches":[9,13,9,11,4,9,4,6],"shifted_pitches":[9,13,9,11,5,9,4,6],"swapped_pitches":[9,13,9,4,11,9,4,6],"shift_direction":1,"question_num":71,"has_decoy":false},{"rt":354.79999999701977,"stimulus":"[A] option 1, [L] option 2, [G] neither","key_press":76,"name":"choice","trial_type":"html-keyboard-response","trial_index":98,"time_elapsed":148902,"internal_node_id":"0.0-98.0","subject":"S1C0809","sona":"41416","block":6,"time":"2021-09-06T19:41:09.014Z","response":"2nd","certainty":"high","char":"L","transposition":-1,"order":["swapped","shifted"],"probe_pitches":[4,9,11,6,1,11,6,9],"shifted_pitches":[4,9,11,5,1,11,6,9],"swapped_pitches":[4,9,11,1,6,11,6,9],"shift_direction":-1,"question_num":81,"has_decoy":false},{"rt":825.6999999880791,"stimulus":"[A] option 1, [L] option 2, [G] neither","key_press":76,"name":"choice","trial_type":"html-keyboard-response","trial_index":109,"time_elapsed":164071,"internal_node_id":"0.0-109.0","subject":"S1C0809","sona":"41416","block":6,"time":"2021-09-06T19:41:09.014Z","response":"2nd","certainty":"high","char":"L","transposition":-2,"order":["swapped","shifted"],"probe_pitches":[-1,2,-1,1,5,7,3,-1],"shifted_pitches":[-1,2,-1,1,6,7,3,-1],"swapped_pitches":[-1,2,-1,5,1,7,3,-1],"shift_direction":1,"question_num":91,"has_decoy":false},{"rt":515.9000000059605,"stimulus":"[A] option 1, [L] option 2, [G] neither","key_press":76,"name":"choice","trial_type":"html-keyboard-response","trial_index":120,"time_elapsed":179079,"internal_node_id":"0.0-120.0","subject":"S1C0809","sona":"41416","block":6,"time":"2021-09-06T19:41:09.014Z","response":"2nd","certainty":"high","char":"L","transposition":-1,"order":["swapped","shifted"],"probe_pitches":[10,5,1,5,3,8,5,8],"shifted_pitches":[10,5,1,5,4,8,5,8],"swapped_pitches":[10,5,1,3,5,8,5,8],"shift_direction":1,"question_num":101,"has_decoy":false},{"rt":647.1000000089407,"stimulus":"[A] option 1, [L] option 2, [G] neither","key_press":71,"name":"choice","trial_type":"html-keyboard-response","trial_index":131,"time_elapsed":193989,"internal_node_id":"0.0-131.0","subject":"S1C0809","sona":"41416","block":6,"time":"2021-09-06T19:41:09.014Z","response":"neither","certainty":"high","char":"G","transposition":0,"order":["swapped","shifted"],"probe_pitches":[6,7,6,1,-1,3,7,6],"shifted_pitches":[6,7,6,2,-1,3,7,6],"swapped_pitches":[6,7,6,-1,1,3,7,6],"shift_direction":1,"question_num":111,"has_decoy":false},{"rt":360.5,"stimulus":"[A] option 1, [L] option 2, [G] neither","key_press":76,"name":"choice","trial_type":"html-keyboard-response","trial_index":142,"time_elapsed":208647,"internal_node_id":"0.0-142.0","subject":"S1C0809","sona":"41416","block":6,"time":"2021-09-06T19:41:09.014Z","response":"2nd","certainty":"high","char":"L","transposition":2,"order":["shifted","swapped"],"probe_pitches":[6,10,6,8,10,4,5,-1],"shifted_pitches":[6,10,6,7,10,4,5,-1],"swapped_pitches":[6,10,6,10,8,4,5,-1],"shift_direction":-1,"question_num":121,"has_decoy":false},{"rt":402.1000000089407,"stimulus":"[A] option 1, [L] option 2, [G] neither","key_press":65,"name":"choice","trial_type":"html-keyboard-response","trial_index":153,"time_elapsed":223371,"internal_node_id":"0.0-153.0","subject":"S1C0809","sona":"41416","block":6,"time":"2021-09-06T19:41:09.014Z","response":"1st","certainty":"high","char":"A","transposition":-1,"order":["shifted","swapped"],"probe_pitches":[11,5,6,8,4,6,4,6],"shifted_pitches":[11,5,6,8,3,6,4,6],"swapped_pitches":[11,5,6,4,8,6,4,6],"shift_direction":-1,"question_num":131,"has_decoy":false},{"rt":793.3000000119209,"stimulus":"[A] option 1, [L] option 2, [G] neither","key_press":65,"name":"choice","trial_type":"html-keyboard-response","trial_index":164,"time_elapsed":238541,"internal_node_id":"0.0-164.0","subject":"S1C0809","sona":"41416","block":6,"time":"2021-09-06T19:41:09.014Z","response":"1st","certainty":"high","char":"A","transposition":3,"order":["swapped","shifted"],"probe_pitches":[1,4,1,6,8,13,8,11],"shifted_pitches":[1,4,1,6,9,13,8,11],"swapped_pitches":[1,4,1,8,6,13,8,11],"shift_direction":1,"question_num":141,"has_decoy":false},{"rt":467.3999999910593,"stimulus":"[A] option 1, [L] option 2, [G] neither","key_press":65,"name":"choice","trial_type":"html-keyboard-response","trial_index":175,"time_elapsed":253175,"internal_node_id":"0.0-175.0","subject":"S1C0809","sona":"41416","block":6,"time":"2021-09-06T19:41:09.014Z","response":"1st","certainty":"high","char":"A","transposition":1,"order":["shifted","swapped"],"probe_pitches":[11,8,6,4,13,6,11,6],"shifted_pitches":[11,8,6,4,12,6,11,6],"swapped_pitches":[11,8,6,13,4,6,11,6],"shift_direction":-1,"question_num":151,"has_decoy":false},{"rt":2706.199999988079,"stimulus":"[A] option 1, [L] option 2, [G] neither","key_press":71,"name":"choice","trial_type":"html-keyboard-response","trial_index":186,"time_elapsed":270208,"internal_node_id":"0.0-186.0","subject":"S1C0809","sona":"41416","block":6,"time":"2021-09-06T19:41:09.014Z","response":"neither","certainty":"high","char":"G","transposition":-3,"order":["shifted","swapped"],"probe_pitches":[8,11,6,11,13,3,8,6],"shifted_pitches":[8,11,6,10,13,3,8,6],"swapped_pitches":[8,11,6,13,11,3,8,6],"shift_direction":-1,"question_num":161,"has_decoy":false},{"rt":887.7999999970198,"stimulus":"[A] option 1, [L] option 2, [G] neither","key_press":71,"name":"choice","trial_type":"html-keyboard-response","trial_index":197,"time_elapsed":286439,"internal_node_id":"0.0-197.0","subject":"S1C0809","sona":"41416","block":6,"time":"2021-09-06T19:41:09.014Z","response":"neither","certainty":"high","char":"G","transposition":-3,"order":["swapped","shifted"],"probe_pitches":[1,-1,1,7,3,-1,9,5],"shifted_pitches":[1,-1,1,7,4,-1,9,5],"swapped_pitches":[1,-1,1,3,7,-1,9,5],"shift_direction":1,"question_num":171,"has_decoy":false},{"rt":1869.7000000029802,"stimulus":"[A] option 1, [L] option 2, [G] neither","key_press":71,"name":"choice","trial_type":"html-keyboard-response","trial_index":208,"time_elapsed":303037,"internal_node_id":"0.0-208.0","subject":"S1C0809","sona":"41416","block":6,"time":"2021-09-06T19:41:09.014Z","response":"neither","certainty":"high","char":"G","transposition":2,"order":["shifted","swapped"],"probe_pitches":[1,6,1,3,6,10,8,10],"shifted_pitches":[1,6,1,4,6,10,8,10],"swapped_pitches":[1,6,1,6,3,10,8,10],"shift_direction":1,"question_num":181,"has_decoy":false},{"rt":548.6999999880791,"stimulus":"[A] option 1, [L] option 2, [G] neither","key_press":76,"name":"choice","trial_type":"html-keyboard-response","trial_index":219,"time_elapsed":317940,"internal_node_id":"0.0-219.0","subject":"S1C0809","sona":"41416","block":6,"time":"2021-09-06T19:41:09.014Z","response":"2nd","certainty":"high","char":"L","transposition":-2,"order":["swapped","shifted"],"probe_pitches":[1,0,1,4,-1,9,11,6],"shifted_pitches":[1,0,1,4,-2,9,11,6],"swapped_pitches":[1,0,1,-1,4,9,11,6],"shift_direction":-1,"question_num":191,"has_decoy":false}]