[{"rt":5299.199999988079,"stimulus":"[A] option 1, [L] option 2, [G] neither","key_press":76,"name":"choice","trial_type":"html-keyboard-response","trial_index":15,"time_elapsed":262994,"internal_node_id":"0.0-15.0","response":"2nd","certainty":"high","char":"L","transposition":-1,"order":["shifted","swapped"],"probe_pitches":[10,12,15,8,5,3,10,3],"shifted_pitches":[10,12,15,8,6,3,10,3],"swapped_pitches":[10,12,15,5,8,3,10,3],"shift_direction":1,"question_num":1,"has_decoy":false,"subject":"S1C0809","sona":"41416","block":1,"time":"2021-09-06T19:04:56.395Z"},{"rt":3523.8999999910593,"stimulus":"[A] option 1, [L] option 2, [G] neither","key_press":76,"name":"choice","trial_type":"html-keyboard-response","trial_index":26,"time_elapsed":282963,"internal_node_id":"0.0-26.0","response":"2nd","certainty":"high","char":"L","transposition":-2,"order":["swapped","shifted"],"probe_pitches":[5,1,0,7,2,0,5,-3],"shifted_pitches":[5,1,0,6,2,0,5,-3],"swapped_pitches":[5,1,0,2,7,0,5,-3],"shift_direction":-1,"question_num":11,"has_decoy":false,"subject":"S1C0809","sona":"41416","block":1,"time":"2021-09-06T19:04:56.395Z"},{"rt":5655,"stimulus":"[A] option 1, [L] option 2, [G] neither","key_press":65,"name":"choice","trial_type":"html-keyboard-response","trial_index":37,"time_elapsed":308251,"internal_node_id":"0.0-37.0","response":"1st","certainty":"high","char":"A","transposition":-3,"order":["shifted","swapped"],"probe_pitches":[3,4,-3,3,1,2,3,4],"shifted_pitches":[3,4,-3,3,0,2,3,4],"swapped_pitches":[3,4,-3,1,3,2,3,4],"shift_direction":-1,"question_num":21,"has_decoy":false,"subject":"S1C0809","sona":"41416","block":1,"time":"2021-09-06T19:04:56.395Z"},{"rt":1370,"stimulus":"[A] option 1, [L] option 2, [G] neither","key_press":65,"name":"choice","trial_type":"html-keyboard-response","trial_index":48,"time_elapsed":327443,"internal_node_id":"0.0-48.0","response":"1st","certainty":"high","char":"A","transposition":0,"order":["shifted","swapped"],"probe_pitches":[3,8,11,15,6,11,6,13],"shifted_pitches":[3,8,11,14,6,11,6,13],"swapped_pitches":[3,8,11,6,15,11,6,13],"shift_direction":-1,"question_num":31,"has_decoy":false,"subject":"S1C0809","sona":"41416","block":1,"time":"2021-09-06T19:04:56.395Z"},{"rt":4441.4000000059605,"stimulus":"[A] option 1, [L] option 2, [G] neither","key_press":65,"name":"choice","trial_type":"html-keyboard-response","trial_index":59,"time_elapsed":346622,"internal_node_id":"0.0-59.0","response":"1st","certainty":"high","char":"A","transposition":1,"order":["shifted","swapped"],"probe_pitches":[5,7,10,15,12,10,15,10],"shifted_pitches":[5,7,10,15,13,10,15,10],"swapped_pitches":[5,7,10,12,15,10,15,10],"shift_direction":1,"question_num":41,"has_decoy":false,"subject":"S1C0809","sona":"41416","block":1,"time":"2021-09-06T19:04:56.395Z"},{"rt":1733,"stimulus":"[A] option 1, [L] option 2, [G] neither","key_press":71,"name":"choice","trial_type":"html-keyboard-response","trial_index":70,"time_elapsed":363650,"internal_node_id":"0.0-70.0","response":"neither","certainty":"high","char":"G","transposition":3,"order":["shifted","swapped"],"probe_pitches":[8,3,10,15,13,3,5,13],"shifted_pitches":[8,3,10,14,13,3,5,13],"swapped_pitches":[8,3,10,13,15,3,5,13],"shift_direction":-1,"question_num":51,"has_decoy":false,"subject":"S1C0809","sona":"41416","block":1,"time":"2021-09-06T19:04:56.395Z"},{"rt":2094,"stimulus":"[A] option 1, [L] option 2, [G] neither","key_press":65,"name":"choice","trial_type":"html-keyboard-response","trial_index":81,"time_elapsed":382514,"internal_node_id":"0.0-81.0","response":"1st","certainty":"high","char":"A","transposition":-3,"order":["swapped","shifted"],"probe_pitches":[12,10,3,7,12,15,5,15],"shifted_pitches":[12,10,3,6,12,15,5,15],"swapped_pitches":[12,10,3,12,7,15,5,15],"shift_direction":-1,"question_num":61,"has_decoy":false,"subject":"S1C0809","sona":"41416","block":1,"time":"2021-09-06T19:04:56.395Z"},{"rt":1053.8999999910593,"stimulus":"[A] option 1, [L] option 2, [G] neither","key_press":76,"name":"choice","trial_type":"html-keyboard-response","trial_index":92,"time_elapsed":400045,"internal_node_id":"0.0-92.0","response":"2nd","certainty":"high","char":"L","transposition":3,"order":["swapped","shifted"],"probe_pitches":[2,0,5,4,0,7,4,-2],"shifted_pitches":[2,0,5,3,0,7,4,-2],"swapped_pitches":[2,0,5,0,4,7,4,-2],"shift_direction":-1,"question_num":71,"has_decoy":false,"subject":"S1C0809","sona":"41416","block":1,"time":"2021-09-06T19:04:56.395Z"},{"rt":1060.199999988079,"stimulus":"[A] option 1, [L] option 2, [G] neither","key_press":65,"name":"choice","trial_type":"html-keyboard-response","trial_index":103,"time_elapsed":415582,"internal_node_id":"0.0-103.0","response":"1st","certainty":"high","char":"A","transposition":-1,"order":["shifted","swapped"],"probe_pitches":[1,-1,1,0,6,3,2,1],"shifted_pitches":[1,-1,1,0,5,3,2,1],"swapped_pitches":[1,-1,1,6,0,3,2,1],"shift_direction":-1,"question_num":81,"has_decoy":false,"subject":"S1C0809","sona":"41416","block":1,"time":"2021-09-06T19:04:56.395Z"},{"rt":12667.40000000596,"stimulus":"[A] option 1, [L] option 2, [G] neither","key_press":71,"name":"choice","trial_type":"html-keyboard-response","trial_index":114,"time_elapsed":442662,"internal_node_id":"0.0-114.0","response":"neither","certainty":"high","char":"G","transposition":-2,"order":["swapped","shifted"],"probe_pitches":[-2,0,2,3,7,0,9,-3],"shifted_pitches":[-2,0,2,4,7,0,9,-3],"swapped_pitches":[-2,0,2,7,3,0,9,-3],"shift_direction":1,"question_num":91,"has_decoy":false,"subject":"S1C0809","sona":"41416","block":1,"time":"2021-09-06T19:04:56.395Z"},{"rt":3197.9000000059605,"stimulus":"[A] option 1, [L] option 2, [G] neither","key_press":65,"name":"choice","trial_type":"html-keyboard-response","trial_index":125,"time_elapsed":460520,"internal_node_id":"0.0-125.0","response":"1st","certainty":"high","char":"A","transposition":-2,"order":["swapped","shifted"],"probe_pitches":[6,8,13,15,10,8,3,10],"shifted_pitches":[6,8,13,15,11,8,3,10],"swapped_pitches":[6,8,13,10,15,8,3,10],"shift_direction":1,"question_num":101,"has_decoy":false,"subject":"S1C0809","sona":"41416","block":1,"time":"2021-09-06T19:04:56.395Z"},{"rt":891.5999999940395,"stimulus":"[A] option 1, [L] option 2, [G] neither","key_press":76,"name":"choice","trial_type":"html-keyboard-response","trial_index":136,"time_elapsed":476049,"internal_node_id":"0.0-136.0","response":"2nd","certainty":"high","char":"L","transposition":2,"order":["swapped","shifted"],"probe_pitches":[10,13,10,3,5,8,13,15],"shifted_pitches":[10,13,10,2,5,8,13,15],"swapped_pitches":[10,13,10,5,3,8,13,15],"shift_direction":-1,"question_num":111,"has_decoy":false,"subject":"S1C0809","sona":"41416","block":1,"time":"2021-09-06T19:04:56.395Z"},{"rt":501.19999998807907,"stimulus":"[A] option 1, [L] option 2, [G] neither","key_press":76,"name":"choice","trial_type":"html-keyboard-response","trial_index":147,"time_elapsed":491237,"internal_node_id":"0.0-147.0","response":"2nd","certainty":"high","char":"L","transposition":-3,"order":["swapped","shifted"],"probe_pitches":[5,10,15,12,10,3,8,12],"shifted_pitches":[5,10,15,12,11,3,8,12],"swapped_pitches":[5,10,15,10,12,3,8,12],"shift_direction":1,"question_num":121,"has_decoy":false,"subject":"S1C0809","sona":"41416","block":1,"time":"2021-09-06T19:04:56.395Z"},{"rt":704.3999999910593,"stimulus":"[A] option 1, [L] option 2, [G] neither","key_press":76,"name":"choice","trial_type":"html-keyboard-response","trial_index":158,"time_elapsed":506918,"internal_node_id":"0.0-158.0","response":"2nd","certainty":"high","char":"L","transposition":0,"order":["shifted","swapped"],"probe_pitches":[0,-1,4,3,9,5,1,-1],"shifted_pitches":[0,-1,4,2,9,5,1,-1],"swapped_pitches":[0,-1,4,9,3,5,1,-1],"shift_direction":-1,"question_num":131,"has_decoy":false,"subject":"S1C0809","sona":"41416","block":1,"time":"2021-09-06T19:04:56.395Z"},{"rt":925.5999999940395,"stimulus":"[A] option 1, [L] option 2, [G] neither","key_press":65,"name":"choice","trial_type":"html-keyboard-response","trial_index":169,"time_elapsed":523177,"internal_node_id":"0.0-169.0","response":"1st","certainty":"high","char":"A","transposition":-1,"order":["swapped","shifted"],"probe_pitches":[6,10,3,8,13,15,13,3],"shifted_pitches":[6,10,3,9,13,15,13,3],"swapped_pitches":[6,10,3,13,8,15,13,3],"shift_direction":1,"question_num":141,"has_decoy":false,"subject":"S1C0809","sona":"41416","block":1,"time":"2021-09-06T19:04:56.395Z"},{"rt":6556.4000000059605,"stimulus":"[A] option 1, [L] option 2, [G] neither","key_press":65,"name":"choice","trial_type":"html-keyboard-response","trial_index":180,"time_elapsed":544018,"internal_node_id":"0.0-180.0","response":"1st","certainty":"high","char":"A","transposition":-3,"order":["shifted","swapped"],"probe_pitches":[8,9,8,5,0,3,5,7],"shifted_pitches":[8,9,8,5,1,3,5,7],"swapped_pitches":[8,9,8,0,5,3,5,7],"shift_direction":1,"question_num":151,"has_decoy":false,"subject":"S1C0809","sona":"41416","block":1,"time":"2021-09-06T19:04:56.395Z"},{"rt":325.59999999403954,"stimulus":"[A] option 1, [L] option 2, [G] neither","key_press":76,"name":"choice","trial_type":"html-keyboard-response","trial_index":191,"time_elapsed":558854,"internal_node_id":"0.0-191.0","response":"2nd","certainty":"high","char":"L","transposition":-1,"order":["swapped","shifted"],"probe_pitches":[2,-2,0,5,6,-3,5,-3],"shifted_pitches":[2,-2,0,5,7,-3,5,-3],"swapped_pitches":[2,-2,0,6,5,-3,5,-3],"shift_direction":1,"question_num":161,"has_decoy":false,"subject":"S1C0809","sona":"41416","block":1,"time":"2021-09-06T19:04:56.395Z"},{"rt":1058.0999999940395,"stimulus":"[A] option 1, [L] option 2, [G] neither","key_press":71,"name":"choice","trial_type":"html-keyboard-response","trial_index":202,"time_elapsed":574691,"internal_node_id":"0.0-202.0","response":"neither","certainty":"high","char":"G","transposition":2,"order":["shifted","swapped"],"probe_pitches":[6,7,5,3,-2,5,0,-3],"shifted_pitches":[6,7,5,3,-1,5,0,-3],"swapped_pitches":[6,7,5,-2,3,5,0,-3],"shift_direction":1,"question_num":171,"has_decoy":false,"subject":"S1C0809","sona":"41416","block":1,"time":"2021-09-06T19:04:56.395Z"},{"rt":417.20000000298023,"stimulus":"[A] option 1, [L] option 2, [G] neither","key_press":76,"name":"choice","trial_type":"html-keyboard-response","trial_index":213,"time_elapsed":589831,"internal_node_id":"0.0-213.0","response":"2nd","certainty":"high","char":"L","transposition":1,"order":["swapped","shifted"],"probe_pitches":[3,-2,-1,7,2,-2,5,4],"shifted_pitches":[3,-2,-1,8,2,-2,5,4],"swapped_pitches":[3,-2,-1,2,7,-2,5,4],"shift_direction":1,"question_num":181,"has_decoy":false,"subject":"S1C0809","sona":"41416","block":1,"time":"2021-09-06T19:04:56.395Z"},{"rt":1864.0999999940395,"stimulus":"[A] option 1, [L] option 2, [G] neither","key_press":65,"name":"choice","trial_type":"html-keyboard-response","trial_index":224,"time_elapsed":605870,"internal_node_id":"0.0-224.0","response":"1st","certainty":"high","char":"A","transposition":-2,"order":["shifted","swapped"],"probe_pitches":[8,13,15,11,13,6,3,8],"shifted_pitches":[8,13,15,11,12,6,3,8],"swapped_pitches":[8,13,15,13,11,6,3,8],"shift_direction":-1,"question_num":191,"has_decoy":false,"subject":"S1C0809","sona":"41416","block":1,"time":"2021-09-06T19:04:56.395Z"}]