[{"rt":1158.7999999970198,"stimulus":"[A] option 1, [L] option 2, [G] neither","key_press":65,"name":"choice","trial_type":"html-keyboard-response","trial_index":10,"time_elapsed":68330,"internal_node_id":"0.0-10.0","subject":"S1C0809","sona":"41416","block":5,"time":"2021-09-06T19:35:47.383Z","response":"1st","certainty":"high","char":"A","transposition":-2,"order":["shifted","swapped"],"probe_pitches":[4,2,7,2,4,0,9,0],"shifted_pitches":[4,2,7,1,4,0,9,0],"swapped_pitches":[4,2,7,4,2,0,9,0],"shift_direction":-1,"question_num":1,"has_decoy":false},{"rt":536.8999999910593,"stimulus":"[A] option 1, [L] option 2, [G] neither","key_press":65,"name":"choice","trial_type":"html-keyboard-response","trial_index":21,"time_elapsed":83150,"internal_node_id":"0.0-21.0","subject":"S1C0809","sona":"41416","block":5,"time":"2021-09-06T19:35:47.383Z","response":"1st","certainty":"high","char":"A","transposition":2,"order":["shifted","swapped"],"probe_pitches":[6,4,-1,4,-3,1,4,9],"shifted_pitches":[6,4,-1,4,-4,1,4,9],"swapped_pitches":[6,4,-1,-3,4,1,4,9],"shift_direction":-1,"question_num":11,"has_decoy":false},{"rt":807,"stimulus":"[A] option 1, [L] option 2, [G] neither","key_press":76,"name":"choice","trial_type":"html-keyboard-response","trial_index":32,"time_elapsed":98375,"internal_node_id":"0.0-32.0","subject":"S1C0809","sona":"41416","block":5,"time":"2021-09-06T19:35:47.383Z","response":"2nd","certainty":"high","char":"L","transposition":1,"order":["swapped","shifted"],"probe_pitches":[4,7,2,9,0,-3,7,-3],"shifted_pitches":[4,7,2,8,0,-3,7,-3],"swapped_pitches":[4,7,2,0,9,-3,7,-3],"shift_direction":-1,"question_num":21,"has_decoy":false},{"rt":428.6000000089407,"stimulus":"[A] option 1, [L] option 2, [G] neither","key_press":76,"name":"choice","trial_type":"html-keyboard-response","trial_index":43,"time_elapsed":113095,"internal_node_id":"0.0-43.0","subject":"S1C0809","sona":"41416","block":5,"time":"2021-09-06T19:35:47.383Z","response":"2nd","certainty":"high","char":"L","transposition":-1,"order":["shifted","swapped"],"probe_pitches":[-1,4,3,1,7,6,-2,5],"shifted_pitches":[-1,4,3,0,7,6,-2,5],"swapped_pitches":[-1,4,3,7,1,6,-2,5],"shift_direction":-1,"question_num":31,"has_decoy":false},{"rt":1115.800000011921,"stimulus":"[A] option 1, [L] option 2, [G] neither","key_press":76,"name":"choice","trial_type":"html-keyboard-response","trial_index":54,"time_elapsed":128555,"internal_node_id":"0.0-54.0","subject":"S1C0809","sona":"41416","block":5,"time":"2021-09-06T19:35:47.383Z","response":"2nd","certainty":"high","char":"L","transposition":-1,"order":["swapped","shifted"],"probe_pitches":[7,9,4,7,-1,4,-3,2],"shifted_pitches":[7,9,4,8,-1,4,-3,2],"swapped_pitches":[7,9,4,-1,7,4,-3,2],"shift_direction":1,"question_num":41,"has_decoy":false},{"rt":331.79999999701977,"stimulus":"[A] option 1, [L] option 2, [G] neither","key_press":76,"name":"choice","trial_type":"html-keyboard-response","trial_index":65,"time_elapsed":143132,"internal_node_id":"0.0-65.0","subject":"S1C0809","sona":"41416","block":5,"time":"2021-09-06T19:35:47.383Z","response":"2nd","certainty":"high","char":"L","transposition":-1,"order":["shifted","swapped"],"probe_pitches":[9,4,8,0,4,-2,0,10],"shifted_pitches":[9,4,8,0,3,-2,0,10],"swapped_pitches":[9,4,8,4,0,-2,0,10],"shift_direction":-1,"question_num":51,"has_decoy":false},{"rt":343.90000000596046,"stimulus":"[A] option 1, [L] option 2, [G] neither","key_press":76,"name":"choice","trial_type":"html-keyboard-response","trial_index":76,"time_elapsed":158760,"internal_node_id":"0.0-76.0","subject":"S1C0809","sona":"41416","block":5,"time":"2021-09-06T19:35:47.383Z","response":"2nd","certainty":"high","char":"L","transposition":-3,"order":["swapped","shifted"],"probe_pitches":[10,8,2,-2,0,3,6,2],"shifted_pitches":[10,8,2,-3,0,3,6,2],"swapped_pitches":[10,8,2,0,-2,3,6,2],"shift_direction":-1,"question_num":61,"has_decoy":false},{"rt":3718.2000000029802,"stimulus":"[A] option 1, [L] option 2, [G] neither","key_press":71,"name":"choice","trial_type":"html-keyboard-response","trial_index":87,"time_elapsed":177068,"internal_node_id":"0.0-87.0","subject":"S1C0809","sona":"41416","block":5,"time":"2021-09-06T19:35:47.383Z","response":"neither","certainty":"high","char":"G","transposition":0,"order":["swapped","shifted"],"probe_pitches":[9,7,0,2,9,5,9,2],"shifted_pitches":[9,7,0,3,9,5,9,2],"swapped_pitches":[9,7,0,9,2,5,9,2],"shift_direction":1,"question_num":71,"has_decoy":false},{"rt":1413.9000000059605,"stimulus":"[A] option 1, [L] option 2, [G] neither","key_press":76,"name":"choice","trial_type":"html-keyboard-response","trial_index":98,"time_elapsed":193173,"internal_node_id":"0.0-98.0","subject":"S1C0809","sona":"41416","block":5,"time":"2021-09-06T19:35:47.383Z","response":"2nd","certainty":"high","char":"L","transposition":-3,"order":["shifted","swapped"],"probe_pitches":[9,4,-1,4,7,9,-1,2],"shifted_pitches":[9,4,-1,5,7,9,-1,2],"swapped_pitches":[9,4,-1,7,4,9,-1,2],"shift_direction":1,"question_num":81,"has_decoy":false},{"rt":483.70000000298023,"stimulus":"[A] option 1, [L] option 2, [G] neither","key_press":71,"name":"choice","trial_type":"html-keyboard-response","trial_index":109,"time_elapsed":207923,"internal_node_id":"0.0-109.0","subject":"S1C0809","sona":"41416","block":5,"time":"2021-09-06T19:35:47.383Z","response":"neither","certainty":"high","char":"G","transposition":-2,"order":["swapped","shifted"],"probe_pitches":[-2,0,-2,5,6,3,10,2],"shifted_pitches":[-2,0,-2,5,7,3,10,2],"swapped_pitches":[-2,0,-2,6,5,3,10,2],"shift_direction":1,"question_num":91,"has_decoy":false},{"rt":830.9000000059605,"stimulus":"[A] option 1, [L] option 2, [G] neither","key_press":65,"name":"choice","trial_type":"html-keyboard-response","trial_index":120,"time_elapsed":223017,"internal_node_id":"0.0-120.0","subject":"S1C0809","sona":"41416","block":5,"time":"2021-09-06T19:35:47.383Z","response":"1st","certainty":"high","char":"A","transposition":-3,"order":["swapped","shifted"],"probe_pitches":[9,5,7,9,2,0,9,-3],"shifted_pitches":[9,5,7,9,3,0,9,-3],"swapped_pitches":[9,5,7,2,9,0,9,-3],"shift_direction":1,"question_num":101,"has_decoy":false},{"rt":613.3999999910593,"stimulus":"[A] option 1, [L] option 2, [G] neither","key_press":76,"name":"choice","trial_type":"html-keyboard-response","trial_index":131,"time_elapsed":237919,"internal_node_id":"0.0-131.0","subject":"S1C0809","sona":"41416","block":5,"time":"2021-09-06T19:35:47.383Z","response":"2nd","certainty":"high","char":"L","transposition":-3,"order":["swapped","shifted"],"probe_pitches":[5,7,3,-1,7,6,10,7],"shifted_pitches":[5,7,3,-1,8,6,10,7],"swapped_pitches":[5,7,3,7,-1,6,10,7],"shift_direction":1,"question_num":111,"has_decoy":false},{"rt":1732.8999999910593,"stimulus":"[A] option 1, [L] option 2, [G] neither","key_press":65,"name":"choice","trial_type":"html-keyboard-response","trial_index":142,"time_elapsed":254084,"internal_node_id":"0.0-142.0","subject":"S1C0809","sona":"41416","block":5,"time":"2021-09-06T19:35:47.383Z","response":"1st","certainty":"high","char":"A","transposition":-2,"order":["shifted","swapped"],"probe_pitches":[9,8,3,4,1,6,0,8],"shifted_pitches":[9,8,3,4,2,6,0,8],"swapped_pitches":[9,8,3,1,4,6,0,8],"shift_direction":1,"question_num":121,"has_decoy":false},{"rt":422.09999999403954,"stimulus":"[A] option 1, [L] option 2, [G] neither","key_press":76,"name":"choice","trial_type":"html-keyboard-response","trial_index":153,"time_elapsed":268832,"internal_node_id":"0.0-153.0","subject":"S1C0809","sona":"41416","block":5,"time":"2021-09-06T19:35:47.383Z","response":"2nd","certainty":"high","char":"L","transposition":-1,"order":["swapped","shifted"],"probe_pitches":[9,4,6,2,4,-1,9,4],"shifted_pitches":[9,4,6,2,5,-1,9,4],"swapped_pitches":[9,4,6,4,2,-1,9,4],"shift_direction":1,"question_num":131,"has_decoy":false},{"rt":2277.7999999970198,"stimulus":"[A] option 1, [L] option 2, [G] neither","key_press":65,"name":"choice","trial_type":"html-keyboard-response","trial_index":164,"time_elapsed":285424,"internal_node_id":"0.0-164.0","subject":"S1C0809","sona":"41416","block":5,"time":"2021-09-06T19:35:47.383Z","response":"1st","certainty":"high","char":"A","transposition":1,"order":["swapped","shifted"],"probe_pitches":[8,9,2,3,8,9,2,6],"shifted_pitches":[8,9,2,4,8,9,2,6],"swapped_pitches":[8,9,2,8,3,9,2,6],"shift_direction":1,"question_num":141,"has_decoy":false},{"rt":948.9000000059605,"stimulus":"[A] option 1, [L] option 2, [G] neither","key_press":65,"name":"choice","trial_type":"html-keyboard-response","trial_index":175,"time_elapsed":300959,"internal_node_id":"0.0-175.0","subject":"S1C0809","sona":"41416","block":5,"time":"2021-09-06T19:35:47.383Z","response":"1st","certainty":"high","char":"A","transposition":-2,"order":["shifted","swapped"],"probe_pitches":[4,-1,6,2,-3,4,6,-1],"shifted_pitches":[4,-1,6,2,-4,4,6,-1],"swapped_pitches":[4,-1,6,-3,2,4,6,-1],"shift_direction":-1,"question_num":151,"has_decoy":false},{"rt":707,"stimulus":"[A] option 1, [L] option 2, [G] neither","key_press":65,"name":"choice","trial_type":"html-keyboard-response","trial_index":186,"time_elapsed":315998,"internal_node_id":"0.0-186.0","subject":"S1C0809","sona":"41416","block":5,"time":"2021-09-06T19:35:47.383Z","response":"1st","certainty":"high","char":"A","transposition":3,"order":["shifted","swapped"],"probe_pitches":[5,6,10,2,7,6,-2,9],"shifted_pitches":[5,6,10,1,7,6,-2,9],"swapped_pitches":[5,6,10,7,2,6,-2,9],"shift_direction":-1,"question_num":161,"has_decoy":false},{"rt":653.8000000119209,"stimulus":"[A] option 1, [L] option 2, [G] neither","key_press":65,"name":"choice","trial_type":"html-keyboard-response","trial_index":197,"time_elapsed":330915,"internal_node_id":"0.0-197.0","subject":"S1C0809","sona":"41416","block":5,"time":"2021-09-06T19:35:47.383Z","response":"1st","certainty":"high","char":"A","transposition":3,"order":["shifted","swapped"],"probe_pitches":[1,-1,4,1,-3,6,-3,1],"shifted_pitches":[1,-1,4,1,-4,6,-3,1],"swapped_pitches":[1,-1,4,-3,1,6,-3,1],"shift_direction":-1,"question_num":171,"has_decoy":false},{"rt":774.5999999940395,"stimulus":"[A] option 1, [L] option 2, [G] neither","key_press":76,"name":"choice","trial_type":"html-keyboard-response","trial_index":208,"time_elapsed":346162,"internal_node_id":"0.0-208.0","subject":"S1C0809","sona":"41416","block":5,"time":"2021-09-06T19:35:47.383Z","response":"2nd","certainty":"high","char":"L","transposition":2,"order":["shifted","swapped"],"probe_pitches":[4,0,1,8,5,7,2,5],"shifted_pitches":[4,0,1,8,6,7,2,5],"swapped_pitches":[4,0,1,5,8,7,2,5],"shift_direction":1,"question_num":181,"has_decoy":false},{"rt":1021.3999999910593,"stimulus":"[A] option 1, [L] option 2, [G] neither","key_press":76,"name":"choice","trial_type":"html-keyboard-response","trial_index":219,"time_elapsed":362776,"internal_node_id":"0.0-219.0","subject":"S1C0809","sona":"41416","block":5,"time":"2021-09-06T19:35:47.383Z","response":"2nd","certainty":"high","char":"L","transposition":0,"order":["swapped","shifted"],"probe_pitches":[-2,-1,3,6,8,9,1,6],"shifted_pitches":[-2,-1,3,5,8,9,1,6],"swapped_pitches":[-2,-1,3,8,6,9,1,6],"shift_direction":-1,"question_num":191,"has_decoy":false}]