[{"rt":1694.5,"stimulus":"[A] option 1, [L] option 2, [G] neither","key_press":76,"name":"choice","trial_type":"html-keyboard-response","trial_index":10,"time_elapsed":18765,"internal_node_id":"0.0-10.0","subject":"S1C0809","sona":"41416","block":4,"time":"2021-09-06T19:22:22.362Z","response":"2nd","certainty":"high","char":"L","transposition":-2,"order":["swapped","shifted"],"probe_pitches":[5,4,0,-1,7,9,5,8],"shifted_pitches":[5,4,0,-1,6,9,5,8],"swapped_pitches":[5,4,0,7,-1,9,5,8],"shift_direction":-1,"question_num":1,"has_decoy":false},{"rt":1080.0999999940395,"stimulus":"[A] option 1, [L] option 2, [G] neither","key_press":65,"name":"choice","trial_type":"html-keyboard-response","trial_index":21,"time_elapsed":34817,"internal_node_id":"0.0-21.0","subject":"S1C0809","sona":"41416","block":4,"time":"2021-09-06T19:22:22.362Z","response":"1st","certainty":"high","char":"A","transposition":-2,"order":["shifted","swapped"],"probe_pitches":[1,-1,6,9,4,11,9,4],"shifted_pitches":[1,-1,6,9,5,11,9,4],"swapped_pitches":[1,-1,6,4,9,11,9,4],"shift_direction":1,"question_num":11,"has_decoy":false},{"rt":569,"stimulus":"[A] option 1, [L] option 2, [G] neither","key_press":76,"name":"choice","trial_type":"html-keyboard-response","trial_index":32,"time_elapsed":49677,"internal_node_id":"0.0-32.0","subject":"S1C0809","sona":"41416","block":4,"time":"2021-09-06T19:22:22.362Z","response":"2nd","certainty":"high","char":"L","transposition":-1,"order":["shifted","swapped"],"probe_pitches":[9,3,8,4,1,-2,5,6],"shifted_pitches":[9,3,8,4,2,-2,5,6],"swapped_pitches":[9,3,8,1,4,-2,5,6],"shift_direction":1,"question_num":21,"has_decoy":false},{"rt":664.7999999970198,"stimulus":"[A] option 1, [L] option 2, [G] neither","key_press":65,"name":"choice","trial_type":"html-keyboard-response","trial_index":43,"time_elapsed":64669,"internal_node_id":"0.0-43.0","subject":"S1C0809","sona":"41416","block":4,"time":"2021-09-06T19:22:22.362Z","response":"1st","certainty":"high","char":"A","transposition":-3,"order":["shifted","swapped"],"probe_pitches":[4,5,1,8,6,-2,0,9],"shifted_pitches":[4,5,1,7,6,-2,0,9],"swapped_pitches":[4,5,1,6,8,-2,0,9],"shift_direction":-1,"question_num":31,"has_decoy":false},{"rt":872.0999999940395,"stimulus":"[A] option 1, [L] option 2, [G] neither","key_press":71,"name":"choice","trial_type":"html-keyboard-response","trial_index":54,"time_elapsed":81943,"internal_node_id":"0.0-54.0","subject":"S1C0809","sona":"41416","block":4,"time":"2021-09-06T19:22:22.362Z","response":"neither","certainty":"high","char":"G","transposition":-3,"order":["shifted","swapped"],"probe_pitches":[6,1,-1,6,1,4,8,11],"shifted_pitches":[6,1,-1,6,2,4,8,11],"swapped_pitches":[6,1,-1,1,6,4,8,11],"shift_direction":1,"question_num":41,"has_decoy":false},{"rt":631.6999999880791,"stimulus":"[A] option 1, [L] option 2, [G] neither","key_press":65,"name":"choice","trial_type":"html-keyboard-response","trial_index":65,"time_elapsed":97686,"internal_node_id":"0.0-65.0","subject":"S1C0809","sona":"41416","block":4,"time":"2021-09-06T19:22:22.362Z","response":"1st","certainty":"high","char":"A","transposition":3,"order":["swapped","shifted"],"probe_pitches":[4,7,2,4,11,9,4,9],"shifted_pitches":[4,7,2,5,11,9,4,9],"swapped_pitches":[4,7,2,11,4,9,4,9],"shift_direction":1,"question_num":51,"has_decoy":false},{"rt":916.5,"stimulus":"[A] option 1, [L] option 2, [G] neither","key_press":71,"name":"choice","trial_type":"html-keyboard-response","trial_index":76,"time_elapsed":112905,"internal_node_id":"0.0-76.0","subject":"S1C0809","sona":"41416","block":4,"time":"2021-09-06T19:22:22.362Z","response":"neither","certainty":"high","char":"G","transposition":0,"order":["swapped","shifted"],"probe_pitches":[1,-1,-3,4,-1,7,2,-2],"shifted_pitches":[1,-1,-3,3,-1,7,2,-2],"swapped_pitches":[1,-1,-3,-1,4,7,2,-2],"shift_direction":-1,"question_num":61,"has_decoy":false},{"rt":3258.2999999970198,"stimulus":"[A] option 1, [L] option 2, [G] neither","key_press":71,"name":"choice","trial_type":"html-keyboard-response","trial_index":87,"time_elapsed":130948,"internal_node_id":"0.0-87.0","subject":"S1C0809","sona":"41416","block":4,"time":"2021-09-06T19:22:22.362Z","response":"neither","certainty":"high","char":"G","transposition":3,"order":["swapped","shifted"],"probe_pitches":[4,5,6,2,-3,-1,3,9],"shifted_pitches":[4,5,6,1,-3,-1,3,9],"swapped_pitches":[4,5,6,-3,2,-1,3,9],"shift_direction":-1,"question_num":71,"has_decoy":false},{"rt":387.59999999403954,"stimulus":"[A] option 1, [L] option 2, [G] neither","key_press":76,"name":"choice","trial_type":"html-keyboard-response","trial_index":98,"time_elapsed":145566,"internal_node_id":"0.0-98.0","subject":"S1C0809","sona":"41416","block":4,"time":"2021-09-06T19:22:22.362Z","response":"2nd","certainty":"high","char":"L","transposition":2,"order":["swapped","shifted"],"probe_pitches":[2,4,7,-1,2,4,9,7],"shifted_pitches":[2,4,7,-2,2,4,9,7],"swapped_pitches":[2,4,7,2,-1,4,9,7],"shift_direction":-1,"question_num":81,"has_decoy":false},{"rt":819.0999999940395,"stimulus":"[A] option 1, [L] option 2, [G] neither","key_press":65,"name":"choice","trial_type":"html-keyboard-response","trial_index":109,"time_elapsed":160680,"internal_node_id":"0.0-109.0","subject":"S1C0809","sona":"41416","block":4,"time":"2021-09-06T19:22:22.362Z","response":"1st","certainty":"high","char":"A","transposition":-1,"order":["shifted","swapped"],"probe_pitches":[4,6,1,9,11,6,-1,11],"shifted_pitches":[4,6,1,9,10,6,-1,11],"swapped_pitches":[4,6,1,11,9,6,-1,11],"shift_direction":-1,"question_num":91,"has_decoy":false},{"rt":2631.4000000059605,"stimulus":"[A] option 1, [L] option 2, [G] neither","key_press":71,"name":"choice","trial_type":"html-keyboard-response","trial_index":120,"time_elapsed":177623,"internal_node_id":"0.0-120.0","subject":"S1C0809","sona":"41416","block":4,"time":"2021-09-06T19:22:22.362Z","response":"neither","certainty":"high","char":"G","transposition":-2,"order":["swapped","shifted"],"probe_pitches":[-1,4,6,2,9,-1,6,9],"shifted_pitches":[-1,4,6,1,9,-1,6,9],"swapped_pitches":[-1,4,6,9,2,-1,6,9],"shift_direction":-1,"question_num":101,"has_decoy":false},{"rt":365.79999999701977,"stimulus":"[A] option 1, [L] option 2, [G] neither","key_press":76,"name":"choice","trial_type":"html-keyboard-response","trial_index":131,"time_elapsed":193277,"internal_node_id":"0.0-131.0","subject":"S1C0809","sona":"41416","block":4,"time":"2021-09-06T19:22:22.362Z","response":"2nd","certainty":"high","char":"L","transposition":-2,"order":["swapped","shifted"],"probe_pitches":[8,3,0,2,4,0,9,8],"shifted_pitches":[8,3,0,2,5,0,9,8],"swapped_pitches":[8,3,0,4,2,0,9,8],"shift_direction":1,"question_num":111,"has_decoy":false},{"rt":400,"stimulus":"[A] option 1, [L] option 2, [G] neither","key_press":76,"name":"choice","trial_type":"html-keyboard-response","trial_index":142,"time_elapsed":208091,"internal_node_id":"0.0-142.0","subject":"S1C0809","sona":"41416","block":4,"time":"2021-09-06T19:22:22.362Z","response":"2nd","certainty":"high","char":"L","transposition":1,"order":["shifted","swapped"],"probe_pitches":[1,6,1,4,11,8,6,8],"shifted_pitches":[1,6,1,3,11,8,6,8],"swapped_pitches":[1,6,1,11,4,8,6,8],"shift_direction":-1,"question_num":121,"has_decoy":false},{"rt":1069.4000000059605,"stimulus":"[A] option 1, [L] option 2, [G] neither","key_press":76,"name":"choice","trial_type":"html-keyboard-response","trial_index":153,"time_elapsed":223422,"internal_node_id":"0.0-153.0","subject":"S1C0809","sona":"41416","block":4,"time":"2021-09-06T19:22:22.362Z","response":"2nd","certainty":"high","char":"L","transposition":2,"order":["shifted","swapped"],"probe_pitches":[-1,2,0,6,3,-2,8,-2],"shifted_pitches":[-1,2,0,6,4,-2,8,-2],"swapped_pitches":[-1,2,0,3,6,-2,8,-2],"shift_direction":1,"question_num":131,"has_decoy":false},{"rt":1348.2000000029802,"stimulus":"[A] option 1, [L] option 2, [G] neither","key_press":65,"name":"choice","trial_type":"html-keyboard-response","trial_index":164,"time_elapsed":239983,"internal_node_id":"0.0-164.0","subject":"S1C0809","sona":"41416","block":4,"time":"2021-09-06T19:22:22.362Z","response":"1st","certainty":"high","char":"A","transposition":1,"order":["shifted","swapped"],"probe_pitches":[5,4,9,8,-1,6,7,-1],"shifted_pitches":[5,4,9,8,0,6,7,-1],"swapped_pitches":[5,4,9,-1,8,6,7,-1],"shift_direction":1,"question_num":141,"has_decoy":false},{"rt":1025.2999999970198,"stimulus":"[A] option 1, [L] option 2, [G] neither","key_press":65,"name":"choice","trial_type":"html-keyboard-response","trial_index":175,"time_elapsed":255271,"internal_node_id":"0.0-175.0","subject":"S1C0809","sona":"41416","block":4,"time":"2021-09-06T19:22:22.362Z","response":"1st","certainty":"high","char":"A","transposition":0,"order":["shifted","swapped"],"probe_pitches":[1,-1,1,8,3,6,1,6],"shifted_pitches":[1,-1,1,8,4,6,1,6],"swapped_pitches":[1,-1,1,3,8,6,1,6],"shift_direction":1,"question_num":151,"has_decoy":false},{"rt":2325.5,"stimulus":"[A] option 1, [L] option 2, [G] neither","key_press":76,"name":"choice","trial_type":"html-keyboard-response","trial_index":186,"time_elapsed":272065,"internal_node_id":"0.0-186.0","subject":"S1C0809","sona":"41416","block":4,"time":"2021-09-06T19:22:22.362Z","response":"2nd","certainty":"high","char":"L","transposition":-1,"order":["swapped","shifted"],"probe_pitches":[-3,0,6,0,9,7,-3,3],"shifted_pitches":[-3,0,6,-1,9,7,-3,3],"swapped_pitches":[-3,0,6,9,0,7,-3,3],"shift_direction":-1,"question_num":161,"has_decoy":false},{"rt":324.5,"stimulus":"[A] option 1, [L] option 2, [G] neither","key_press":76,"name":"choice","trial_type":"html-keyboard-response","trial_index":197,"time_elapsed":286656,"internal_node_id":"0.0-197.0","subject":"S1C0809","sona":"41416","block":4,"time":"2021-09-06T19:22:22.362Z","response":"2nd","certainty":"high","char":"L","transposition":-3,"order":["swapped","shifted"],"probe_pitches":[1,6,3,-1,6,8,3,1],"shifted_pitches":[1,6,3,-1,7,8,3,1],"swapped_pitches":[1,6,3,6,-1,8,3,1],"shift_direction":1,"question_num":171,"has_decoy":false},{"rt":1697.8999999910593,"stimulus":"[A] option 1, [L] option 2, [G] neither","key_press":65,"name":"choice","trial_type":"html-keyboard-response","trial_index":208,"time_elapsed":302749,"internal_node_id":"0.0-208.0","subject":"S1C0809","sona":"41416","block":4,"time":"2021-09-06T19:22:22.362Z","response":"1st","certainty":"high","char":"A","transposition":-3,"order":["shifted","swapped"],"probe_pitches":[2,-3,-1,7,3,-3,2,-3],"shifted_pitches":[2,-3,-1,8,3,-3,2,-3],"swapped_pitches":[2,-3,-1,3,7,-3,2,-3],"shift_direction":1,"question_num":181,"has_decoy":false},{"rt":783.1000000089407,"stimulus":"[A] option 1, [L] option 2, [G] neither","key_press":65,"name":"choice","trial_type":"html-keyboard-response","trial_index":219,"time_elapsed":317899,"internal_node_id":"0.0-219.0","subject":"S1C0809","sona":"41416","block":4,"time":"2021-09-06T19:22:22.362Z","response":"1st","certainty":"high","char":"A","transposition":-1,"order":["swapped","shifted"],"probe_pitches":[9,6,2,4,11,6,11,6],"shifted_pitches":[9,6,2,3,11,6,11,6],"swapped_pitches":[9,6,2,11,4,6,11,6],"shift_direction":-1,"question_num":191,"has_decoy":false}]