[{"rt":902.5,"stimulus":"[A] option 1, [L] option 2, [G] neither","key_press":76,"name":"choice","trial_type":"html-keyboard-response","trial_index":10,"time_elapsed":16590,"internal_node_id":"0.0-10.0","subject":"S1C0809","sona":"41416","block":3,"time":"2021-09-06T19:17:02.002Z","response":"2nd","certainty":"high","char":"L","transposition":3,"order":["shifted","swapped"],"probe_pitches":[9,4,9,4,0,7,2,9],"shifted_pitches":[9,4,9,5,0,7,2,9],"swapped_pitches":[9,4,9,0,4,7,2,9],"shift_direction":1,"question_num":1,"has_decoy":false},{"rt":3803,"stimulus":"[A] option 1, [L] option 2, [G] neither","key_press":65,"name":"choice","trial_type":"html-keyboard-response","trial_index":21,"time_elapsed":34686,"internal_node_id":"0.0-21.0","subject":"S1C0809","sona":"41416","block":3,"time":"2021-09-06T19:17:02.002Z","response":"1st","certainty":"high","char":"A","transposition":3,"order":["swapped","shifted"],"probe_pitches":[5,6,5,4,8,12,8,10],"shifted_pitches":[5,6,5,4,7,12,8,10],"swapped_pitches":[5,6,5,8,4,12,8,10],"shift_direction":-1,"question_num":11,"has_decoy":false},{"rt":1509.2999999970198,"stimulus":"[A] option 1, [L] option 2, [G] neither","key_press":65,"name":"choice","trial_type":"html-keyboard-response","trial_index":32,"time_elapsed":51000,"internal_node_id":"0.0-32.0","subject":"S1C0809","sona":"41416","block":3,"time":"2021-09-06T19:17:02.002Z","response":"1st","certainty":"high","char":"A","transposition":-2,"order":["shifted","swapped"],"probe_pitches":[4,1,5,3,9,2,9,12],"shifted_pitches":[4,1,5,3,10,2,9,12],"swapped_pitches":[4,1,5,9,3,2,9,12],"shift_direction":1,"question_num":21,"has_decoy":false},{"rt":1417.2000000029802,"stimulus":"[A] option 1, [L] option 2, [G] neither","key_press":76,"name":"choice","trial_type":"html-keyboard-response","trial_index":43,"time_elapsed":67260,"internal_node_id":"0.0-43.0","subject":"S1C0809","sona":"41416","block":3,"time":"2021-09-06T19:17:02.002Z","response":"2nd","certainty":"high","char":"L","transposition":-1,"order":["swapped","shifted"],"probe_pitches":[6,4,9,2,6,9,-1,6],"shifted_pitches":[6,4,9,2,5,9,-1,6],"swapped_pitches":[6,4,9,6,2,9,-1,6],"shift_direction":-1,"question_num":31,"has_decoy":false},{"rt":636.4000000059605,"stimulus":"[A] option 1, [L] option 2, [G] neither","key_press":76,"name":"choice","trial_type":"html-keyboard-response","trial_index":54,"time_elapsed":82079,"internal_node_id":"0.0-54.0","subject":"S1C0809","sona":"41416","block":3,"time":"2021-09-06T19:17:02.002Z","response":"2nd","certainty":"high","char":"L","transposition":-3,"order":["shifted","swapped"],"probe_pitches":[7,6,4,2,8,13,4,10],"shifted_pitches":[7,6,4,3,8,13,4,10],"swapped_pitches":[7,6,4,8,2,13,4,10],"shift_direction":1,"question_num":41,"has_decoy":false},{"rt":1397.6000000089407,"stimulus":"[A] option 1, [L] option 2, [G] neither","key_press":65,"name":"choice","trial_type":"html-keyboard-response","trial_index":65,"time_elapsed":97817,"internal_node_id":"0.0-65.0","subject":"S1C0809","sona":"41416","block":3,"time":"2021-09-06T19:17:02.002Z","response":"1st","certainty":"high","char":"A","transposition":0,"order":["shifted","swapped"],"probe_pitches":[10,12,5,7,2,3,13,3],"shifted_pitches":[10,12,5,6,2,3,13,3],"swapped_pitches":[10,12,5,2,7,3,13,3],"shift_direction":-1,"question_num":51,"has_decoy":false},{"rt":1169.7999999970198,"stimulus":"[A] option 1, [L] option 2, [G] neither","key_press":65,"name":"choice","trial_type":"html-keyboard-response","trial_index":76,"time_elapsed":113343,"internal_node_id":"0.0-76.0","subject":"S1C0809","sona":"41416","block":3,"time":"2021-09-06T19:17:02.002Z","response":"1st","certainty":"high","char":"A","transposition":2,"order":["swapped","shifted"],"probe_pitches":[11,5,11,13,5,2,9,3],"shifted_pitches":[11,5,11,13,4,2,9,3],"swapped_pitches":[11,5,11,5,13,2,9,3],"shift_direction":-1,"question_num":61,"has_decoy":false},{"rt":455.29999999701977,"stimulus":"[A] option 1, [L] option 2, [G] neither","key_press":76,"name":"choice","trial_type":"html-keyboard-response","trial_index":87,"time_elapsed":128341,"internal_node_id":"0.0-87.0","subject":"S1C0809","sona":"41416","block":3,"time":"2021-09-06T19:17:02.002Z","response":"2nd","certainty":"high","char":"L","transposition":-2,"order":["swapped","shifted"],"probe_pitches":[2,-3,4,7,9,-1,-3,9],"shifted_pitches":[2,-3,4,7,10,-1,-3,9],"swapped_pitches":[2,-3,4,9,7,-1,-3,9],"shift_direction":1,"question_num":71,"has_decoy":false},{"rt":1675.300000011921,"stimulus":"[A] option 1, [L] option 2, [G] neither","key_press":76,"name":"choice","trial_type":"html-keyboard-response","trial_index":98,"time_elapsed":144351,"internal_node_id":"0.0-98.0","subject":"S1C0809","sona":"41416","block":3,"time":"2021-09-06T19:17:02.002Z","response":"2nd","certainty":"high","char":"L","transposition":0,"order":["shifted","swapped"],"probe_pitches":[-1,4,1,6,-1,-3,4,-3],"shifted_pitches":[-1,4,1,7,-1,-3,4,-3],"swapped_pitches":[-1,4,1,-1,6,-3,4,-3],"shift_direction":1,"question_num":81,"has_decoy":false},{"rt":456.59999999403954,"stimulus":"[A] option 1, [L] option 2, [G] neither","key_press":76,"name":"choice","trial_type":"html-keyboard-response","trial_index":109,"time_elapsed":159478,"internal_node_id":"0.0-109.0","subject":"S1C0809","sona":"41416","block":3,"time":"2021-09-06T19:17:02.002Z","response":"2nd","certainty":"high","char":"L","transposition":-1,"order":["shifted","swapped"],"probe_pitches":[8,13,11,4,13,7,12,13],"shifted_pitches":[8,13,11,5,13,7,12,13],"swapped_pitches":[8,13,11,13,4,7,12,13],"shift_direction":1,"question_num":91,"has_decoy":false},{"rt":6385.70000000298,"stimulus":"[A] option 1, [L] option 2, [G] neither","key_press":76,"name":"choice","trial_type":"html-keyboard-response","trial_index":120,"time_elapsed":180325,"internal_node_id":"0.0-120.0","subject":"S1C0809","sona":"41416","block":3,"time":"2021-09-06T19:17:02.002Z","response":"2nd","certainty":"high","char":"L","transposition":-3,"order":["shifted","swapped"],"probe_pitches":[7,1,2,10,9,3,10,5],"shifted_pitches":[7,1,2,10,8,3,10,5],"swapped_pitches":[7,1,2,9,10,3,10,5],"shift_direction":-1,"question_num":101,"has_decoy":false},{"rt":431.29999999701977,"stimulus":"[A] option 1, [L] option 2, [G] neither","key_press":76,"name":"choice","trial_type":"html-keyboard-response","trial_index":131,"time_elapsed":194968,"internal_node_id":"0.0-131.0","subject":"S1C0809","sona":"41416","block":3,"time":"2021-09-06T19:17:02.002Z","response":"2nd","certainty":"high","char":"L","transposition":-2,"order":["swapped","shifted"],"probe_pitches":[4,2,9,10,8,1,9,7],"shifted_pitches":[4,2,9,11,8,1,9,7],"swapped_pitches":[4,2,9,8,10,1,9,7],"shift_direction":1,"question_num":111,"has_decoy":false},{"rt":369.5,"stimulus":"[A] option 1, [L] option 2, [G] neither","key_press":76,"name":"choice","trial_type":"html-keyboard-response","trial_index":142,"time_elapsed":209957,"internal_node_id":"0.0-142.0","subject":"S1C0809","sona":"41416","block":3,"time":"2021-09-06T19:17:02.002Z","response":"2nd","certainty":"high","char":"L","transposition":-3,"order":["swapped","shifted"],"probe_pitches":[-3,0,5,2,-3,5,7,9],"shifted_pitches":[-3,0,5,2,-4,5,7,9],"swapped_pitches":[-3,0,5,-3,2,5,7,9],"shift_direction":-1,"question_num":121,"has_decoy":false},{"rt":1308.2000000029802,"stimulus":"[A] option 1, [L] option 2, [G] neither","key_press":71,"name":"choice","trial_type":"html-keyboard-response","trial_index":153,"time_elapsed":225627,"internal_node_id":"0.0-153.0","subject":"S1C0809","sona":"41416","block":3,"time":"2021-09-06T19:17:02.002Z","response":"neither","certainty":"high","char":"G","transposition":1,"order":["swapped","shifted"],"probe_pitches":[5,4,5,8,3,4,12,11],"shifted_pitches":[5,4,5,9,3,4,12,11],"swapped_pitches":[5,4,5,3,8,4,12,11],"shift_direction":1,"question_num":131,"has_decoy":false},{"rt":344.59999999403954,"stimulus":"[A] option 1, [L] option 2, [G] neither","key_press":76,"name":"choice","trial_type":"html-keyboard-response","trial_index":164,"time_elapsed":240343,"internal_node_id":"0.0-164.0","subject":"S1C0809","sona":"41416","block":3,"time":"2021-09-06T19:17:02.002Z","response":"2nd","certainty":"high","char":"L","transposition":-1,"order":["swapped","shifted"],"probe_pitches":[6,10,4,10,1,4,3,2],"shifted_pitches":[6,10,4,10,0,4,3,2],"swapped_pitches":[6,10,4,1,10,4,3,2],"shift_direction":-1,"question_num":141,"has_decoy":false},{"rt":1964.5999999940395,"stimulus":"[A] option 1, [L] option 2, [G] neither","key_press":71,"name":"choice","trial_type":"html-keyboard-response","trial_index":175,"time_elapsed":256636,"internal_node_id":"0.0-175.0","subject":"S1C0809","sona":"41416","block":3,"time":"2021-09-06T19:17:02.002Z","response":"neither","certainty":"high","char":"G","transposition":-2,"order":["shifted","swapped"],"probe_pitches":[7,2,4,-1,-3,2,9,2],"shifted_pitches":[7,2,4,0,-3,2,9,2],"swapped_pitches":[7,2,4,-3,-1,2,9,2],"shift_direction":1,"question_num":151,"has_decoy":false},{"rt":1142.1000000089407,"stimulus":"[A] option 1, [L] option 2, [G] neither","key_press":65,"name":"choice","trial_type":"html-keyboard-response","trial_index":186,"time_elapsed":272603,"internal_node_id":"0.0-186.0","subject":"S1C0809","sona":"41416","block":3,"time":"2021-09-06T19:17:02.002Z","response":"1st","certainty":"high","char":"A","transposition":1,"order":["shifted","swapped"],"probe_pitches":[5,7,5,7,2,0,-3,9],"shifted_pitches":[5,7,5,6,2,0,-3,9],"swapped_pitches":[5,7,5,2,7,0,-3,9],"shift_direction":-1,"question_num":161,"has_decoy":false},{"rt":380.19999998807907,"stimulus":"[A] option 1, [L] option 2, [G] neither","key_press":76,"name":"choice","trial_type":"html-keyboard-response","trial_index":197,"time_elapsed":287291,"internal_node_id":"0.0-197.0","subject":"S1C0809","sona":"41416","block":3,"time":"2021-09-06T19:17:02.002Z","response":"2nd","certainty":"high","char":"L","transposition":-3,"order":["swapped","shifted"],"probe_pitches":[7,9,2,9,4,2,7,0],"shifted_pitches":[7,9,2,10,4,2,7,0],"swapped_pitches":[7,9,2,4,9,2,7,0],"shift_direction":1,"question_num":171,"has_decoy":false},{"rt":475.5,"stimulus":"[A] option 1, [L] option 2, [G] neither","key_press":76,"name":"choice","trial_type":"html-keyboard-response","trial_index":208,"time_elapsed":302037,"internal_node_id":"0.0-208.0","subject":"S1C0809","sona":"41416","block":3,"time":"2021-09-06T19:17:02.002Z","response":"2nd","certainty":"high","char":"L","transposition":-1,"order":["swapped","shifted"],"probe_pitches":[6,9,2,-1,4,9,6,9],"shifted_pitches":[6,9,2,-1,3,9,6,9],"swapped_pitches":[6,9,2,4,-1,9,6,9],"shift_direction":-1,"question_num":181,"has_decoy":false},{"rt":2470.7000000029802,"stimulus":"[A] option 1, [L] option 2, [G] neither","key_press":71,"name":"choice","trial_type":"html-keyboard-response","trial_index":219,"time_elapsed":318838,"internal_node_id":"0.0-219.0","subject":"S1C0809","sona":"41416","block":3,"time":"2021-09-06T19:17:02.002Z","response":"neither","certainty":"high","char":"G","transposition":2,"order":["shifted","swapped"],"probe_pitches":[4,9,4,6,-1,1,-1,1],"shifted_pitches":[4,9,4,6,-2,1,-1,1],"swapped_pitches":[4,9,4,-1,6,1,-1,1],"shift_direction":-1,"question_num":191,"has_decoy":false}]