[{"rt":941.7999999970198,"stimulus":"[A] option 1, [L] option 2, [G] neither","key_press":65,"name":"choice","trial_type":"html-keyboard-response","trial_index":10,"time_elapsed":21723,"internal_node_id":"0.0-10.0","subject":"S1C1239","sona":"41955","block":3,"time":"2021-09-18T21:34:38.586Z","response":"1st","certainty":"high","char":"A","transposition":-1,"order":["shifted","swapped"],"probe_pitches":[2,6,9,4,-3,4,2,-3,6,9,-1,4],"shifted_pitches":[2,6,9,4,-3,3,2,-3,6,9,-1,4],"swapped_pitches":[2,6,9,4,-3,2,4,-3,6,9,-1,4],"shift_direction":-1,"question_num":1,"has_decoy":false},{"rt":4191.4000000059605,"stimulus":"[A] option 1, [L] option 2, [G] neither","key_press":71,"name":"choice","trial_type":"html-keyboard-response","trial_index":21,"time_elapsed":44464,"internal_node_id":"0.0-21.0","subject":"S1C1239","sona":"41955","block":3,"time":"2021-09-18T21:34:38.586Z","response":"neither","certainty":"high","char":"G","transposition":0,"order":["shifted","swapped"],"probe_pitches":[9,7,2,4,9,-1,2,-3,2,9,-3,2],"shifted_pitches":[9,7,2,4,9,-1,3,-3,2,9,-3,2],"swapped_pitches":[9,7,2,4,9,2,-1,-3,2,9,-3,2],"shift_direction":1,"question_num":11,"has_decoy":false},{"rt":3291.5,"stimulus":"[A] option 1, [L] option 2, [G] neither","key_press":76,"name":"choice","trial_type":"html-keyboard-response","trial_index":32,"time_elapsed":66244,"internal_node_id":"0.0-32.0","subject":"S1C1239","sona":"41955","block":3,"time":"2021-09-18T21:34:38.586Z","response":"2nd","certainty":"high","char":"L","transposition":-1,"order":["swapped","shifted"],"probe_pitches":[1,-1,1,0,3,1,-1,0,3,4,3,10],"shifted_pitches":[1,-1,1,0,3,2,-1,0,3,4,3,10],"swapped_pitches":[1,-1,1,0,3,-1,1,0,3,4,3,10],"shift_direction":1,"question_num":21,"has_decoy":false},{"rt":3653.7000000029802,"stimulus":"[A] option 1, [L] option 2, [G] neither","key_press":65,"name":"choice","trial_type":"html-keyboard-response","trial_index":43,"time_elapsed":88354,"internal_node_id":"0.0-43.0","subject":"S1C1239","sona":"41955","block":3,"time":"2021-09-18T21:34:38.586Z","response":"1st","certainty":"high","char":"A","transposition":3,"order":["swapped","shifted"],"probe_pitches":[5,2,9,2,0,-3,7,0,-3,9,0,-3],"shifted_pitches":[5,2,9,2,0,-3,6,0,-3,9,0,-3],"swapped_pitches":[5,2,9,2,0,7,-3,0,-3,9,0,-3],"shift_direction":-1,"question_num":31,"has_decoy":false},{"rt":5834,"stimulus":"[A] option 1, [L] option 2, [G] neither","key_press":76,"name":"choice","trial_type":"html-keyboard-response","trial_index":54,"time_elapsed":112565,"internal_node_id":"0.0-54.0","subject":"S1C1239","sona":"41955","block":3,"time":"2021-09-18T21:34:38.586Z","response":"2nd","certainty":"high","char":"L","transposition":2,"order":["shifted","swapped"],"probe_pitches":[-1,2,1,6,4,11,5,8,11,9,1,3],"shifted_pitches":[-1,2,1,6,4,10,5,8,11,9,1,3],"swapped_pitches":[-1,2,1,6,4,5,11,8,11,9,1,3],"shift_direction":-1,"question_num":41,"has_decoy":false},{"rt":1513.7000000029802,"stimulus":"[A] option 1, [L] option 2, [G] neither","key_press":65,"name":"choice","trial_type":"html-keyboard-response","trial_index":65,"time_elapsed":132725,"internal_node_id":"0.0-65.0","subject":"S1C1239","sona":"41955","block":3,"time":"2021-09-18T21:34:38.586Z","response":"1st","certainty":"high","char":"A","transposition":1,"order":["swapped","shifted"],"probe_pitches":[11,5,3,6,3,10,1,8,0,1,11,8],"shifted_pitches":[11,5,3,6,3,9,1,8,0,1,11,8],"swapped_pitches":[11,5,3,6,3,1,10,8,0,1,11,8],"shift_direction":-1,"question_num":51,"has_decoy":false},{"rt":1624.5999999940395,"stimulus":"[A] option 1, [L] option 2, [G] neither","key_press":65,"name":"choice","trial_type":"html-keyboard-response","trial_index":76,"time_elapsed":152765,"internal_node_id":"0.0-76.0","subject":"S1C1239","sona":"41955","block":3,"time":"2021-09-18T21:34:38.586Z","response":"1st","certainty":"high","char":"A","transposition":-3,"order":["swapped","shifted"],"probe_pitches":[9,10,11,9,3,5,8,9,-1,0,9,8],"shifted_pitches":[9,10,11,9,3,6,8,9,-1,0,9,8],"swapped_pitches":[9,10,11,9,3,8,5,9,-1,0,9,8],"shift_direction":1,"question_num":61,"has_decoy":false},{"rt":8702.5,"stimulus":"[A] option 1, [L] option 2, [G] neither","key_press":76,"name":"choice","trial_type":"html-keyboard-response","trial_index":87,"time_elapsed":182374,"internal_node_id":"0.0-87.0","subject":"S1C1239","sona":"41955","block":3,"time":"2021-09-18T21:34:38.586Z","response":"2nd","certainty":"high","char":"L","transposition":-3,"order":["shifted","swapped"],"probe_pitches":[2,6,11,7,9,0,5,1,8,5,1,11],"shifted_pitches":[2,6,11,7,9,0,4,1,8,5,1,11],"swapped_pitches":[2,6,11,7,9,5,0,1,8,5,1,11],"shift_direction":-1,"question_num":71,"has_decoy":false},{"rt":1736,"stimulus":"[A] option 1, [L] option 2, [G] neither","key_press":65,"name":"choice","trial_type":"html-keyboard-response","trial_index":98,"time_elapsed":203316,"internal_node_id":"0.0-98.0","subject":"S1C1239","sona":"41955","block":3,"time":"2021-09-18T21:34:38.586Z","response":"1st","certainty":"high","char":"A","transposition":1,"order":["swapped","shifted"],"probe_pitches":[4,-1,6,9,2,6,4,-1,6,-1,-3,9],"shifted_pitches":[4,-1,6,9,2,6,3,-1,6,-1,-3,9],"swapped_pitches":[4,-1,6,9,2,4,6,-1,6,-1,-3,9],"shift_direction":-1,"question_num":81,"has_decoy":false},{"rt":1701.9000000059605,"stimulus":"[A] option 1, [L] option 2, [G] neither","key_press":76,"name":"choice","trial_type":"html-keyboard-response","trial_index":109,"time_elapsed":223942,"internal_node_id":"0.0-109.0","subject":"S1C1239","sona":"41955","block":3,"time":"2021-09-18T21:34:38.586Z","response":"2nd","certainty":"high","char":"L","transposition":0,"order":["shifted","swapped"],"probe_pitches":[5,-1,1,3,2,9,1,5,9,11,4,5],"shifted_pitches":[5,-1,1,3,2,8,1,5,9,11,4,5],"swapped_pitches":[5,-1,1,3,2,1,9,5,9,11,4,5],"shift_direction":-1,"question_num":91,"has_decoy":false},{"rt":16061,"stimulus":"[A] option 1, [L] option 2, [G] neither","key_press":71,"name":"choice","trial_type":"html-keyboard-response","trial_index":120,"time_elapsed":259672,"internal_node_id":"0.0-120.0","subject":"S1C1239","sona":"41955","block":3,"time":"2021-09-18T21:34:38.586Z","response":"neither","certainty":"high","char":"G","transposition":-2,"order":["swapped","shifted"],"probe_pitches":[3,0,-1,5,4,10,0,-1,4,3,11,4],"shifted_pitches":[3,0,-1,5,4,10,1,-1,4,3,11,4],"swapped_pitches":[3,0,-1,5,4,0,10,-1,4,3,11,4],"shift_direction":1,"question_num":101,"has_decoy":false},{"rt":1813.6000000089407,"stimulus":"[A] option 1, [L] option 2, [G] neither","key_press":65,"name":"choice","trial_type":"html-keyboard-response","trial_index":131,"time_elapsed":281544,"internal_node_id":"0.0-131.0","subject":"S1C1239","sona":"41955","block":3,"time":"2021-09-18T21:34:38.586Z","response":"1st","certainty":"high","char":"A","transposition":-1,"order":["shifted","swapped"],"probe_pitches":[5,0,-3,2,0,2,7,0,-3,0,5,2],"shifted_pitches":[5,0,-3,2,0,3,7,0,-3,0,5,2],"swapped_pitches":[5,0,-3,2,0,7,2,0,-3,0,5,2],"shift_direction":1,"question_num":111,"has_decoy":false},{"rt":4448.5999999940395,"stimulus":"[A] option 1, [L] option 2, [G] neither","key_press":76,"name":"choice","trial_type":"html-keyboard-response","trial_index":142,"time_elapsed":305469,"internal_node_id":"0.0-142.0","subject":"S1C1239","sona":"41955","block":3,"time":"2021-09-18T21:34:38.586Z","response":"2nd","certainty":"high","char":"L","transposition":-2,"order":["swapped","shifted"],"probe_pitches":[-3,2,-3,4,9,-1,2,9,7,2,7,2],"shifted_pitches":[-3,2,-3,4,9,0,2,9,7,2,7,2],"swapped_pitches":[-3,2,-3,4,9,2,-1,9,7,2,7,2],"shift_direction":1,"question_num":121,"has_decoy":false},{"rt":4296,"stimulus":"[A] option 1, [L] option 2, [G] neither","key_press":65,"name":"choice","trial_type":"html-keyboard-response","trial_index":153,"time_elapsed":328193,"internal_node_id":"0.0-153.0","subject":"S1C1239","sona":"41955","block":3,"time":"2021-09-18T21:34:38.586Z","response":"1st","certainty":"high","char":"A","transposition":-1,"order":["shifted","swapped"],"probe_pitches":[3,-1,3,11,6,0,8,4,2,8,6,5],"shifted_pitches":[3,-1,3,11,6,0,7,4,2,8,6,5],"swapped_pitches":[3,-1,3,11,6,8,0,4,2,8,6,5],"shift_direction":-1,"question_num":131,"has_decoy":false},{"rt":58761.5,"stimulus":"[A] option 1, [L] option 2, [G] neither","key_press":71,"name":"choice","trial_type":"html-keyboard-response","trial_index":164,"time_elapsed":405562,"internal_node_id":"0.0-164.0","subject":"S1C1239","sona":"41955","block":3,"time":"2021-09-18T21:34:38.586Z","response":"neither","certainty":"high","char":"G","transposition":3,"order":["shifted","swapped"],"probe_pitches":[3,9,7,6,-1,9,4,-1,1,11,3,6],"shifted_pitches":[3,9,7,6,-1,9,5,-1,1,11,3,6],"swapped_pitches":[3,9,7,6,-1,4,9,-1,1,11,3,6],"shift_direction":1,"question_num":141,"has_decoy":false},{"rt":33353.10000000894,"stimulus":"[A] option 1, [L] option 2, [G] neither","key_press":71,"name":"choice","trial_type":"html-keyboard-response","trial_index":175,"time_elapsed":457812,"internal_node_id":"0.0-175.0","subject":"S1C1239","sona":"41955","block":3,"time":"2021-09-18T21:34:38.586Z","response":"neither","certainty":"high","char":"G","transposition":2,"order":["swapped","shifted"],"probe_pitches":[1,-1,4,-1,-3,4,6,-1,9,4,6,-3],"shifted_pitches":[1,-1,4,-1,-3,4,5,-1,9,4,6,-3],"swapped_pitches":[1,-1,4,-1,-3,6,4,-1,9,4,6,-3],"shift_direction":-1,"question_num":151,"has_decoy":false},{"rt":22666.59999999404,"stimulus":"[A] option 1, [L] option 2, [G] neither","key_press":76,"name":"choice","trial_type":"html-keyboard-response","trial_index":186,"time_elapsed":502574,"internal_node_id":"0.0-186.0","subject":"S1C1239","sona":"41955","block":3,"time":"2021-09-18T21:34:38.586Z","response":"2nd","certainty":"high","char":"L","transposition":-3,"order":["swapped","shifted"],"probe_pitches":[7,4,-3,0,7,4,-3,2,4,7,9,-3],"shifted_pitches":[7,4,-3,0,7,3,-3,2,4,7,9,-3],"swapped_pitches":[7,4,-3,0,7,-3,4,2,4,7,9,-3],"shift_direction":-1,"question_num":161,"has_decoy":false},{"rt":3847.0999999940395,"stimulus":"[A] option 1, [L] option 2, [G] neither","key_press":65,"name":"choice","trial_type":"html-keyboard-response","trial_index":197,"time_elapsed":524952,"internal_node_id":"0.0-197.0","subject":"S1C1239","sona":"41955","block":3,"time":"2021-09-18T21:34:38.586Z","response":"1st","certainty":"high","char":"A","transposition":-2,"order":["shifted","swapped"],"probe_pitches":[9,4,2,7,0,4,7,0,9,0,2,4],"shifted_pitches":[9,4,2,7,0,5,7,0,9,0,2,4],"swapped_pitches":[9,4,2,7,0,7,4,0,9,0,2,4],"shift_direction":1,"question_num":171,"has_decoy":false},{"rt":567.5,"stimulus":"[A] option 1, [L] option 2, [G] neither","key_press":65,"name":"choice","trial_type":"html-keyboard-response","trial_index":208,"time_elapsed":544003,"internal_node_id":"0.0-208.0","subject":"S1C1239","sona":"41955","block":3,"time":"2021-09-18T21:34:38.586Z","response":"1st","certainty":"high","char":"A","transposition":-2,"order":["swapped","shifted"],"probe_pitches":[2,8,7,9,0,9,2,1,9,4,0,6],"shifted_pitches":[2,8,7,9,0,9,3,1,9,4,0,6],"swapped_pitches":[2,8,7,9,0,2,9,1,9,4,0,6],"shift_direction":1,"question_num":181,"has_decoy":false},{"rt":5944.4000000059605,"stimulus":"[A] option 1, [L] option 2, [G] neither","key_press":76,"name":"choice","trial_type":"html-keyboard-response","trial_index":219,"time_elapsed":568329,"internal_node_id":"0.0-219.0","subject":"S1C1239","sona":"41955","block":3,"time":"2021-09-18T21:34:38.586Z","response":"2nd","certainty":"high","char":"L","transposition":-3,"order":["shifted","swapped"],"probe_pitches":[-1,-3,1,9,6,-1,-3,9,4,-3,-1,6],"shifted_pitches":[-1,-3,1,9,6,-1,-2,9,4,-3,-1,6],"swapped_pitches":[-1,-3,1,9,6,-3,-1,9,4,-3,-1,6],"shift_direction":1,"question_num":191,"has_decoy":false}]