[{"rt":275,"stimulus":"[A] option 1, [L] option 2, [G] neither","key_press":76,"name":"choice","trial_type":"html-keyboard-response","trial_index":10,"time_elapsed":20306,"internal_node_id":"0.0-10.0","subject":"S1C1239","sona":"41955","block":5,"time":"2021-09-18T21:51:30.096Z","response":"2nd","certainty":"high","char":"L","transposition":-2,"order":["swapped","shifted"],"probe_pitches":[4,7,12,14,7,12,14,9,7,9,4,7],"shifted_pitches":[4,7,12,14,7,12,13,9,7,9,4,7],"swapped_pitches":[4,7,12,14,7,14,12,9,7,9,4,7],"shift_direction":-1,"question_num":1,"has_decoy":false},{"rt":7807,"stimulus":"[A] option 1, [L] option 2, [G] neither","key_press":76,"name":"choice","trial_type":"html-keyboard-response","trial_index":21,"time_elapsed":48749,"internal_node_id":"0.0-21.0","subject":"S1C1239","sona":"41955","block":5,"time":"2021-09-18T21:51:30.096Z","response":"2nd","certainty":"high","char":"L","transposition":-2,"order":["swapped","shifted"],"probe_pitches":[2,7,0,8,9,11,5,6,8,-1,3,7],"shifted_pitches":[2,7,0,8,9,11,4,6,8,-1,3,7],"swapped_pitches":[2,7,0,8,9,5,11,6,8,-1,3,7],"shift_direction":-1,"question_num":11,"has_decoy":false},{"rt":455.70000000298023,"stimulus":"[A] option 1, [L] option 2, [G] neither","key_press":65,"name":"choice","trial_type":"html-keyboard-response","trial_index":32,"time_elapsed":71817,"internal_node_id":"0.0-32.0","subject":"S1C1239","sona":"41955","block":5,"time":"2021-09-18T21:51:30.096Z","response":"1st","certainty":"high","char":"A","transposition":-1,"order":["shifted","swapped"],"probe_pitches":[9,4,6,4,9,4,11,6,2,14,4,6],"shifted_pitches":[9,4,6,4,9,4,12,6,2,14,4,6],"swapped_pitches":[9,4,6,4,9,11,4,6,2,14,4,6],"shift_direction":1,"question_num":21,"has_decoy":false},{"rt":3535.800000011921,"stimulus":"[A] option 1, [L] option 2, [G] neither","key_press":76,"name":"choice","trial_type":"html-keyboard-response","trial_index":43,"time_elapsed":93748,"internal_node_id":"0.0-43.0","subject":"S1C1239","sona":"41955","block":5,"time":"2021-09-18T21:51:30.096Z","response":"2nd","certainty":"high","char":"L","transposition":-1,"order":["shifted","swapped"],"probe_pitches":[0,2,0,4,-1,6,1,10,1,2,5,4],"shifted_pitches":[0,2,0,4,-1,7,1,10,1,2,5,4],"swapped_pitches":[0,2,0,4,-1,1,6,10,1,2,5,4],"shift_direction":1,"question_num":31,"has_decoy":false},{"rt":11160.300000011921,"stimulus":"[A] option 1, [L] option 2, [G] neither","key_press":76,"name":"choice","trial_type":"html-keyboard-response","trial_index":54,"time_elapsed":125323,"internal_node_id":"0.0-54.0","subject":"S1C1239","sona":"41955","block":5,"time":"2021-09-18T21:51:30.096Z","response":"2nd","certainty":"high","char":"L","transposition":-3,"order":["swapped","shifted"],"probe_pitches":[11,14,9,14,11,14,7,2,9,7,2,4],"shifted_pitches":[11,14,9,14,11,13,7,2,9,7,2,4],"swapped_pitches":[11,14,9,14,11,7,14,2,9,7,2,4],"shift_direction":-1,"question_num":41,"has_decoy":false},{"rt":5806.9000000059605,"stimulus":"[A] option 1, [L] option 2, [G] neither","key_press":76,"name":"choice","trial_type":"html-keyboard-response","trial_index":65,"time_elapsed":170039,"internal_node_id":"0.0-65.0","subject":"S1C1239","sona":"41955","block":5,"time":"2021-09-18T21:51:30.096Z","response":"2nd","certainty":"high","char":"L","transposition":1,"order":["shifted","swapped"],"probe_pitches":[4,9,3,7,8,0,5,8,4,5,10,5],"shifted_pitches":[4,9,3,7,8,1,5,8,4,5,10,5],"swapped_pitches":[4,9,3,7,8,5,0,8,4,5,10,5],"shift_direction":1,"question_num":51,"has_decoy":false},{"rt":356.70000000298023,"stimulus":"[A] option 1, [L] option 2, [G] neither","key_press":65,"name":"choice","trial_type":"html-keyboard-response","trial_index":76,"time_elapsed":188609,"internal_node_id":"0.0-76.0","subject":"S1C1239","sona":"41955","block":5,"time":"2021-09-18T21:51:30.096Z","response":"1st","certainty":"high","char":"A","transposition":-2,"order":["shifted","swapped"],"probe_pitches":[9,7,0,6,2,7,11,5,0,7,3,7],"shifted_pitches":[9,7,0,6,2,7,10,5,0,7,3,7],"swapped_pitches":[9,7,0,6,2,11,7,5,0,7,3,7],"shift_direction":-1,"question_num":61,"has_decoy":false},{"rt":2393.5999999940395,"stimulus":"[A] option 1, [L] option 2, [G] neither","key_press":76,"name":"choice","trial_type":"html-keyboard-response","trial_index":87,"time_elapsed":209326,"internal_node_id":"0.0-87.0","subject":"S1C1239","sona":"41955","block":5,"time":"2021-09-18T21:51:30.096Z","response":"2nd","certainty":"high","char":"L","transposition":-2,"order":["swapped","shifted"],"probe_pitches":[9,11,14,7,11,9,4,7,14,4,14,11],"shifted_pitches":[9,11,14,7,11,9,5,7,14,4,14,11],"swapped_pitches":[9,11,14,7,11,4,9,7,14,4,14,11],"shift_direction":1,"question_num":71,"has_decoy":false},{"rt":841.7000000029802,"stimulus":"[A] option 1, [L] option 2, [G] neither","key_press":65,"name":"choice","trial_type":"html-keyboard-response","trial_index":98,"time_elapsed":235214,"internal_node_id":"0.0-98.0","subject":"S1C1239","sona":"41955","block":5,"time":"2021-09-18T21:51:30.096Z","response":"1st","certainty":"high","char":"A","transposition":3,"order":["shifted","swapped"],"probe_pitches":[7,9,12,14,9,2,12,9,2,5,7,12],"shifted_pitches":[7,9,12,14,9,1,12,9,2,5,7,12],"swapped_pitches":[7,9,12,14,9,12,2,9,2,5,7,12],"shift_direction":-1,"question_num":81,"has_decoy":false},{"rt":4810.899999991059,"stimulus":"[A] option 1, [L] option 2, [G] neither","key_press":76,"name":"choice","trial_type":"html-keyboard-response","trial_index":109,"time_elapsed":258553,"internal_node_id":"0.0-109.0","subject":"S1C1239","sona":"41955","block":5,"time":"2021-09-18T21:51:30.096Z","response":"2nd","certainty":"high","char":"L","transposition":0,"order":["swapped","shifted"],"probe_pitches":[6,3,7,-1,0,9,1,8,11,10,11,0],"shifted_pitches":[6,3,7,-1,0,9,2,8,11,10,11,0],"swapped_pitches":[6,3,7,-1,0,1,9,8,11,10,11,0],"shift_direction":1,"question_num":91,"has_decoy":false},{"rt":2772.5999999940395,"stimulus":"[A] option 1, [L] option 2, [G] neither","key_press":71,"name":"choice","trial_type":"html-keyboard-response","trial_index":120,"time_elapsed":279915,"internal_node_id":"0.0-120.0","subject":"S1C1239","sona":"41955","block":5,"time":"2021-09-18T21:51:30.096Z","response":"neither","certainty":"high","char":"G","transposition":0,"order":["shifted","swapped"],"probe_pitches":[7,2,5,10,14,12,2,14,2,10,5,12],"shifted_pitches":[7,2,5,10,14,13,2,14,2,10,5,12],"swapped_pitches":[7,2,5,10,14,2,12,14,2,10,5,12],"shift_direction":1,"question_num":101,"has_decoy":false},{"rt":41137.59999999404,"stimulus":"[A] option 1, [L] option 2, [G] neither","key_press":71,"name":"choice","trial_type":"html-keyboard-response","trial_index":131,"time_elapsed":339391,"internal_node_id":"0.0-131.0","subject":"S1C1239","sona":"41955","block":5,"time":"2021-09-18T21:51:30.096Z","response":"neither","certainty":"high","char":"G","transposition":-1,"order":["shifted","swapped"],"probe_pitches":[-1,4,7,1,10,2,6,8,9,-1,11,10],"shifted_pitches":[-1,4,7,1,10,3,6,8,9,-1,11,10],"swapped_pitches":[-1,4,7,1,10,6,2,8,9,-1,11,10],"shift_direction":1,"question_num":111,"has_decoy":false},{"rt":935.2999999970198,"stimulus":"[A] option 1, [L] option 2, [G] neither","key_press":76,"name":"choice","trial_type":"html-keyboard-response","trial_index":142,"time_elapsed":358591,"internal_node_id":"0.0-142.0","subject":"S1C1239","sona":"41955","block":5,"time":"2021-09-18T21:51:30.096Z","response":"2nd","certainty":"high","char":"L","transposition":2,"order":["swapped","shifted"],"probe_pitches":[2,4,9,7,4,7,2,14,7,12,14,4],"shifted_pitches":[2,4,9,7,4,7,3,14,7,12,14,4],"swapped_pitches":[2,4,9,7,4,2,7,14,7,12,14,4],"shift_direction":1,"question_num":121,"has_decoy":false},{"rt":1797.2999999970198,"stimulus":"[A] option 1, [L] option 2, [G] neither","key_press":65,"name":"choice","trial_type":"html-keyboard-response","trial_index":153,"time_elapsed":380223,"internal_node_id":"0.0-153.0","subject":"S1C1239","sona":"41955","block":5,"time":"2021-09-18T21:51:30.096Z","response":"1st","certainty":"high","char":"A","transposition":3,"order":["swapped","shifted"],"probe_pitches":[2,8,1,6,8,6,10,3,8,1,-1,9],"shifted_pitches":[2,8,1,6,8,5,10,3,8,1,-1,9],"swapped_pitches":[2,8,1,6,8,10,6,3,8,1,-1,9],"shift_direction":-1,"question_num":131,"has_decoy":false},{"rt":3271.199999988079,"stimulus":"[A] option 1, [L] option 2, [G] neither","key_press":76,"name":"choice","trial_type":"html-keyboard-response","trial_index":164,"time_elapsed":402227,"internal_node_id":"0.0-164.0","subject":"S1C1239","sona":"41955","block":5,"time":"2021-09-18T21:51:30.096Z","response":"2nd","certainty":"high","char":"L","transposition":-3,"order":["swapped","shifted"],"probe_pitches":[5,11,4,2,1,2,5,1,2,1,3,10],"shifted_pitches":[5,11,4,2,1,2,6,1,2,1,3,10],"swapped_pitches":[5,11,4,2,1,5,2,1,2,1,3,10],"shift_direction":1,"question_num":141,"has_decoy":false},{"rt":1022.3000000119209,"stimulus":"[A] option 1, [L] option 2, [G] neither","key_press":76,"name":"choice","trial_type":"html-keyboard-response","trial_index":175,"time_elapsed":421637,"internal_node_id":"0.0-175.0","subject":"S1C1239","sona":"41955","block":5,"time":"2021-09-18T21:51:30.096Z","response":"2nd","certainty":"high","char":"L","transposition":1,"order":["swapped","shifted"],"probe_pitches":[10,5,10,14,10,14,12,10,2,7,12,7],"shifted_pitches":[10,5,10,14,10,13,12,10,2,7,12,7],"swapped_pitches":[10,5,10,14,10,12,14,10,2,7,12,7],"shift_direction":-1,"question_num":151,"has_decoy":false},{"rt":872.0999999940395,"stimulus":"[A] option 1, [L] option 2, [G] neither","key_press":65,"name":"choice","trial_type":"html-keyboard-response","trial_index":186,"time_elapsed":440867,"internal_node_id":"0.0-186.0","subject":"S1C1239","sona":"41955","block":5,"time":"2021-09-18T21:51:30.096Z","response":"1st","certainty":"high","char":"A","transposition":-1,"order":["shifted","swapped"],"probe_pitches":[14,9,12,14,9,7,12,2,5,12,2,9],"shifted_pitches":[14,9,12,14,9,7,13,2,5,12,2,9],"swapped_pitches":[14,9,12,14,9,12,7,2,5,12,2,9],"shift_direction":1,"question_num":161,"has_decoy":false},{"rt":2102.4000000059605,"stimulus":"[A] option 1, [L] option 2, [G] neither","key_press":65,"name":"choice","trial_type":"html-keyboard-response","trial_index":197,"time_elapsed":461507,"internal_node_id":"0.0-197.0","subject":"S1C1239","sona":"41955","block":5,"time":"2021-09-18T21:51:30.096Z","response":"1st","certainty":"high","char":"A","transposition":-3,"order":["shifted","swapped"],"probe_pitches":[4,9,6,11,4,2,9,14,11,9,14,4],"shifted_pitches":[4,9,6,11,4,1,9,14,11,9,14,4],"swapped_pitches":[4,9,6,11,4,9,2,14,11,9,14,4],"shift_direction":-1,"question_num":171,"has_decoy":false},{"rt":1493.4000000059605,"stimulus":"[A] option 1, [L] option 2, [G] neither","key_press":65,"name":"choice","trial_type":"html-keyboard-response","trial_index":208,"time_elapsed":482328,"internal_node_id":"0.0-208.0","subject":"S1C1239","sona":"41955","block":5,"time":"2021-09-18T21:51:30.096Z","response":"1st","certainty":"high","char":"A","transposition":-3,"order":["swapped","shifted"],"probe_pitches":[7,2,4,1,8,10,6,-1,4,1,10,7],"shifted_pitches":[7,2,4,1,8,9,6,-1,4,1,10,7],"swapped_pitches":[7,2,4,1,8,6,10,-1,4,1,10,7],"shift_direction":-1,"question_num":181,"has_decoy":false},{"rt":537.2999999970198,"stimulus":"[A] option 1, [L] option 2, [G] neither","key_press":65,"name":"choice","trial_type":"html-keyboard-response","trial_index":219,"time_elapsed":501874,"internal_node_id":"0.0-219.0","subject":"S1C1239","sona":"41955","block":5,"time":"2021-09-18T21:51:30.096Z","response":"1st","certainty":"high","char":"A","transposition":2,"order":["shifted","swapped"],"probe_pitches":[0,1,6,4,7,-1,9,7,11,-1,10,6],"shifted_pitches":[0,1,6,4,7,-1,8,7,11,-1,10,6],"swapped_pitches":[0,1,6,4,7,9,-1,7,11,-1,10,6],"shift_direction":-1,"question_num":191,"has_decoy":false}]