[{"rt":668.4000000059605,"stimulus":"[A] option 1, [L] option 2, [G] neither","key_press":65,"name":"choice","trial_type":"html-keyboard-response","trial_index":10,"time_elapsed":20999,"internal_node_id":"0.0-10.0","subject":"S1C1239","sona":"41955","block":4,"time":"2021-09-18T21:43:04.349Z","response":"1st","certainty":"high","char":"A","transposition":1,"order":["swapped","shifted"],"probe_pitches":[12,7,5,7,5,2,7,0,12,0,7,10],"shifted_pitches":[12,7,5,7,5,2,8,0,12,0,7,10],"swapped_pitches":[12,7,5,7,5,7,2,0,12,0,7,10],"shift_direction":1,"question_num":1,"has_decoy":false},{"rt":2316.5999999940395,"stimulus":"[A] option 1, [L] option 2, [G] neither","key_press":65,"name":"choice","trial_type":"html-keyboard-response","trial_index":21,"time_elapsed":41684,"internal_node_id":"0.0-21.0","subject":"S1C1239","sona":"41955","block":4,"time":"2021-09-18T21:43:04.349Z","response":"1st","certainty":"high","char":"A","transposition":0,"order":["shifted","swapped"],"probe_pitches":[0,3,5,10,3,7,5,3,5,10,5,3],"shifted_pitches":[0,3,5,10,3,7,4,3,5,10,5,3],"swapped_pitches":[0,3,5,10,3,5,7,3,5,10,5,3],"shift_direction":-1,"question_num":11,"has_decoy":false},{"rt":952.6000000089407,"stimulus":"[A] option 1, [L] option 2, [G] neither","key_press":76,"name":"choice","trial_type":"html-keyboard-response","trial_index":32,"time_elapsed":60929,"internal_node_id":"0.0-32.0","subject":"S1C1239","sona":"41955","block":4,"time":"2021-09-18T21:43:04.349Z","response":"2nd","certainty":"high","char":"L","transposition":-3,"order":["swapped","shifted"],"probe_pitches":[3,2,8,3,8,5,7,3,5,9,6,3],"shifted_pitches":[3,2,8,3,8,4,7,3,5,9,6,3],"swapped_pitches":[3,2,8,3,8,7,5,3,5,9,6,3],"shift_direction":-1,"question_num":21,"has_decoy":false},{"rt":951.7000000029802,"stimulus":"[A] option 1, [L] option 2, [G] neither","key_press":76,"name":"choice","trial_type":"html-keyboard-response","trial_index":43,"time_elapsed":80219,"internal_node_id":"0.0-43.0","subject":"S1C1239","sona":"41955","block":4,"time":"2021-09-18T21:43:04.349Z","response":"2nd","certainty":"high","char":"L","transposition":0,"order":["swapped","shifted"],"probe_pitches":[7,9,12,11,6,4,12,9,3,9,8,11],"shifted_pitches":[7,9,12,11,6,5,12,9,3,9,8,11],"swapped_pitches":[7,9,12,11,6,12,4,9,3,9,8,11],"shift_direction":1,"question_num":31,"has_decoy":false},{"rt":1692.0999999940395,"stimulus":"[A] option 1, [L] option 2, [G] neither","key_press":65,"name":"choice","trial_type":"html-keyboard-response","trial_index":54,"time_elapsed":100290,"internal_node_id":"0.0-54.0","subject":"S1C1239","sona":"41955","block":4,"time":"2021-09-18T21:43:04.349Z","response":"1st","certainty":"high","char":"A","transposition":-1,"order":["shifted","swapped"],"probe_pitches":[5,10,13,7,2,4,10,13,1,6,11,8],"shifted_pitches":[5,10,13,7,2,3,10,13,1,6,11,8],"swapped_pitches":[5,10,13,7,2,10,4,13,1,6,11,8],"shift_direction":-1,"question_num":41,"has_decoy":false},{"rt":7270.70000000298,"stimulus":"[A] option 1, [L] option 2, [G] neither","key_press":76,"name":"choice","trial_type":"html-keyboard-response","trial_index":65,"time_elapsed":125909,"internal_node_id":"0.0-65.0","subject":"S1C1239","sona":"41955","block":4,"time":"2021-09-18T21:43:04.349Z","response":"2nd","certainty":"high","char":"L","transposition":-2,"order":["shifted","swapped"],"probe_pitches":[11,5,2,5,4,7,11,2,4,1,9,1],"shifted_pitches":[11,5,2,5,4,7,12,2,4,1,9,1],"swapped_pitches":[11,5,2,5,4,11,7,2,4,1,9,1],"shift_direction":1,"question_num":51,"has_decoy":false},{"rt":10561.89999999106,"stimulus":"[A] option 1, [L] option 2, [G] neither","key_press":65,"name":"choice","trial_type":"html-keyboard-response","trial_index":76,"time_elapsed":155221,"internal_node_id":"0.0-76.0","subject":"S1C1239","sona":"41955","block":4,"time":"2021-09-18T21:43:04.349Z","response":"1st","certainty":"high","char":"A","transposition":-3,"order":["shifted","swapped"],"probe_pitches":[10,5,7,0,2,10,0,2,12,10,2,7],"shifted_pitches":[10,5,7,0,2,10,1,2,12,10,2,7],"swapped_pitches":[10,5,7,0,2,0,10,2,12,10,2,7],"shift_direction":1,"question_num":61,"has_decoy":false},{"rt":35687,"stimulus":"[A] option 1, [L] option 2, [G] neither","key_press":71,"name":"choice","trial_type":"html-keyboard-response","trial_index":87,"time_elapsed":209445,"internal_node_id":"0.0-87.0","subject":"S1C1239","sona":"41955","block":4,"time":"2021-09-18T21:43:04.349Z","response":"neither","certainty":"high","char":"G","transposition":-1,"order":["swapped","shifted"],"probe_pitches":[7,2,5,12,5,2,12,9,5,9,5,12],"shifted_pitches":[7,2,5,12,5,3,12,9,5,9,5,12],"swapped_pitches":[7,2,5,12,5,12,2,9,5,9,5,12],"shift_direction":1,"question_num":71,"has_decoy":false},{"rt":375.20000000298023,"stimulus":"[A] option 1, [L] option 2, [G] neither","key_press":65,"name":"choice","trial_type":"html-keyboard-response","trial_index":98,"time_elapsed":268282,"internal_node_id":"0.0-98.0","subject":"S1C1239","sona":"41955","block":4,"time":"2021-09-18T21:43:04.349Z","response":"1st","certainty":"high","char":"A","transposition":3,"order":["swapped","shifted"],"probe_pitches":[2,5,2,0,7,9,2,5,0,12,9,7],"shifted_pitches":[2,5,2,0,7,9,1,5,0,12,9,7],"swapped_pitches":[2,5,2,0,7,2,9,5,0,12,9,7],"shift_direction":-1,"question_num":81,"has_decoy":false},{"rt":1675.800000011921,"stimulus":"[A] option 1, [L] option 2, [G] neither","key_press":76,"name":"choice","trial_type":"html-keyboard-response","trial_index":109,"time_elapsed":288333,"internal_node_id":"0.0-109.0","subject":"S1C1239","sona":"41955","block":4,"time":"2021-09-18T21:43:04.349Z","response":"2nd","certainty":"high","char":"L","transposition":-2,"order":["swapped","shifted"],"probe_pitches":[3,5,8,5,12,10,0,12,0,10,12,0],"shifted_pitches":[3,5,8,5,12,11,0,12,0,10,12,0],"swapped_pitches":[3,5,8,5,12,0,10,12,0,10,12,0],"shift_direction":1,"question_num":91,"has_decoy":false},{"rt":507,"stimulus":"[A] option 1, [L] option 2, [G] neither","key_press":76,"name":"choice","trial_type":"html-keyboard-response","trial_index":120,"time_elapsed":309094,"internal_node_id":"0.0-120.0","subject":"S1C1239","sona":"41955","block":4,"time":"2021-09-18T21:43:04.349Z","response":"2nd","certainty":"high","char":"L","transposition":-3,"order":["swapped","shifted"],"probe_pitches":[2,0,7,0,7,2,0,7,0,7,9,4],"shifted_pitches":[2,0,7,0,7,1,0,7,0,7,9,4],"swapped_pitches":[2,0,7,0,7,0,2,7,0,7,9,4],"shift_direction":-1,"question_num":101,"has_decoy":false},{"rt":795.6000000089407,"stimulus":"[A] option 1, [L] option 2, [G] neither","key_press":65,"name":"choice","trial_type":"html-keyboard-response","trial_index":131,"time_elapsed":332043,"internal_node_id":"0.0-131.0","subject":"S1C1239","sona":"41955","block":4,"time":"2021-09-18T21:43:04.349Z","response":"1st","certainty":"high","char":"A","transposition":-2,"order":["shifted","swapped"],"probe_pitches":[6,12,6,12,11,5,6,13,10,6,2,6],"shifted_pitches":[6,12,6,12,11,5,7,13,10,6,2,6],"swapped_pitches":[6,12,6,12,11,6,5,13,10,6,2,6],"shift_direction":1,"question_num":111,"has_decoy":false},{"rt":1401.5999999940395,"stimulus":"[A] option 1, [L] option 2, [G] neither","key_press":65,"name":"choice","trial_type":"html-keyboard-response","trial_index":142,"time_elapsed":352009,"internal_node_id":"0.0-142.0","subject":"S1C1239","sona":"41955","block":4,"time":"2021-09-18T21:43:04.349Z","response":"1st","certainty":"high","char":"A","transposition":-1,"order":["shifted","swapped"],"probe_pitches":[12,6,2,8,6,2,11,5,2,12,1,4],"shifted_pitches":[12,6,2,8,6,2,10,5,2,12,1,4],"swapped_pitches":[12,6,2,8,6,11,2,5,2,12,1,4],"shift_direction":-1,"question_num":121,"has_decoy":false},{"rt":2362.0999999940395,"stimulus":"[A] option 1, [L] option 2, [G] neither","key_press":76,"name":"choice","trial_type":"html-keyboard-response","trial_index":153,"time_elapsed":373999,"internal_node_id":"0.0-153.0","subject":"S1C1239","sona":"41955","block":4,"time":"2021-09-18T21:43:04.349Z","response":"2nd","certainty":"high","char":"L","transposition":2,"order":["swapped","shifted"],"probe_pitches":[4,7,9,11,8,5,7,9,13,7,10,7],"shifted_pitches":[4,7,9,11,8,6,7,9,13,7,10,7],"swapped_pitches":[4,7,9,11,8,7,5,9,13,7,10,7],"shift_direction":1,"question_num":131,"has_decoy":false},{"rt":1363,"stimulus":"[A] option 1, [L] option 2, [G] neither","key_press":65,"name":"choice","trial_type":"html-keyboard-response","trial_index":164,"time_elapsed":393890,"internal_node_id":"0.0-164.0","subject":"S1C1239","sona":"41955","block":4,"time":"2021-09-18T21:43:04.349Z","response":"1st","certainty":"high","char":"A","transposition":-3,"order":["shifted","swapped"],"probe_pitches":[12,6,11,4,3,7,9,1,10,9,7,13],"shifted_pitches":[12,6,11,4,3,8,9,1,10,9,7,13],"swapped_pitches":[12,6,11,4,3,9,7,1,10,9,7,13],"shift_direction":1,"question_num":141,"has_decoy":false},{"rt":1591,"stimulus":"[A] option 1, [L] option 2, [G] neither","key_press":76,"name":"choice","trial_type":"html-keyboard-response","trial_index":175,"time_elapsed":414109,"internal_node_id":"0.0-175.0","subject":"S1C1239","sona":"41955","block":4,"time":"2021-09-18T21:43:04.349Z","response":"2nd","certainty":"high","char":"L","transposition":1,"order":["swapped","shifted"],"probe_pitches":[11,5,8,4,8,7,10,5,7,1,4,12],"shifted_pitches":[11,5,8,4,8,7,9,5,7,1,4,12],"swapped_pitches":[11,5,8,4,8,10,7,5,7,1,4,12],"shift_direction":-1,"question_num":151,"has_decoy":false},{"rt":1842.8999999910593,"stimulus":"[A] option 1, [L] option 2, [G] neither","key_press":76,"name":"choice","trial_type":"html-keyboard-response","trial_index":186,"time_elapsed":435110,"internal_node_id":"0.0-186.0","subject":"S1C1239","sona":"41955","block":4,"time":"2021-09-18T21:43:04.349Z","response":"2nd","certainty":"high","char":"L","transposition":3,"order":["swapped","shifted"],"probe_pitches":[5,4,7,6,10,3,12,4,7,6,1,5],"shifted_pitches":[5,4,7,6,10,3,11,4,7,6,1,5],"swapped_pitches":[5,4,7,6,10,12,3,4,7,6,1,5],"shift_direction":-1,"question_num":161,"has_decoy":false},{"rt":3448.5999999940395,"stimulus":"[A] option 1, [L] option 2, [G] neither","key_press":76,"name":"choice","trial_type":"html-keyboard-response","trial_index":197,"time_elapsed":457115,"internal_node_id":"0.0-197.0","subject":"S1C1239","sona":"41955","block":4,"time":"2021-09-18T21:43:04.349Z","response":"2nd","certainty":"high","char":"L","transposition":-1,"order":["shifted","swapped"],"probe_pitches":[8,12,5,8,10,12,8,10,8,3,5,10],"shifted_pitches":[8,12,5,8,10,13,8,10,8,3,5,10],"swapped_pitches":[8,12,5,8,10,8,12,10,8,3,5,10],"shift_direction":1,"question_num":171,"has_decoy":false},{"rt":374.5,"stimulus":"[A] option 1, [L] option 2, [G] neither","key_press":65,"name":"choice","trial_type":"html-keyboard-response","trial_index":208,"time_elapsed":480112,"internal_node_id":"0.0-208.0","subject":"S1C1239","sona":"41955","block":4,"time":"2021-09-18T21:43:04.349Z","response":"1st","certainty":"high","char":"A","transposition":2,"order":["shifted","swapped"],"probe_pitches":[9,7,4,0,7,2,4,9,7,12,4,2],"shifted_pitches":[9,7,4,0,7,1,4,9,7,12,4,2],"swapped_pitches":[9,7,4,0,7,4,2,9,7,12,4,2],"shift_direction":-1,"question_num":181,"has_decoy":false},{"rt":978.8999999910593,"stimulus":"[A] option 1, [L] option 2, [G] neither","key_press":76,"name":"choice","trial_type":"html-keyboard-response","trial_index":219,"time_elapsed":499506,"internal_node_id":"0.0-219.0","subject":"S1C1239","sona":"41955","block":4,"time":"2021-09-18T21:43:04.349Z","response":"2nd","certainty":"high","char":"L","transposition":-2,"order":["shifted","swapped"],"probe_pitches":[12,7,5,7,12,3,7,10,7,5,12,7],"shifted_pitches":[12,7,5,7,12,3,6,10,7,5,12,7],"swapped_pitches":[12,7,5,7,12,7,3,10,7,5,12,7],"shift_direction":-1,"question_num":191,"has_decoy":false}]