[{"rt":1993.5999999940395,"stimulus":"[A] option 1, [L] option 2, [G] neither","key_press":65,"name":"choice","trial_type":"html-keyboard-response","trial_index":10,"time_elapsed":20993,"internal_node_id":"0.0-10.0","subject":"S1C1239","sona":"41955","block":6,"time":"2021-09-18T21:58:35.143Z","response":"1st","certainty":"high","char":"A","transposition":-2,"order":["swapped","shifted"],"probe_pitches":[2,4,9,12,6,4,8,9,1,8,10,3],"shifted_pitches":[2,4,9,12,6,5,8,9,1,8,10,3],"swapped_pitches":[2,4,9,12,6,8,4,9,1,8,10,3],"shift_direction":1,"question_num":1,"has_decoy":false},{"rt":1413.9000000059605,"stimulus":"[A] option 1, [L] option 2, [G] neither","key_press":65,"name":"choice","trial_type":"html-keyboard-response","trial_index":21,"time_elapsed":40733,"internal_node_id":"0.0-21.0","subject":"S1C1239","sona":"41955","block":6,"time":"2021-09-18T21:58:35.143Z","response":"1st","certainty":"high","char":"A","transposition":-3,"order":["shifted","swapped"],"probe_pitches":[6,12,11,4,7,6,9,10,0,7,3,7],"shifted_pitches":[6,12,11,4,7,6,8,10,0,7,3,7],"swapped_pitches":[6,12,11,4,7,9,6,10,0,7,3,7],"shift_direction":-1,"question_num":11,"has_decoy":false},{"rt":1913.7999999970198,"stimulus":"[A] option 1, [L] option 2, [G] neither","key_press":76,"name":"choice","trial_type":"html-keyboard-response","trial_index":32,"time_elapsed":61075,"internal_node_id":"0.0-32.0","subject":"S1C1239","sona":"41955","block":6,"time":"2021-09-18T21:58:35.143Z","response":"2nd","certainty":"high","char":"L","transposition":2,"order":["swapped","shifted"],"probe_pitches":[9,11,7,4,11,9,7,2,4,11,-1,4],"shifted_pitches":[9,11,7,4,11,10,7,2,4,11,-1,4],"swapped_pitches":[9,11,7,4,11,7,9,2,4,11,-1,4],"shift_direction":1,"question_num":21,"has_decoy":false},{"rt":2258.5999999940395,"stimulus":"[A] option 1, [L] option 2, [G] neither","key_press":71,"name":"choice","trial_type":"html-keyboard-response","trial_index":43,"time_elapsed":86680,"internal_node_id":"0.0-43.0","subject":"S1C1239","sona":"41955","block":6,"time":"2021-09-18T21:58:35.143Z","response":"neither","certainty":"high","char":"G","transposition":-3,"order":["shifted","swapped"],"probe_pitches":[7,6,12,4,3,5,9,12,0,7,5,11],"shifted_pitches":[7,6,12,4,3,5,10,12,0,7,5,11],"swapped_pitches":[7,6,12,4,3,9,5,12,0,7,5,11],"shift_direction":1,"question_num":31,"has_decoy":false},{"rt":4163.5,"stimulus":"[A] option 1, [L] option 2, [G] neither","key_press":65,"name":"choice","trial_type":"html-keyboard-response","trial_index":54,"time_elapsed":109213,"internal_node_id":"0.0-54.0","subject":"S1C1239","sona":"41955","block":6,"time":"2021-09-18T21:58:35.143Z","response":"1st","certainty":"high","char":"A","transposition":1,"order":["shifted","swapped"],"probe_pitches":[2,4,11,9,4,2,-1,9,11,-1,9,6],"shifted_pitches":[2,4,11,9,4,2,0,9,11,-1,9,6],"swapped_pitches":[2,4,11,9,4,-1,2,9,11,-1,9,6],"shift_direction":1,"question_num":41,"has_decoy":false},{"rt":2135.5,"stimulus":"[A] option 1, [L] option 2, [G] neither","key_press":65,"name":"choice","trial_type":"html-keyboard-response","trial_index":65,"time_elapsed":129626,"internal_node_id":"0.0-65.0","subject":"S1C1239","sona":"41955","block":6,"time":"2021-09-18T21:58:35.143Z","response":"1st","certainty":"high","char":"A","transposition":-2,"order":["swapped","shifted"],"probe_pitches":[1,6,1,4,9,1,11,4,6,11,6,11],"shifted_pitches":[1,6,1,4,9,0,11,4,6,11,6,11],"swapped_pitches":[1,6,1,4,9,11,1,4,6,11,6,11],"shift_direction":-1,"question_num":51,"has_decoy":false},{"rt":3175.4000000059605,"stimulus":"[A] option 1, [L] option 2, [G] neither","key_press":76,"name":"choice","trial_type":"html-keyboard-response","trial_index":76,"time_elapsed":151406,"internal_node_id":"0.0-76.0","subject":"S1C1239","sona":"41955","block":6,"time":"2021-09-18T21:58:35.143Z","response":"2nd","certainty":"high","char":"L","transposition":0,"order":["swapped","shifted"],"probe_pitches":[4,8,11,8,1,8,-1,11,6,4,8,11],"shifted_pitches":[4,8,11,8,1,8,-2,11,6,4,8,11],"swapped_pitches":[4,8,11,8,1,-1,8,11,6,4,8,11],"shift_direction":-1,"question_num":61,"has_decoy":false},{"rt":1145.4000000059605,"stimulus":"[A] option 1, [L] option 2, [G] neither","key_press":65,"name":"choice","trial_type":"html-keyboard-response","trial_index":87,"time_elapsed":170877,"internal_node_id":"0.0-87.0","subject":"S1C1239","sona":"41955","block":6,"time":"2021-09-18T21:58:35.143Z","response":"1st","certainty":"high","char":"A","transposition":-1,"order":["shifted","swapped"],"probe_pitches":[-1,3,8,11,6,1,11,6,-1,1,11,-1],"shifted_pitches":[-1,3,8,11,6,1,10,6,-1,1,11,-1],"swapped_pitches":[-1,3,8,11,6,11,1,6,-1,1,11,-1],"shift_direction":-1,"question_num":71,"has_decoy":false},{"rt":1126.0999999940395,"stimulus":"[A] option 1, [L] option 2, [G] neither","key_press":65,"name":"choice","trial_type":"html-keyboard-response","trial_index":98,"time_elapsed":190347,"internal_node_id":"0.0-98.0","subject":"S1C1239","sona":"41955","block":6,"time":"2021-09-18T21:58:35.143Z","response":"1st","certainty":"high","char":"A","transposition":-2,"order":["shifted","swapped"],"probe_pitches":[2,3,0,2,4,8,1,10,11,10,12,2],"shifted_pitches":[2,3,0,2,4,7,1,10,11,10,12,2],"swapped_pitches":[2,3,0,2,4,1,8,10,11,10,12,2],"shift_direction":-1,"question_num":81,"has_decoy":false},{"rt":1615.7000000029802,"stimulus":"[A] option 1, [L] option 2, [G] neither","key_press":76,"name":"choice","trial_type":"html-keyboard-response","trial_index":109,"time_elapsed":210297,"internal_node_id":"0.0-109.0","subject":"S1C1239","sona":"41955","block":6,"time":"2021-09-18T21:58:35.143Z","response":"2nd","certainty":"high","char":"L","transposition":1,"order":["swapped","shifted"],"probe_pitches":[10,8,11,3,9,11,5,8,1,7,2,11],"shifted_pitches":[10,8,11,3,9,11,4,8,1,7,2,11],"swapped_pitches":[10,8,11,3,9,5,11,8,1,7,2,11],"shift_direction":-1,"question_num":91,"has_decoy":false},{"rt":590.6999999880791,"stimulus":"[A] option 1, [L] option 2, [G] neither","key_press":65,"name":"choice","trial_type":"html-keyboard-response","trial_index":120,"time_elapsed":229302,"internal_node_id":"0.0-120.0","subject":"S1C1239","sona":"41955","block":6,"time":"2021-09-18T21:58:35.143Z","response":"1st","certainty":"high","char":"A","transposition":0,"order":["swapped","shifted"],"probe_pitches":[10,5,10,3,1,0,10,6,5,4,9,2],"shifted_pitches":[10,5,10,3,1,0,11,6,5,4,9,2],"swapped_pitches":[10,5,10,3,1,10,0,6,5,4,9,2],"shift_direction":1,"question_num":101,"has_decoy":false},{"rt":847.5,"stimulus":"[A] option 1, [L] option 2, [G] neither","key_press":76,"name":"choice","trial_type":"html-keyboard-response","trial_index":131,"time_elapsed":248788,"internal_node_id":"0.0-131.0","subject":"S1C1239","sona":"41955","block":6,"time":"2021-09-18T21:58:35.143Z","response":"2nd","certainty":"high","char":"L","transposition":3,"order":["shifted","swapped"],"probe_pitches":[2,6,11,5,7,4,6,12,2,10,2,0],"shifted_pitches":[2,6,11,5,7,3,6,12,2,10,2,0],"swapped_pitches":[2,6,11,5,7,6,4,12,2,10,2,0],"shift_direction":-1,"question_num":111,"has_decoy":false},{"rt":1131.2000000029802,"stimulus":"[A] option 1, [L] option 2, [G] neither","key_press":76,"name":"choice","trial_type":"html-keyboard-response","trial_index":142,"time_elapsed":268542,"internal_node_id":"0.0-142.0","subject":"S1C1239","sona":"41955","block":6,"time":"2021-09-18T21:58:35.143Z","response":"2nd","certainty":"high","char":"L","transposition":-3,"order":["swapped","shifted"],"probe_pitches":[11,7,4,2,7,4,9,2,-1,11,9,7],"shifted_pitches":[11,7,4,2,7,4,10,2,-1,11,9,7],"swapped_pitches":[11,7,4,2,7,9,4,2,-1,11,9,7],"shift_direction":1,"question_num":121,"has_decoy":false},{"rt":892.6999999880791,"stimulus":"[A] option 1, [L] option 2, [G] neither","key_press":76,"name":"choice","trial_type":"html-keyboard-response","trial_index":153,"time_elapsed":288132,"internal_node_id":"0.0-153.0","subject":"S1C1239","sona":"41955","block":6,"time":"2021-09-18T21:58:35.143Z","response":"2nd","certainty":"high","char":"L","transposition":-2,"order":["shifted","swapped"],"probe_pitches":[11,6,11,9,11,1,-1,9,4,6,1,-1],"shifted_pitches":[11,6,11,9,11,2,-1,9,4,6,1,-1],"swapped_pitches":[11,6,11,9,11,-1,1,9,4,6,1,-1],"shift_direction":1,"question_num":131,"has_decoy":false},{"rt":1412.8999999910593,"stimulus":"[A] option 1, [L] option 2, [G] neither","key_press":76,"name":"choice","trial_type":"html-keyboard-response","trial_index":164,"time_elapsed":312703,"internal_node_id":"0.0-164.0","subject":"S1C1239","sona":"41955","block":6,"time":"2021-09-18T21:58:35.143Z","response":"2nd","certainty":"high","char":"L","transposition":-3,"order":["swapped","shifted"],"probe_pitches":[-1,4,1,4,11,1,8,4,1,-1,6,-1],"shifted_pitches":[-1,4,1,4,11,1,7,4,1,-1,6,-1],"swapped_pitches":[-1,4,1,4,11,8,1,4,1,-1,6,-1],"shift_direction":-1,"question_num":141,"has_decoy":false},{"rt":2631.8999999910593,"stimulus":"[A] option 1, [L] option 2, [G] neither","key_press":71,"name":"choice","trial_type":"html-keyboard-response","trial_index":175,"time_elapsed":333943,"internal_node_id":"0.0-175.0","subject":"S1C1239","sona":"41955","block":6,"time":"2021-09-18T21:58:35.143Z","response":"neither","certainty":"high","char":"G","transposition":-1,"order":["swapped","shifted"],"probe_pitches":[11,12,8,12,3,4,5,1,10,0,3,8],"shifted_pitches":[11,12,8,12,3,4,6,1,10,0,3,8],"swapped_pitches":[11,12,8,12,3,5,4,1,10,0,3,8],"shift_direction":1,"question_num":151,"has_decoy":false},{"rt":1706.3999999910593,"stimulus":"[A] option 1, [L] option 2, [G] neither","key_press":76,"name":"choice","trial_type":"html-keyboard-response","trial_index":186,"time_elapsed":356456,"internal_node_id":"0.0-186.0","subject":"S1C1239","sona":"41955","block":6,"time":"2021-09-18T21:58:35.143Z","response":"2nd","certainty":"high","char":"L","transposition":-1,"order":["shifted","swapped"],"probe_pitches":[0,1,8,12,4,10,3,7,10,3,11,12],"shifted_pitches":[0,1,8,12,4,9,3,7,10,3,11,12],"swapped_pitches":[0,1,8,12,4,3,10,7,10,3,11,12],"shift_direction":-1,"question_num":161,"has_decoy":false},{"rt":813.7000000029802,"stimulus":"[A] option 1, [L] option 2, [G] neither","key_press":65,"name":"choice","trial_type":"html-keyboard-response","trial_index":197,"time_elapsed":378824,"internal_node_id":"0.0-197.0","subject":"S1C1239","sona":"41955","block":6,"time":"2021-09-18T21:58:35.143Z","response":"1st","certainty":"high","char":"A","transposition":-1,"order":["shifted","swapped"],"probe_pitches":[6,8,3,1,-1,3,6,-1,1,3,1,11],"shifted_pitches":[6,8,3,1,-1,2,6,-1,1,3,1,11],"swapped_pitches":[6,8,3,1,-1,6,3,-1,1,3,1,11],"shift_direction":-1,"question_num":171,"has_decoy":false},{"rt":1164.9000000059605,"stimulus":"[A] option 1, [L] option 2, [G] neither","key_press":65,"name":"choice","trial_type":"html-keyboard-response","trial_index":208,"time_elapsed":398475,"internal_node_id":"0.0-208.0","subject":"S1C1239","sona":"41955","block":6,"time":"2021-09-18T21:58:35.143Z","response":"1st","certainty":"high","char":"A","transposition":3,"order":["shifted","swapped"],"probe_pitches":[11,6,2,4,6,4,9,6,4,-1,9,4],"shifted_pitches":[11,6,2,4,6,5,9,6,4,-1,9,4],"swapped_pitches":[11,6,2,4,6,9,4,6,4,-1,9,4],"shift_direction":1,"question_num":181,"has_decoy":false},{"rt":3124.7000000029802,"stimulus":"[A] option 1, [L] option 2, [G] neither","key_press":76,"name":"choice","trial_type":"html-keyboard-response","trial_index":219,"time_elapsed":421125,"internal_node_id":"0.0-219.0","subject":"S1C1239","sona":"41955","block":6,"time":"2021-09-18T21:58:35.143Z","response":"2nd","certainty":"high","char":"L","transposition":2,"order":["swapped","shifted"],"probe_pitches":[11,8,4,5,10,1,9,10,11,3,1,10],"shifted_pitches":[11,8,4,5,10,2,9,10,11,3,1,10],"swapped_pitches":[11,8,4,5,10,9,1,10,11,3,1,10],"shift_direction":1,"question_num":191,"has_decoy":false}]