[{"rt":6486.100000008941,"stimulus":"[A] option 1, [L] option 2, [G] neither","key_press":65,"name":"choice","trial_type":"html-keyboard-response","trial_index":15,"time_elapsed":96970,"internal_node_id":"0.0-15.0","response":"1st","certainty":"high","char":"A","transposition":0,"order":["shifted","swapped"],"probe_pitches":[3,5,0,3,12,5,8,3,10,12,8,3],"shifted_pitches":[3,5,0,3,12,6,8,3,10,12,8,3],"swapped_pitches":[3,5,0,3,12,8,5,3,10,12,8,3],"shift_direction":1,"question_num":1,"has_decoy":false,"subject":"S1C1239","sona":"41955","block":1,"time":"2021-09-18T21:04:13.235Z"},{"rt":3321,"stimulus":"[A] option 1, [L] option 2, [G] neither","key_press":76,"name":"choice","trial_type":"html-keyboard-response","trial_index":26,"time_elapsed":120685,"internal_node_id":"0.0-26.0","response":"2nd","certainty":"high","char":"L","transposition":-1,"order":["swapped","shifted"],"probe_pitches":[0,4,0,2,7,0,9,12,9,7,9,4],"shifted_pitches":[0,4,0,2,7,0,8,12,9,7,9,4],"swapped_pitches":[0,4,0,2,7,9,0,12,9,7,9,4],"shift_direction":-1,"question_num":11,"has_decoy":false,"subject":"S1C1239","sona":"41955","block":1,"time":"2021-09-18T21:04:13.235Z"},{"rt":1038,"stimulus":"[A] option 1, [L] option 2, [G] neither","key_press":65,"name":"choice","trial_type":"html-keyboard-response","trial_index":37,"time_elapsed":141162,"internal_node_id":"0.0-37.0","response":"1st","certainty":"high","char":"A","transposition":2,"order":["swapped","shifted"],"probe_pitches":[7,5,9,12,6,13,11,14,4,14,15,4],"shifted_pitches":[7,5,9,12,6,13,10,14,4,14,15,4],"swapped_pitches":[7,5,9,12,6,11,13,14,4,14,15,4],"shift_direction":-1,"question_num":21,"has_decoy":false,"subject":"S1C1239","sona":"41955","block":1,"time":"2021-09-18T21:04:13.235Z"},{"rt":4459.5,"stimulus":"[A] option 1, [L] option 2, [G] neither","key_press":71,"name":"choice","trial_type":"html-keyboard-response","trial_index":48,"time_elapsed":165252,"internal_node_id":"0.0-48.0","response":"neither","certainty":"high","char":"G","transposition":1,"order":["shifted","swapped"],"probe_pitches":[5,0,3,10,12,7,3,0,5,3,12,10],"shifted_pitches":[5,0,3,10,12,7,2,0,5,3,12,10],"swapped_pitches":[5,0,3,10,12,3,7,0,5,3,12,10],"shift_direction":-1,"question_num":31,"has_decoy":false,"subject":"S1C1239","sona":"41955","block":1,"time":"2021-09-18T21:04:13.235Z"},{"rt":871.5,"stimulus":"[A] option 1, [L] option 2, [G] neither","key_press":65,"name":"choice","trial_type":"html-keyboard-response","trial_index":59,"time_elapsed":185156,"internal_node_id":"0.0-59.0","response":"1st","certainty":"high","char":"A","transposition":-3,"order":["shifted","swapped"],"probe_pitches":[8,11,10,8,14,13,7,11,14,15,10,11],"shifted_pitches":[8,11,10,8,14,12,7,11,14,15,10,11],"swapped_pitches":[8,11,10,8,14,7,13,11,14,15,10,11],"shift_direction":-1,"question_num":41,"has_decoy":false,"subject":"S1C1239","sona":"41955","block":1,"time":"2021-09-18T21:04:13.235Z"},{"rt":442.70000000298023,"stimulus":"[A] option 1, [L] option 2, [G] neither","key_press":76,"name":"choice","trial_type":"html-keyboard-response","trial_index":70,"time_elapsed":205137,"internal_node_id":"0.0-70.0","response":"2nd","certainty":"high","char":"L","transposition":-1,"order":["swapped","shifted"],"probe_pitches":[4,0,2,0,4,12,7,2,12,2,0,9],"shifted_pitches":[4,0,2,0,4,11,7,2,12,2,0,9],"swapped_pitches":[4,0,2,0,4,7,12,2,12,2,0,9],"shift_direction":-1,"question_num":51,"has_decoy":false,"subject":"S1C1239","sona":"41955","block":1,"time":"2021-09-18T21:04:13.235Z"},{"rt":1688.2999999970198,"stimulus":"[A] option 1, [L] option 2, [G] neither","key_press":76,"name":"choice","trial_type":"html-keyboard-response","trial_index":81,"time_elapsed":225702,"internal_node_id":"0.0-81.0","response":"2nd","certainty":"high","char":"L","transposition":-1,"order":["shifted","swapped"],"probe_pitches":[5,7,12,4,5,15,10,5,4,10,14,5],"shifted_pitches":[5,7,12,4,5,15,11,5,4,10,14,5],"swapped_pitches":[5,7,12,4,5,10,15,5,4,10,14,5],"shift_direction":1,"question_num":61,"has_decoy":false,"subject":"S1C1239","sona":"41955","block":1,"time":"2021-09-18T21:04:13.235Z"},{"rt":1151.5,"stimulus":"[A] option 1, [L] option 2, [G] neither","key_press":71,"name":"choice","trial_type":"html-keyboard-response","trial_index":92,"time_elapsed":246655,"internal_node_id":"0.0-92.0","response":"neither","certainty":"high","char":"G","transposition":3,"order":["swapped","shifted"],"probe_pitches":[0,2,7,10,12,5,0,12,0,10,7,10],"shifted_pitches":[0,2,7,10,12,5,1,12,0,10,7,10],"swapped_pitches":[0,2,7,10,12,0,5,12,0,10,7,10],"shift_direction":1,"question_num":71,"has_decoy":false,"subject":"S1C1239","sona":"41955","block":1,"time":"2021-09-18T21:04:13.235Z"},{"rt":2807.9000000059605,"stimulus":"[A] option 1, [L] option 2, [G] neither","key_press":65,"name":"choice","trial_type":"html-keyboard-response","trial_index":103,"time_elapsed":268302,"internal_node_id":"0.0-103.0","response":"1st","certainty":"high","char":"A","transposition":-3,"order":["shifted","swapped"],"probe_pitches":[7,2,0,5,0,9,12,2,0,9,2,9],"shifted_pitches":[7,2,0,5,0,9,13,2,0,9,2,9],"swapped_pitches":[7,2,0,5,0,12,9,2,0,9,2,9],"shift_direction":1,"question_num":81,"has_decoy":false,"subject":"S1C1239","sona":"41955","block":1,"time":"2021-09-18T21:04:13.235Z"},{"rt":448.70000000298023,"stimulus":"[A] option 1, [L] option 2, [G] neither","key_press":76,"name":"choice","trial_type":"html-keyboard-response","trial_index":114,"time_elapsed":289422,"internal_node_id":"0.0-114.0","response":"2nd","certainty":"high","char":"L","transposition":1,"order":["swapped","shifted"],"probe_pitches":[10,12,11,10,14,5,9,14,11,6,9,10],"shifted_pitches":[10,12,11,10,14,5,8,14,11,6,9,10],"swapped_pitches":[10,12,11,10,14,9,5,14,11,6,9,10],"shift_direction":-1,"question_num":91,"has_decoy":false,"subject":"S1C1239","sona":"41955","block":1,"time":"2021-09-18T21:04:13.235Z"},{"rt":1599.5999999940395,"stimulus":"[A] option 1, [L] option 2, [G] neither","key_press":76,"name":"choice","trial_type":"html-keyboard-response","trial_index":125,"time_elapsed":310183,"internal_node_id":"0.0-125.0","response":"2nd","certainty":"high","char":"L","transposition":0,"order":["swapped","shifted"],"probe_pitches":[10,4,9,13,12,4,6,15,3,15,14,13],"shifted_pitches":[10,4,9,13,12,5,6,15,3,15,14,13],"swapped_pitches":[10,4,9,13,12,6,4,15,3,15,14,13],"shift_direction":1,"question_num":101,"has_decoy":false,"subject":"S1C1239","sona":"41955","block":1,"time":"2021-09-18T21:04:13.235Z"},{"rt":2826,"stimulus":"[A] option 1, [L] option 2, [G] neither","key_press":76,"name":"choice","trial_type":"html-keyboard-response","trial_index":136,"time_elapsed":333510,"internal_node_id":"0.0-136.0","response":"2nd","certainty":"high","char":"L","transposition":-2,"order":["shifted","swapped"],"probe_pitches":[7,9,14,9,5,12,6,9,8,9,5,4],"shifted_pitches":[7,9,14,9,5,13,6,9,8,9,5,4],"swapped_pitches":[7,9,14,9,5,6,12,9,8,9,5,4],"shift_direction":1,"question_num":111,"has_decoy":false,"subject":"S1C1239","sona":"41955","block":1,"time":"2021-09-18T21:04:13.235Z"},{"rt":285.20000000298023,"stimulus":"[A] option 1, [L] option 2, [G] neither","key_press":65,"name":"choice","trial_type":"html-keyboard-response","trial_index":147,"time_elapsed":353429,"internal_node_id":"0.0-147.0","response":"1st","certainty":"high","char":"A","transposition":-3,"order":["swapped","shifted"],"probe_pitches":[9,4,10,9,8,13,4,12,13,7,5,4],"shifted_pitches":[9,4,10,9,8,14,4,12,13,7,5,4],"swapped_pitches":[9,4,10,9,8,4,13,12,13,7,5,4],"shift_direction":1,"question_num":121,"has_decoy":false,"subject":"S1C1239","sona":"41955","block":1,"time":"2021-09-18T21:04:13.235Z"},{"rt":3666.2999999970198,"stimulus":"[A] option 1, [L] option 2, [G] neither","key_press":65,"name":"choice","trial_type":"html-keyboard-response","trial_index":158,"time_elapsed":375871,"internal_node_id":"0.0-158.0","response":"1st","certainty":"high","char":"A","transposition":-2,"order":["shifted","swapped"],"probe_pitches":[3,4,7,15,6,5,10,13,14,4,8,15],"shifted_pitches":[3,4,7,15,6,5,9,13,14,4,8,15],"swapped_pitches":[3,4,7,15,6,10,5,13,14,4,8,15],"shift_direction":-1,"question_num":131,"has_decoy":false,"subject":"S1C1239","sona":"41955","block":1,"time":"2021-09-18T21:04:13.235Z"},{"rt":3036.4000000059605,"stimulus":"[A] option 1, [L] option 2, [G] neither","key_press":76,"name":"choice","trial_type":"html-keyboard-response","trial_index":169,"time_elapsed":398760,"internal_node_id":"0.0-169.0","response":"2nd","certainty":"high","char":"L","transposition":-2,"order":["swapped","shifted"],"probe_pitches":[3,7,12,5,10,5,0,3,12,3,10,7],"shifted_pitches":[3,7,12,5,10,6,0,3,12,3,10,7],"swapped_pitches":[3,7,12,5,10,0,5,3,12,3,10,7],"shift_direction":1,"question_num":141,"has_decoy":false,"subject":"S1C1239","sona":"41955","block":1,"time":"2021-09-18T21:04:13.235Z"},{"rt":1355.199999988079,"stimulus":"[A] option 1, [L] option 2, [G] neither","key_press":76,"name":"choice","trial_type":"html-keyboard-response","trial_index":180,"time_elapsed":418620,"internal_node_id":"0.0-180.0","response":"2nd","certainty":"high","char":"L","transposition":-1,"order":["swapped","shifted"],"probe_pitches":[4,3,7,12,9,5,11,13,8,13,7,8],"shifted_pitches":[4,3,7,12,9,6,11,13,8,13,7,8],"swapped_pitches":[4,3,7,12,9,11,5,13,8,13,7,8],"shift_direction":1,"question_num":151,"has_decoy":false,"subject":"S1C1239","sona":"41955","block":1,"time":"2021-09-18T21:04:13.235Z"},{"rt":356.79999999701977,"stimulus":"[A] option 1, [L] option 2, [G] neither","key_press":76,"name":"choice","trial_type":"html-keyboard-response","trial_index":191,"time_elapsed":438450,"internal_node_id":"0.0-191.0","response":"2nd","certainty":"high","char":"L","transposition":-3,"order":["swapped","shifted"],"probe_pitches":[5,0,5,2,5,7,0,5,10,0,10,7],"shifted_pitches":[5,0,5,2,5,6,0,5,10,0,10,7],"swapped_pitches":[5,0,5,2,5,0,7,5,10,0,10,7],"shift_direction":-1,"question_num":161,"has_decoy":false,"subject":"S1C1239","sona":"41955","block":1,"time":"2021-09-18T21:04:13.235Z"},{"rt":321.29999999701977,"stimulus":"[A] option 1, [L] option 2, [G] neither","key_press":65,"name":"choice","trial_type":"html-keyboard-response","trial_index":202,"time_elapsed":458235,"internal_node_id":"0.0-202.0","response":"1st","certainty":"high","char":"A","transposition":2,"order":["shifted","swapped"],"probe_pitches":[9,5,7,12,5,9,12,5,2,12,5,9],"shifted_pitches":[9,5,7,12,5,8,12,5,2,12,5,9],"swapped_pitches":[9,5,7,12,5,12,9,5,2,12,5,9],"shift_direction":-1,"question_num":171,"has_decoy":false,"subject":"S1C1239","sona":"41955","block":1,"time":"2021-09-18T21:04:13.235Z"},{"rt":2106.300000011921,"stimulus":"[A] option 1, [L] option 2, [G] neither","key_press":76,"name":"choice","trial_type":"html-keyboard-response","trial_index":213,"time_elapsed":478591,"internal_node_id":"0.0-213.0","response":"2nd","certainty":"high","char":"L","transposition":3,"order":["shifted","swapped"],"probe_pitches":[6,10,15,14,11,13,8,12,13,12,10,12],"shifted_pitches":[6,10,15,14,11,13,7,12,13,12,10,12],"swapped_pitches":[6,10,15,14,11,8,13,12,13,12,10,12],"shift_direction":-1,"question_num":181,"has_decoy":false,"subject":"S1C1239","sona":"41955","block":1,"time":"2021-09-18T21:04:13.235Z"},{"rt":831.1999999880791,"stimulus":"[A] option 1, [L] option 2, [G] neither","key_press":65,"name":"choice","trial_type":"html-keyboard-response","trial_index":224,"time_elapsed":497865,"internal_node_id":"0.0-224.0","response":"1st","certainty":"high","char":"A","transposition":-2,"order":["shifted","swapped"],"probe_pitches":[12,8,12,10,3,12,5,3,0,3,5,3],"shifted_pitches":[12,8,12,10,3,12,6,3,0,3,5,3],"swapped_pitches":[12,8,12,10,3,5,12,3,0,3,5,3],"shift_direction":1,"question_num":191,"has_decoy":false,"subject":"S1C1239","sona":"41955","block":1,"time":"2021-09-18T21:04:13.235Z"}]