[{"rt":2309.199999988079,"stimulus":"[A] option 1, [L] option 2, [G] neither","key_press":76,"name":"choice","trial_type":"html-keyboard-response","trial_index":10,"time_elapsed":22730,"internal_node_id":"0.0-10.0","subject":"S1C1239","sona":"41955","block":2,"time":"2021-09-18T21:20:08.146Z","response":"2nd","certainty":"high","char":"L","transposition":-2,"order":["shifted","swapped"],"probe_pitches":[9,7,2,5,9,0,-3,9,-3,2,-3,9],"shifted_pitches":[9,7,2,5,9,0,-2,9,-3,2,-3,9],"swapped_pitches":[9,7,2,5,9,-3,0,9,-3,2,-3,9],"shift_direction":1,"question_num":1,"has_decoy":false},{"rt":3257.7999999970198,"stimulus":"[A] option 1, [L] option 2, [G] neither","key_press":76,"name":"choice","trial_type":"html-keyboard-response","trial_index":21,"time_elapsed":45052,"internal_node_id":"0.0-21.0","subject":"S1C1239","sona":"41955","block":2,"time":"2021-09-18T21:20:08.146Z","response":"2nd","certainty":"high","char":"L","transposition":0,"order":["swapped","shifted"],"probe_pitches":[-3,-1,2,4,9,4,2,6,2,9,4,-3],"shifted_pitches":[-3,-1,2,4,9,4,1,6,2,9,4,-3],"swapped_pitches":[-3,-1,2,4,9,2,4,6,2,9,4,-3],"shift_direction":-1,"question_num":11,"has_decoy":false},{"rt":418.8999999910593,"stimulus":"[A] option 1, [L] option 2, [G] neither","key_press":76,"name":"choice","trial_type":"html-keyboard-response","trial_index":32,"time_elapsed":64253,"internal_node_id":"0.0-32.0","subject":"S1C1239","sona":"41955","block":2,"time":"2021-09-18T21:20:08.146Z","response":"2nd","certainty":"high","char":"L","transposition":-2,"order":["shifted","swapped"],"probe_pitches":[7,8,10,5,8,5,10,8,2,3,1,4],"shifted_pitches":[7,8,10,5,8,5,9,8,2,3,1,4],"swapped_pitches":[7,8,10,5,8,10,5,8,2,3,1,4],"shift_direction":-1,"question_num":21,"has_decoy":false},{"rt":2528.5,"stimulus":"[A] option 1, [L] option 2, [G] neither","key_press":65,"name":"choice","trial_type":"html-keyboard-response","trial_index":43,"time_elapsed":85162,"internal_node_id":"0.0-43.0","subject":"S1C1239","sona":"41955","block":2,"time":"2021-09-18T21:20:08.146Z","response":"1st","certainty":"high","char":"A","transposition":1,"order":["swapped","shifted"],"probe_pitches":[4,2,0,4,7,4,0,2,7,-3,9,-3],"shifted_pitches":[4,2,0,4,7,5,0,2,7,-3,9,-3],"swapped_pitches":[4,2,0,4,7,0,4,2,7,-3,9,-3],"shift_direction":1,"question_num":31,"has_decoy":false},{"rt":498.8999999910593,"stimulus":"[A] option 1, [L] option 2, [G] neither","key_press":65,"name":"choice","trial_type":"html-keyboard-response","trial_index":54,"time_elapsed":104063,"internal_node_id":"0.0-54.0","subject":"S1C1239","sona":"41955","block":2,"time":"2021-09-18T21:20:08.146Z","response":"1st","certainty":"high","char":"A","transposition":-1,"order":["swapped","shifted"],"probe_pitches":[-2,4,5,1,8,2,9,10,2,10,-1,9],"shifted_pitches":[-2,4,5,1,8,3,9,10,2,10,-1,9],"swapped_pitches":[-2,4,5,1,8,9,2,10,2,10,-1,9],"shift_direction":1,"question_num":41,"has_decoy":false},{"rt":639,"stimulus":"[A] option 1, [L] option 2, [G] neither","key_press":76,"name":"choice","trial_type":"html-keyboard-response","trial_index":65,"time_elapsed":122966,"internal_node_id":"0.0-65.0","subject":"S1C1239","sona":"41955","block":2,"time":"2021-09-18T21:20:08.146Z","response":"2nd","certainty":"high","char":"L","transposition":-2,"order":["shifted","swapped"],"probe_pitches":[4,9,7,9,4,-1,2,9,-1,2,-1,-3],"shifted_pitches":[4,9,7,9,4,-2,2,9,-1,2,-1,-3],"swapped_pitches":[4,9,7,9,4,2,-1,9,-1,2,-1,-3],"shift_direction":-1,"question_num":51,"has_decoy":false},{"rt":668.7999999970198,"stimulus":"[A] option 1, [L] option 2, [G] neither","key_press":65,"name":"choice","trial_type":"html-keyboard-response","trial_index":76,"time_elapsed":142043,"internal_node_id":"0.0-76.0","subject":"S1C1239","sona":"41955","block":2,"time":"2021-09-18T21:20:08.146Z","response":"1st","certainty":"high","char":"A","transposition":0,"order":["shifted","swapped"],"probe_pitches":[9,8,9,3,1,5,8,1,3,5,-2,10],"shifted_pitches":[9,8,9,3,1,6,8,1,3,5,-2,10],"swapped_pitches":[9,8,9,3,1,8,5,1,3,5,-2,10],"shift_direction":1,"question_num":61,"has_decoy":false},{"rt":927.6999999880791,"stimulus":"[A] option 1, [L] option 2, [G] neither","key_press":65,"name":"choice","trial_type":"html-keyboard-response","trial_index":87,"time_elapsed":162822,"internal_node_id":"0.0-87.0","subject":"S1C1239","sona":"41955","block":2,"time":"2021-09-18T21:20:08.146Z","response":"1st","certainty":"high","char":"A","transposition":3,"order":["shifted","swapped"],"probe_pitches":[5,9,2,0,5,9,2,0,-3,5,7,2],"shifted_pitches":[5,9,2,0,5,8,2,0,-3,5,7,2],"swapped_pitches":[5,9,2,0,5,2,9,0,-3,5,7,2],"shift_direction":-1,"question_num":71,"has_decoy":false},{"rt":11665,"stimulus":"[A] option 1, [L] option 2, [G] neither","key_press":76,"name":"choice","trial_type":"html-keyboard-response","trial_index":98,"time_elapsed":193149,"internal_node_id":"0.0-98.0","subject":"S1C1239","sona":"41955","block":2,"time":"2021-09-18T21:20:08.146Z","response":"2nd","certainty":"high","char":"L","transposition":-3,"order":["swapped","shifted"],"probe_pitches":[-1,-3,4,6,9,1,-3,6,4,9,-1,-3],"shifted_pitches":[-1,-3,4,6,9,1,-2,6,4,9,-1,-3],"swapped_pitches":[-1,-3,4,6,9,-3,1,6,4,9,-1,-3],"shift_direction":1,"question_num":81,"has_decoy":false},{"rt":3140,"stimulus":"[A] option 1, [L] option 2, [G] neither","key_press":76,"name":"choice","trial_type":"html-keyboard-response","trial_index":109,"time_elapsed":216055,"internal_node_id":"0.0-109.0","subject":"S1C1239","sona":"41955","block":2,"time":"2021-09-18T21:20:08.146Z","response":"2nd","certainty":"high","char":"L","transposition":-1,"order":["swapped","shifted"],"probe_pitches":[2,6,4,2,9,2,6,9,2,9,2,-1],"shifted_pitches":[2,6,4,2,9,3,6,9,2,9,2,-1],"swapped_pitches":[2,6,4,2,9,6,2,9,2,9,2,-1],"shift_direction":1,"question_num":91,"has_decoy":false},{"rt":674.7999999970198,"stimulus":"[A] option 1, [L] option 2, [G] neither","key_press":76,"name":"choice","trial_type":"html-keyboard-response","trial_index":120,"time_elapsed":235480,"internal_node_id":"0.0-120.0","subject":"S1C1239","sona":"41955","block":2,"time":"2021-09-18T21:20:08.146Z","response":"2nd","certainty":"high","char":"L","transposition":-3,"order":["swapped","shifted"],"probe_pitches":[-3,-1,-3,2,-3,7,4,2,7,-3,7,4],"shifted_pitches":[-3,-1,-3,2,-3,8,4,2,7,-3,7,4],"swapped_pitches":[-3,-1,-3,2,-3,4,7,2,7,-3,7,4],"shift_direction":1,"question_num":101,"has_decoy":false},{"rt":1161,"stimulus":"[A] option 1, [L] option 2, [G] neither","key_press":76,"name":"choice","trial_type":"html-keyboard-response","trial_index":131,"time_elapsed":255505,"internal_node_id":"0.0-131.0","subject":"S1C1239","sona":"41955","block":2,"time":"2021-09-18T21:20:08.146Z","response":"2nd","certainty":"high","char":"L","transposition":1,"order":["swapped","shifted"],"probe_pitches":[0,4,7,0,-1,6,10,4,3,7,3,9],"shifted_pitches":[0,4,7,0,-1,5,10,4,3,7,3,9],"swapped_pitches":[0,4,7,0,-1,10,6,4,3,7,3,9],"shift_direction":-1,"question_num":111,"has_decoy":false},{"rt":1350.5,"stimulus":"[A] option 1, [L] option 2, [G] neither","key_press":76,"name":"choice","trial_type":"html-keyboard-response","trial_index":142,"time_elapsed":275635,"internal_node_id":"0.0-142.0","subject":"S1C1239","sona":"41955","block":2,"time":"2021-09-18T21:20:08.146Z","response":"2nd","certainty":"high","char":"L","transposition":-1,"order":["shifted","swapped"],"probe_pitches":[0,-3,2,-3,2,4,7,-3,7,9,2,4],"shifted_pitches":[0,-3,2,-3,2,4,6,-3,7,9,2,4],"swapped_pitches":[0,-3,2,-3,2,7,4,-3,7,9,2,4],"shift_direction":-1,"question_num":121,"has_decoy":false},{"rt":2071.2000000029802,"stimulus":"[A] option 1, [L] option 2, [G] neither","key_press":65,"name":"choice","trial_type":"html-keyboard-response","trial_index":153,"time_elapsed":296696,"internal_node_id":"0.0-153.0","subject":"S1C1239","sona":"41955","block":2,"time":"2021-09-18T21:20:08.146Z","response":"1st","certainty":"high","char":"A","transposition":-3,"order":["swapped","shifted"],"probe_pitches":[7,6,-1,5,9,3,2,4,5,9,7,8],"shifted_pitches":[7,6,-1,5,9,3,1,4,5,9,7,8],"swapped_pitches":[7,6,-1,5,9,2,3,4,5,9,7,8],"shift_direction":-1,"question_num":131,"has_decoy":false},{"rt":886.4000000059605,"stimulus":"[A] option 1, [L] option 2, [G] neither","key_press":71,"name":"choice","trial_type":"html-keyboard-response","trial_index":164,"time_elapsed":315940,"internal_node_id":"0.0-164.0","subject":"S1C1239","sona":"41955","block":2,"time":"2021-09-18T21:20:08.146Z","response":"neither","certainty":"high","char":"G","transposition":-1,"order":["swapped","shifted"],"probe_pitches":[2,8,1,-2,5,-1,-2,10,6,9,-2,2],"shifted_pitches":[2,8,1,-2,5,0,-2,10,6,9,-2,2],"swapped_pitches":[2,8,1,-2,5,-2,-1,10,6,9,-2,2],"shift_direction":1,"question_num":141,"has_decoy":false},{"rt":892,"stimulus":"[A] option 1, [L] option 2, [G] neither","key_press":76,"name":"choice","trial_type":"html-keyboard-response","trial_index":175,"time_elapsed":337555,"internal_node_id":"0.0-175.0","subject":"S1C1239","sona":"41955","block":2,"time":"2021-09-18T21:20:08.146Z","response":"2nd","certainty":"high","char":"L","transposition":2,"order":["shifted","swapped"],"probe_pitches":[6,5,4,6,8,1,6,-1,3,5,6,4],"shifted_pitches":[6,5,4,6,8,2,6,-1,3,5,6,4],"swapped_pitches":[6,5,4,6,8,6,1,-1,3,5,6,4],"shift_direction":1,"question_num":151,"has_decoy":false},{"rt":4842.300000011921,"stimulus":"[A] option 1, [L] option 2, [G] neither","key_press":71,"name":"choice","trial_type":"html-keyboard-response","trial_index":186,"time_elapsed":362936,"internal_node_id":"0.0-186.0","subject":"S1C1239","sona":"41955","block":2,"time":"2021-09-18T21:20:08.146Z","response":"neither","certainty":"high","char":"G","transposition":2,"order":["shifted","swapped"],"probe_pitches":[6,4,-3,-1,4,-1,-3,9,1,6,4,-1],"shifted_pitches":[6,4,-3,-1,4,-1,-4,9,1,6,4,-1],"swapped_pitches":[6,4,-3,-1,4,-3,-1,9,1,6,4,-1],"shift_direction":-1,"question_num":161,"has_decoy":false},{"rt":2007.4000000059605,"stimulus":"[A] option 1, [L] option 2, [G] neither","key_press":76,"name":"choice","trial_type":"html-keyboard-response","trial_index":197,"time_elapsed":383982,"internal_node_id":"0.0-197.0","subject":"S1C1239","sona":"41955","block":2,"time":"2021-09-18T21:20:08.146Z","response":"2nd","certainty":"high","char":"L","transposition":-2,"order":["shifted","swapped"],"probe_pitches":[0,-2,3,-2,3,5,8,1,10,0,3,-1],"shifted_pitches":[0,-2,3,-2,3,5,7,1,10,0,3,-1],"swapped_pitches":[0,-2,3,-2,3,8,5,1,10,0,3,-1],"shift_direction":-1,"question_num":171,"has_decoy":false},{"rt":1632.800000011921,"stimulus":"[A] option 1, [L] option 2, [G] neither","key_press":65,"name":"choice","trial_type":"html-keyboard-response","trial_index":208,"time_elapsed":405056,"internal_node_id":"0.0-208.0","subject":"S1C1239","sona":"41955","block":2,"time":"2021-09-18T21:20:08.146Z","response":"1st","certainty":"high","char":"A","transposition":3,"order":["shifted","swapped"],"probe_pitches":[2,3,-2,3,1,-2,5,8,-1,-2,7,9],"shifted_pitches":[2,3,-2,3,1,-2,4,8,-1,-2,7,9],"swapped_pitches":[2,3,-2,3,1,5,-2,8,-1,-2,7,9],"shift_direction":-1,"question_num":181,"has_decoy":false},{"rt":3733.3999999910593,"stimulus":"[A] option 1, [L] option 2, [G] neither","key_press":76,"name":"choice","trial_type":"html-keyboard-response","trial_index":219,"time_elapsed":427258,"internal_node_id":"0.0-219.0","subject":"S1C1239","sona":"41955","block":2,"time":"2021-09-18T21:20:08.146Z","response":"2nd","certainty":"high","char":"L","transposition":-3,"order":["swapped","shifted"],"probe_pitches":[10,9,6,0,4,0,7,1,5,0,2,-1],"shifted_pitches":[10,9,6,0,4,0,8,1,5,0,2,-1],"swapped_pitches":[10,9,6,0,4,7,0,1,5,0,2,-1],"shift_direction":1,"question_num":191,"has_decoy":false}]