[{"rt":4516.699999928474,"stimulus":"[A] option 1, [L] option 2, [G] neither","key_press":65,"name":"choice","trial_type":"html-keyboard-response","trial_index":15,"time_elapsed":117323,"internal_node_id":"0.0-15.0","response":"1st","certainty":"high","char":"A","transposition":-3,"order":["shifted","swapped"],"probe_pitches":[2,-1,-3,4,2,9,4,2,9,6,2,-3,6,2,9,4],"shifted_pitches":[2,-1,-3,4,2,9,4,3,9,6,2,-3,6,2,9,4],"swapped_pitches":[2,-1,-3,4,2,9,4,9,2,6,2,-3,6,2,9,4],"shift_direction":1,"question_num":1,"has_decoy":false,"subject":"S1C1613","sona":"41884","block":1,"time":"2021-09-15T18:51:19.219Z"},{"rt":2347,"stimulus":"[A] option 1, [L] option 2, [G] neither","key_press":65,"name":"choice","trial_type":"html-keyboard-response","trial_index":26,"time_elapsed":143828,"internal_node_id":"0.0-26.0","response":"1st","certainty":"high","char":"A","transposition":-3,"order":["shifted","swapped"],"probe_pitches":[9,4,1,4,6,4,-3,6,-1,-3,4,-3,-1,4,9,4],"shifted_pitches":[9,4,1,4,6,4,-3,7,-1,-3,4,-3,-1,4,9,4],"swapped_pitches":[9,4,1,4,6,4,-3,-1,6,-3,4,-3,-1,4,9,4],"shift_direction":1,"question_num":11,"has_decoy":false,"subject":"S1C1613","sona":"41884","block":1,"time":"2021-09-15T18:51:19.219Z"},{"rt":3480.1999999284744,"stimulus":"[A] option 1, [L] option 2, [G] neither","key_press":76,"name":"choice","trial_type":"html-keyboard-response","trial_index":37,"time_elapsed":172057,"internal_node_id":"0.0-37.0","response":"2nd","certainty":"high","char":"L","transposition":0,"order":["shifted","swapped"],"probe_pitches":[10,5,-1,3,10,2,0,7,9,6,-1,10,6,7,-1,4],"shifted_pitches":[10,5,-1,3,10,2,0,7,8,6,-1,10,6,7,-1,4],"swapped_pitches":[10,5,-1,3,10,2,0,9,7,6,-1,10,6,7,-1,4],"shift_direction":-1,"question_num":21,"has_decoy":false,"subject":"S1C1613","sona":"41884","block":1,"time":"2021-09-15T18:51:19.219Z"},{"rt":1045.2000000476837,"stimulus":"[A] option 1, [L] option 2, [G] neither","key_press":65,"name":"choice","trial_type":"html-keyboard-response","trial_index":48,"time_elapsed":196117,"internal_node_id":"0.0-48.0","response":"1st","certainty":"high","char":"A","transposition":-1,"order":["shifted","swapped"],"probe_pitches":[9,4,7,4,-1,-3,7,-3,2,-1,-3,9,2,-1,4,-3],"shifted_pitches":[9,4,7,4,-1,-3,7,-3,1,-1,-3,9,2,-1,4,-3],"swapped_pitches":[9,4,7,4,-1,-3,7,2,-3,-1,-3,9,2,-1,4,-3],"shift_direction":-1,"question_num":31,"has_decoy":false,"subject":"S1C1613","sona":"41884","block":1,"time":"2021-09-15T18:51:19.219Z"},{"rt":2931.5,"stimulus":"[A] option 1, [L] option 2, [G] neither","key_press":71,"name":"choice","trial_type":"html-keyboard-response","trial_index":59,"time_elapsed":222168,"internal_node_id":"0.0-59.0","response":"neither","certainty":"high","char":"G","transposition":-2,"order":["swapped","shifted"],"probe_pitches":[-1,4,-1,4,1,9,1,-1,9,-3,6,4,6,9,4,-3],"shifted_pitches":[-1,4,-1,4,1,9,1,-1,8,-3,6,4,6,9,4,-3],"swapped_pitches":[-1,4,-1,4,1,9,1,9,-1,-3,6,4,6,9,4,-3],"shift_direction":-1,"question_num":41,"has_decoy":false,"subject":"S1C1613","sona":"41884","block":1,"time":"2021-09-15T18:51:19.219Z"},{"rt":776.6999999284744,"stimulus":"[A] option 1, [L] option 2, [G] neither","key_press":76,"name":"choice","trial_type":"html-keyboard-response","trial_index":70,"time_elapsed":246681,"internal_node_id":"0.0-70.0","response":"2nd","certainty":"high","char":"L","transposition":3,"order":["swapped","shifted"],"probe_pitches":[-1,2,9,2,9,4,6,4,-3,6,-1,2,-3,9,-1,-3],"shifted_pitches":[-1,2,9,2,9,4,6,3,-3,6,-1,2,-3,9,-1,-3],"swapped_pitches":[-1,2,9,2,9,4,6,-3,4,6,-1,2,-3,9,-1,-3],"shift_direction":-1,"question_num":51,"has_decoy":false,"subject":"S1C1613","sona":"41884","block":1,"time":"2021-09-15T18:51:19.219Z"},{"rt":1587.5,"stimulus":"[A] option 1, [L] option 2, [G] neither","key_press":65,"name":"choice","trial_type":"html-keyboard-response","trial_index":81,"time_elapsed":271797,"internal_node_id":"0.0-81.0","response":"1st","certainty":"high","char":"A","transposition":-2,"order":["shifted","swapped"],"probe_pitches":[5,0,-3,0,5,-3,2,9,-3,2,9,-3,7,5,2,5],"shifted_pitches":[5,0,-3,0,5,-3,2,9,-2,2,9,-3,7,5,2,5],"swapped_pitches":[5,0,-3,0,5,-3,2,-3,9,2,9,-3,7,5,2,5],"shift_direction":1,"question_num":61,"has_decoy":false,"subject":"S1C1613","sona":"41884","block":1,"time":"2021-09-15T18:51:19.219Z"},{"rt":4089.399999976158,"stimulus":"[A] option 1, [L] option 2, [G] neither","key_press":65,"name":"choice","trial_type":"html-keyboard-response","trial_index":92,"time_elapsed":298421,"internal_node_id":"0.0-92.0","response":"1st","certainty":"high","char":"A","transposition":-1,"order":["shifted","swapped"],"probe_pitches":[10,11,7,8,6,-1,9,6,2,1,4,7,-1,10,0,10],"shifted_pitches":[10,11,7,8,6,-1,9,5,2,1,4,7,-1,10,0,10],"swapped_pitches":[10,11,7,8,6,-1,9,2,6,1,4,7,-1,10,0,10],"shift_direction":-1,"question_num":71,"has_decoy":false,"subject":"S1C1613","sona":"41884","block":1,"time":"2021-09-15T18:51:19.219Z"},{"rt":2279.0999999046326,"stimulus":"[A] option 1, [L] option 2, [G] neither","key_press":76,"name":"choice","trial_type":"html-keyboard-response","trial_index":103,"time_elapsed":324315,"internal_node_id":"0.0-103.0","response":"2nd","certainty":"high","char":"L","transposition":-1,"order":["swapped","shifted"],"probe_pitches":[-1,4,7,11,3,5,10,-1,8,10,1,7,2,0,5,-1],"shifted_pitches":[-1,4,7,11,3,5,10,-1,9,10,1,7,2,0,5,-1],"swapped_pitches":[-1,4,7,11,3,5,10,8,-1,10,1,7,2,0,5,-1],"shift_direction":1,"question_num":81,"has_decoy":false,"subject":"S1C1613","sona":"41884","block":1,"time":"2021-09-15T18:51:19.219Z"},{"rt":712.8999999761581,"stimulus":"[A] option 1, [L] option 2, [G] neither","key_press":65,"name":"choice","trial_type":"html-keyboard-response","trial_index":114,"time_elapsed":351644,"internal_node_id":"0.0-114.0","response":"1st","certainty":"high","char":"A","transposition":-3,"order":["shifted","swapped"],"probe_pitches":[7,4,11,8,10,1,-1,11,2,0,7,8,2,6,-1,9],"shifted_pitches":[7,4,11,8,10,1,-1,11,3,0,7,8,2,6,-1,9],"swapped_pitches":[7,4,11,8,10,1,-1,2,11,0,7,8,2,6,-1,9],"shift_direction":1,"question_num":91,"has_decoy":false,"subject":"S1C1613","sona":"41884","block":1,"time":"2021-09-15T18:51:19.219Z"},{"rt":443.8000000715256,"stimulus":"[A] option 1, [L] option 2, [G] neither","key_press":76,"name":"choice","trial_type":"html-keyboard-response","trial_index":125,"time_elapsed":375619,"internal_node_id":"0.0-125.0","response":"2nd","certainty":"high","char":"L","transposition":0,"order":["swapped","shifted"],"probe_pitches":[5,7,5,-3,0,9,0,7,2,0,-3,0,-3,5,2,5],"shifted_pitches":[5,7,5,-3,0,9,0,8,2,0,-3,0,-3,5,2,5],"swapped_pitches":[5,7,5,-3,0,9,0,2,7,0,-3,0,-3,5,2,5],"shift_direction":1,"question_num":101,"has_decoy":false,"subject":"S1C1613","sona":"41884","block":1,"time":"2021-09-15T18:51:19.219Z"},{"rt":1851.4000000953674,"stimulus":"[A] option 1, [L] option 2, [G] neither","key_press":65,"name":"choice","trial_type":"html-keyboard-response","trial_index":136,"time_elapsed":401069,"internal_node_id":"0.0-136.0","response":"1st","certainty":"high","char":"A","transposition":-3,"order":["shifted","swapped"],"probe_pitches":[2,-1,6,1,4,6,9,-1,8,3,2,8,5,8,6,10],"shifted_pitches":[2,-1,6,1,4,6,9,-1,7,3,2,8,5,8,6,10],"swapped_pitches":[2,-1,6,1,4,6,9,8,-1,3,2,8,5,8,6,10],"shift_direction":-1,"question_num":111,"has_decoy":false,"subject":"S1C1613","sona":"41884","block":1,"time":"2021-09-15T18:51:19.219Z"},{"rt":3805,"stimulus":"[A] option 1, [L] option 2, [G] neither","key_press":71,"name":"choice","trial_type":"html-keyboard-response","trial_index":147,"time_elapsed":428322,"internal_node_id":"0.0-147.0","response":"neither","certainty":"high","char":"G","transposition":2,"order":["swapped","shifted"],"probe_pitches":[2,4,-1,2,-1,1,7,5,1,10,5,8,1,4,3,2],"shifted_pitches":[2,4,-1,2,-1,1,7,6,1,10,5,8,1,4,3,2],"swapped_pitches":[2,4,-1,2,-1,1,7,1,5,10,5,8,1,4,3,2],"shift_direction":1,"question_num":121,"has_decoy":false,"subject":"S1C1613","sona":"41884","block":1,"time":"2021-09-15T18:51:19.219Z"},{"rt":787.5,"stimulus":"[A] option 1, [L] option 2, [G] neither","key_press":65,"name":"choice","trial_type":"html-keyboard-response","trial_index":158,"time_elapsed":453294,"internal_node_id":"0.0-158.0","response":"1st","certainty":"high","char":"A","transposition":1,"order":["shifted","swapped"],"probe_pitches":[4,0,4,7,2,-3,4,2,9,7,-3,0,9,2,7,9],"shifted_pitches":[4,0,4,7,2,-3,4,1,9,7,-3,0,9,2,7,9],"swapped_pitches":[4,0,4,7,2,-3,4,9,2,7,-3,0,9,2,7,9],"shift_direction":-1,"question_num":131,"has_decoy":false,"subject":"S1C1613","sona":"41884","block":1,"time":"2021-09-15T18:51:19.219Z"},{"rt":2287.600000023842,"stimulus":"[A] option 1, [L] option 2, [G] neither","key_press":76,"name":"choice","trial_type":"html-keyboard-response","trial_index":169,"time_elapsed":480685,"internal_node_id":"0.0-169.0","response":"2nd","certainty":"high","char":"L","transposition":-2,"order":["swapped","shifted"],"probe_pitches":[9,7,10,5,-1,6,3,5,-1,0,11,6,7,5,1,9],"shifted_pitches":[9,7,10,5,-1,6,3,4,-1,0,11,6,7,5,1,9],"swapped_pitches":[9,7,10,5,-1,6,3,-1,5,0,11,6,7,5,1,9],"shift_direction":-1,"question_num":141,"has_decoy":false,"subject":"S1C1613","sona":"41884","block":1,"time":"2021-09-15T18:51:19.219Z"},{"rt":692.7000000476837,"stimulus":"[A] option 1, [L] option 2, [G] neither","key_press":76,"name":"choice","trial_type":"html-keyboard-response","trial_index":180,"time_elapsed":506556,"internal_node_id":"0.0-180.0","response":"2nd","certainty":"high","char":"L","transposition":-1,"order":["swapped","shifted"],"probe_pitches":[-1,4,2,-3,2,4,2,4,9,2,-3,9,7,9,-3,7],"shifted_pitches":[-1,4,2,-3,2,4,2,4,8,2,-3,9,7,9,-3,7],"swapped_pitches":[-1,4,2,-3,2,4,2,9,4,2,-3,9,7,9,-3,7],"shift_direction":-1,"question_num":151,"has_decoy":false,"subject":"S1C1613","sona":"41884","block":1,"time":"2021-09-15T18:51:19.219Z"},{"rt":4463.899999976158,"stimulus":"[A] option 1, [L] option 2, [G] neither","key_press":65,"name":"choice","trial_type":"html-keyboard-response","trial_index":191,"time_elapsed":533046,"internal_node_id":"0.0-191.0","response":"1st","certainty":"high","char":"A","transposition":1,"order":["shifted","swapped"],"probe_pitches":[8,5,-1,6,7,10,8,3,-1,0,8,9,10,11,3,10],"shifted_pitches":[8,5,-1,6,7,10,8,2,-1,0,8,9,10,11,3,10],"swapped_pitches":[8,5,-1,6,7,10,8,-1,3,0,8,9,10,11,3,10],"shift_direction":-1,"question_num":161,"has_decoy":false,"subject":"S1C1613","sona":"41884","block":1,"time":"2021-09-15T18:51:19.219Z"},{"rt":467.39999997615814,"stimulus":"[A] option 1, [L] option 2, [G] neither","key_press":76,"name":"choice","trial_type":"html-keyboard-response","trial_index":202,"time_elapsed":557123,"internal_node_id":"0.0-202.0","response":"2nd","certainty":"high","char":"L","transposition":2,"order":["swapped","shifted"],"probe_pitches":[2,-3,0,2,9,0,9,4,7,2,-3,9,2,0,7,9],"shifted_pitches":[2,-3,0,2,9,0,9,4,8,2,-3,9,2,0,7,9],"swapped_pitches":[2,-3,0,2,9,0,9,7,4,2,-3,9,2,0,7,9],"shift_direction":1,"question_num":171,"has_decoy":false,"subject":"S1C1613","sona":"41884","block":1,"time":"2021-09-15T18:51:19.219Z"},{"rt":4832.5,"stimulus":"[A] option 1, [L] option 2, [G] neither","key_press":65,"name":"choice","trial_type":"html-keyboard-response","trial_index":213,"time_elapsed":584932,"internal_node_id":"0.0-213.0","response":"1st","certainty":"high","char":"A","transposition":-2,"order":["swapped","shifted"],"probe_pitches":[4,7,11,4,-1,3,5,0,9,11,2,4,5,0,9,2],"shifted_pitches":[4,7,11,4,-1,3,5,0,10,11,2,4,5,0,9,2],"swapped_pitches":[4,7,11,4,-1,3,5,9,0,11,2,4,5,0,9,2],"shift_direction":1,"question_num":181,"has_decoy":false,"subject":"S1C1613","sona":"41884","block":1,"time":"2021-09-15T18:51:19.219Z"},{"rt":3129.1999999284744,"stimulus":"[A] option 1, [L] option 2, [G] neither","key_press":65,"name":"choice","trial_type":"html-keyboard-response","trial_index":224,"time_elapsed":611212,"internal_node_id":"0.0-224.0","response":"1st","certainty":"high","char":"A","transposition":3,"order":["swapped","shifted"],"probe_pitches":[7,11,4,5,4,7,9,0,7,8,11,7,6,10,11,5],"shifted_pitches":[7,11,4,5,4,7,9,1,7,8,11,7,6,10,11,5],"swapped_pitches":[7,11,4,5,4,7,9,7,0,8,11,7,6,10,11,5],"shift_direction":1,"question_num":191,"has_decoy":false,"subject":"S1C1613","sona":"41884","block":1,"time":"2021-09-15T18:51:19.219Z"}]