[{"rt":3221.7000000476837,"stimulus":"[A] option 1, [L] option 2, [G] neither","key_press":65,"name":"choice","trial_type":"html-keyboard-response","trial_index":10,"time_elapsed":28445,"internal_node_id":"0.0-10.0","subject":"S1C1613","sona":"41884","block":3,"time":"2021-09-15T19:12:55.048Z","response":"1st","certainty":"high","char":"A","transposition":0,"order":["shifted","swapped"],"probe_pitches":[7,12,5,3,10,0,10,5,3,12,5,7,5,12,5,3],"shifted_pitches":[7,12,5,3,10,0,10,6,3,12,5,7,5,12,5,3],"swapped_pitches":[7,12,5,3,10,0,10,3,5,12,5,7,5,12,5,3],"shift_direction":1,"question_num":1,"has_decoy":false},{"rt":1755.6999999284744,"stimulus":"[A] option 1, [L] option 2, [G] neither","key_press":76,"name":"choice","trial_type":"html-keyboard-response","trial_index":21,"time_elapsed":54136,"internal_node_id":"0.0-21.0","subject":"S1C1613","sona":"41884","block":3,"time":"2021-09-15T19:12:55.048Z","response":"2nd","certainty":"high","char":"L","transposition":-1,"order":["shifted","swapped"],"probe_pitches":[9,12,7,9,2,12,9,4,7,2,7,9,0,7,4,0],"shifted_pitches":[9,12,7,9,2,12,9,5,7,2,7,9,0,7,4,0],"swapped_pitches":[9,12,7,9,2,12,9,7,4,2,7,9,0,7,4,0],"shift_direction":1,"question_num":11,"has_decoy":false},{"rt":3587.2000000476837,"stimulus":"[A] option 1, [L] option 2, [G] neither","key_press":76,"name":"choice","trial_type":"html-keyboard-response","trial_index":32,"time_elapsed":80695,"internal_node_id":"0.0-32.0","subject":"S1C1613","sona":"41884","block":3,"time":"2021-09-15T19:12:55.048Z","response":"2nd","certainty":"high","char":"L","transposition":-3,"order":["swapped","shifted"],"probe_pitches":[1,5,8,6,1,-3,3,5,0,-1,1,3,-2,6,9,7],"shifted_pitches":[1,5,8,6,1,-3,3,4,0,-1,1,3,-2,6,9,7],"swapped_pitches":[1,5,8,6,1,-3,3,0,5,-1,1,3,-2,6,9,7],"shift_direction":-1,"question_num":21,"has_decoy":false},{"rt":4875.300000071526,"stimulus":"[A] option 1, [L] option 2, [G] neither","key_press":65,"name":"choice","trial_type":"html-keyboard-response","trial_index":43,"time_elapsed":116213,"internal_node_id":"0.0-43.0","subject":"S1C1613","sona":"41884","block":3,"time":"2021-09-15T19:12:55.048Z","response":"1st","certainty":"high","char":"A","transposition":-3,"order":["shifted","swapped"],"probe_pitches":[-2,0,-2,5,9,1,7,1,9,-1,0,8,-3,0,-3,-2],"shifted_pitches":[-2,0,-2,5,9,1,7,2,9,-1,0,8,-3,0,-3,-2],"swapped_pitches":[-2,0,-2,5,9,1,7,9,1,-1,0,8,-3,0,-3,-2],"shift_direction":1,"question_num":31,"has_decoy":false},{"rt":2361.1999999284744,"stimulus":"[A] option 1, [L] option 2, [G] neither","key_press":65,"name":"choice","trial_type":"html-keyboard-response","trial_index":54,"time_elapsed":145270,"internal_node_id":"0.0-54.0","subject":"S1C1613","sona":"41884","block":3,"time":"2021-09-15T19:12:55.048Z","response":"1st","certainty":"high","char":"A","transposition":1,"order":["shifted","swapped"],"probe_pitches":[6,8,1,4,7,2,9,4,-3,2,-1,7,-3,5,4,6],"shifted_pitches":[6,8,1,4,7,2,9,3,-3,2,-1,7,-3,5,4,6],"swapped_pitches":[6,8,1,4,7,2,9,-3,4,2,-1,7,-3,5,4,6],"shift_direction":-1,"question_num":41,"has_decoy":false},{"rt":600.5,"stimulus":"[A] option 1, [L] option 2, [G] neither","key_press":76,"name":"choice","trial_type":"html-keyboard-response","trial_index":65,"time_elapsed":177370,"internal_node_id":"0.0-65.0","subject":"S1C1613","sona":"41884","block":3,"time":"2021-09-15T19:12:55.048Z","response":"2nd","certainty":"high","char":"L","transposition":-1,"order":["shifted","swapped"],"probe_pitches":[5,9,4,0,-2,5,-3,2,7,3,-2,0,8,5,9,7],"shifted_pitches":[5,9,4,0,-2,5,-3,2,6,3,-2,0,8,5,9,7],"swapped_pitches":[5,9,4,0,-2,5,-3,7,2,3,-2,0,8,5,9,7],"shift_direction":-1,"question_num":51,"has_decoy":false},{"rt":550.1000000238419,"stimulus":"[A] option 1, [L] option 2, [G] neither","key_press":76,"name":"choice","trial_type":"html-keyboard-response","trial_index":76,"time_elapsed":200785,"internal_node_id":"0.0-76.0","subject":"S1C1613","sona":"41884","block":3,"time":"2021-09-15T19:12:55.048Z","response":"2nd","certainty":"high","char":"L","transposition":-2,"order":["shifted","swapped"],"probe_pitches":[8,2,6,2,-2,8,4,6,0,2,4,3,-2,0,3,-2],"shifted_pitches":[8,2,6,2,-2,8,4,6,1,2,4,3,-2,0,3,-2],"swapped_pitches":[8,2,6,2,-2,8,4,0,6,2,4,3,-2,0,3,-2],"shift_direction":1,"question_num":61,"has_decoy":false},{"rt":5292.199999928474,"stimulus":"[A] option 1, [L] option 2, [G] neither","key_press":71,"name":"choice","trial_type":"html-keyboard-response","trial_index":87,"time_elapsed":231259,"internal_node_id":"0.0-87.0","subject":"S1C1613","sona":"41884","block":3,"time":"2021-09-15T19:12:55.048Z","response":"neither","certainty":"high","char":"G","transposition":-3,"order":["swapped","shifted"],"probe_pitches":[5,8,10,8,3,0,3,8,5,3,8,10,8,0,8,0],"shifted_pitches":[5,8,10,8,3,0,3,8,6,3,8,10,8,0,8,0],"swapped_pitches":[5,8,10,8,3,0,3,5,8,3,8,10,8,0,8,0],"shift_direction":1,"question_num":71,"has_decoy":false},{"rt":1227,"stimulus":"[A] option 1, [L] option 2, [G] neither","key_press":76,"name":"choice","trial_type":"html-keyboard-response","trial_index":98,"time_elapsed":257800,"internal_node_id":"0.0-98.0","subject":"S1C1613","sona":"41884","block":3,"time":"2021-09-15T19:12:55.048Z","response":"2nd","certainty":"high","char":"L","transposition":-2,"order":["swapped","shifted"],"probe_pitches":[10,12,10,5,0,10,0,12,5,0,2,10,7,10,5,10],"shifted_pitches":[10,12,10,5,0,10,0,11,5,0,2,10,7,10,5,10],"swapped_pitches":[10,12,10,5,0,10,0,5,12,0,2,10,7,10,5,10],"shift_direction":-1,"question_num":81,"has_decoy":false},{"rt":1201.5,"stimulus":"[A] option 1, [L] option 2, [G] neither","key_press":65,"name":"choice","trial_type":"html-keyboard-response","trial_index":109,"time_elapsed":284336,"internal_node_id":"0.0-109.0","subject":"S1C1613","sona":"41884","block":3,"time":"2021-09-15T19:12:55.048Z","response":"1st","certainty":"high","char":"A","transposition":1,"order":["shifted","swapped"],"probe_pitches":[0,4,2,0,9,0,4,12,0,9,4,7,4,0,2,7],"shifted_pitches":[0,4,2,0,9,0,4,11,0,9,4,7,4,0,2,7],"swapped_pitches":[0,4,2,0,9,0,4,0,12,9,4,7,4,0,2,7],"shift_direction":-1,"question_num":91,"has_decoy":false},{"rt":996.2999999523163,"stimulus":"[A] option 1, [L] option 2, [G] neither","key_press":65,"name":"choice","trial_type":"html-keyboard-response","trial_index":120,"time_elapsed":308419,"internal_node_id":"0.0-120.0","subject":"S1C1613","sona":"41884","block":3,"time":"2021-09-15T19:12:55.048Z","response":"1st","certainty":"high","char":"A","transposition":-2,"order":["shifted","swapped"],"probe_pitches":[0,2,-1,6,-2,0,-2,9,7,0,4,3,2,4,5,-2],"shifted_pitches":[0,2,-1,6,-2,0,-2,9,8,0,4,3,2,4,5,-2],"swapped_pitches":[0,2,-1,6,-2,0,-2,7,9,0,4,3,2,4,5,-2],"shift_direction":1,"question_num":101,"has_decoy":false},{"rt":1857.6000000238419,"stimulus":"[A] option 1, [L] option 2, [G] neither","key_press":76,"name":"choice","trial_type":"html-keyboard-response","trial_index":131,"time_elapsed":335020,"internal_node_id":"0.0-131.0","subject":"S1C1613","sona":"41884","block":3,"time":"2021-09-15T19:12:55.048Z","response":"2nd","certainty":"high","char":"L","transposition":2,"order":["swapped","shifted"],"probe_pitches":[2,0,7,5,0,9,2,7,0,2,7,5,2,12,0,7],"shifted_pitches":[2,0,7,5,0,9,2,7,1,2,7,5,2,12,0,7],"swapped_pitches":[2,0,7,5,0,9,2,0,7,2,7,5,2,12,0,7],"shift_direction":1,"question_num":111,"has_decoy":false},{"rt":7235.300000071526,"stimulus":"[A] option 1, [L] option 2, [G] neither","key_press":65,"name":"choice","trial_type":"html-keyboard-response","trial_index":142,"time_elapsed":366349,"internal_node_id":"0.0-142.0","subject":"S1C1613","sona":"41884","block":3,"time":"2021-09-15T19:12:55.048Z","response":"1st","certainty":"high","char":"A","transposition":-1,"order":["swapped","shifted"],"probe_pitches":[8,5,0,2,9,6,4,3,8,9,-2,-3,4,-1,1,4],"shifted_pitches":[8,5,0,2,9,6,4,3,7,9,-2,-3,4,-1,1,4],"swapped_pitches":[8,5,0,2,9,6,4,8,3,9,-2,-3,4,-1,1,4],"shift_direction":-1,"question_num":121,"has_decoy":false},{"rt":658.3000000715256,"stimulus":"[A] option 1, [L] option 2, [G] neither","key_press":76,"name":"choice","trial_type":"html-keyboard-response","trial_index":153,"time_elapsed":399724,"internal_node_id":"0.0-153.0","subject":"S1C1613","sona":"41884","block":3,"time":"2021-09-15T19:12:55.048Z","response":"2nd","certainty":"high","char":"L","transposition":0,"order":["swapped","shifted"],"probe_pitches":[-3,1,-3,4,7,1,2,-1,7,6,9,8,4,9,-1,-2],"shifted_pitches":[-3,1,-3,4,7,1,2,0,7,6,9,8,4,9,-1,-2],"swapped_pitches":[-3,1,-3,4,7,1,2,7,-1,6,9,8,4,9,-1,-2],"shift_direction":1,"question_num":131,"has_decoy":false},{"rt":6364.299999952316,"stimulus":"[A] option 1, [L] option 2, [G] neither","key_press":76,"name":"choice","trial_type":"html-keyboard-response","trial_index":164,"time_elapsed":432545,"internal_node_id":"0.0-164.0","subject":"S1C1613","sona":"41884","block":3,"time":"2021-09-15T19:12:55.048Z","response":"2nd","certainty":"high","char":"L","transposition":-3,"order":["swapped","shifted"],"probe_pitches":[0,5,0,5,7,10,2,12,5,2,0,7,5,0,10,5],"shifted_pitches":[0,5,0,5,7,10,2,12,6,2,0,7,5,0,10,5],"swapped_pitches":[0,5,0,5,7,10,2,5,12,2,0,7,5,0,10,5],"shift_direction":1,"question_num":141,"has_decoy":false},{"rt":40846.200000047684,"stimulus":"[A] option 1, [L] option 2, [G] neither","key_press":65,"name":"choice","trial_type":"html-keyboard-response","trial_index":175,"time_elapsed":497148,"internal_node_id":"0.0-175.0","subject":"S1C1613","sona":"41884","block":3,"time":"2021-09-15T19:12:55.048Z","response":"1st","certainty":"high","char":"A","transposition":2,"order":["swapped","shifted"],"probe_pitches":[-1,-2,1,3,7,4,3,1,6,-3,9,1,6,2,8,0],"shifted_pitches":[-1,-2,1,3,7,4,3,1,5,-3,9,1,6,2,8,0],"swapped_pitches":[-1,-2,1,3,7,4,3,6,1,-3,9,1,6,2,8,0],"shift_direction":-1,"question_num":151,"has_decoy":false},{"rt":757.2000000476837,"stimulus":"[A] option 1, [L] option 2, [G] neither","key_press":65,"name":"choice","trial_type":"html-keyboard-response","trial_index":186,"time_elapsed":521443,"internal_node_id":"0.0-186.0","subject":"S1C1613","sona":"41884","block":3,"time":"2021-09-15T19:12:55.048Z","response":"1st","certainty":"high","char":"A","transposition":3,"order":["shifted","swapped"],"probe_pitches":[12,7,12,7,5,9,12,2,0,9,2,7,5,2,7,12],"shifted_pitches":[12,7,12,7,5,9,12,1,0,9,2,7,5,2,7,12],"swapped_pitches":[12,7,12,7,5,9,12,0,2,9,2,7,5,2,7,12],"shift_direction":-1,"question_num":161,"has_decoy":false},{"rt":22477.200000047684,"stimulus":"[A] option 1, [L] option 2, [G] neither","key_press":65,"name":"choice","trial_type":"html-keyboard-response","trial_index":197,"time_elapsed":572181,"internal_node_id":"0.0-197.0","subject":"S1C1613","sona":"41884","block":3,"time":"2021-09-15T19:12:55.048Z","response":"1st","certainty":"high","char":"A","transposition":-1,"order":["swapped","shifted"],"probe_pitches":[12,7,10,7,0,3,10,7,5,12,5,3,7,3,12,0],"shifted_pitches":[12,7,10,7,0,3,10,7,4,12,5,3,7,3,12,0],"swapped_pitches":[12,7,10,7,0,3,10,5,7,12,5,3,7,3,12,0],"shift_direction":-1,"question_num":171,"has_decoy":false},{"rt":1137.2999999523163,"stimulus":"[A] option 1, [L] option 2, [G] neither","key_press":65,"name":"choice","trial_type":"html-keyboard-response","trial_index":208,"time_elapsed":598106,"internal_node_id":"0.0-208.0","subject":"S1C1613","sona":"41884","block":3,"time":"2021-09-15T19:12:55.048Z","response":"1st","certainty":"high","char":"A","transposition":-2,"order":["shifted","swapped"],"probe_pitches":[3,8,10,5,10,8,10,3,5,10,5,8,3,8,0,10],"shifted_pitches":[3,8,10,5,10,8,10,3,4,10,5,8,3,8,0,10],"swapped_pitches":[3,8,10,5,10,8,10,5,3,10,5,8,3,8,0,10],"shift_direction":-1,"question_num":181,"has_decoy":false},{"rt":658.3000000715256,"stimulus":"[A] option 1, [L] option 2, [G] neither","key_press":76,"name":"choice","trial_type":"html-keyboard-response","trial_index":219,"time_elapsed":622913,"internal_node_id":"0.0-219.0","subject":"S1C1613","sona":"41884","block":3,"time":"2021-09-15T19:12:55.048Z","response":"2nd","certainty":"high","char":"L","transposition":3,"order":["swapped","shifted"],"probe_pitches":[1,3,-2,-3,-2,2,5,-2,1,6,1,6,5,-2,7,6],"shifted_pitches":[1,3,-2,-3,-2,2,5,-1,1,6,1,6,5,-2,7,6],"swapped_pitches":[1,3,-2,-3,-2,2,5,1,-2,6,1,6,5,-2,7,6],"shift_direction":1,"question_num":191,"has_decoy":false}]