[{"rt":986.2999999523163,"stimulus":"[A] option 1, [L] option 2, [G] neither","key_press":65,"name":"choice","trial_type":"html-keyboard-response","trial_index":10,"time_elapsed":30830,"internal_node_id":"0.0-10.0","subject":"S1C1613","sona":"41884","block":5,"time":"2021-09-15T19:39:43.255Z","response":"1st","certainty":"high","char":"A","transposition":0,"order":["shifted","swapped"],"probe_pitches":[11,7,3,0,8,3,7,4,6,0,1,9,7,6,0,9],"shifted_pitches":[11,7,3,0,8,3,7,5,6,0,1,9,7,6,0,9],"swapped_pitches":[11,7,3,0,8,3,7,6,4,0,1,9,7,6,0,9],"shift_direction":1,"question_num":1,"has_decoy":false},{"rt":430.5,"stimulus":"[A] option 1, [L] option 2, [G] neither","key_press":65,"name":"choice","trial_type":"html-keyboard-response","trial_index":21,"time_elapsed":54977,"internal_node_id":"0.0-21.0","subject":"S1C1613","sona":"41884","block":5,"time":"2021-09-15T19:39:43.255Z","response":"1st","certainty":"high","char":"A","transposition":-2,"order":["shifted","swapped"],"probe_pitches":[9,7,9,7,2,5,0,-3,5,9,7,2,9,0,5,0],"shifted_pitches":[9,7,9,7,2,5,0,-4,5,9,7,2,9,0,5,0],"swapped_pitches":[9,7,9,7,2,5,0,5,-3,9,7,2,9,0,5,0],"shift_direction":-1,"question_num":11,"has_decoy":false},{"rt":671.9000000953674,"stimulus":"[A] option 1, [L] option 2, [G] neither","key_press":76,"name":"choice","trial_type":"html-keyboard-response","trial_index":32,"time_elapsed":80455,"internal_node_id":"0.0-32.0","subject":"S1C1613","sona":"41884","block":5,"time":"2021-09-15T19:39:43.255Z","response":"2nd","certainty":"high","char":"L","transposition":2,"order":["swapped","shifted"],"probe_pitches":[1,-3,4,1,-3,-1,1,-1,6,9,6,-1,4,-3,-1,9],"shifted_pitches":[1,-3,4,1,-3,-1,1,0,6,9,6,-1,4,-3,-1,9],"swapped_pitches":[1,-3,4,1,-3,-1,1,6,-1,9,6,-1,4,-3,-1,9],"shift_direction":1,"question_num":21,"has_decoy":false},{"rt":1022.4000000953674,"stimulus":"[A] option 1, [L] option 2, [G] neither","key_press":76,"name":"choice","trial_type":"html-keyboard-response","trial_index":43,"time_elapsed":138368,"internal_node_id":"0.0-43.0","subject":"S1C1613","sona":"41884","block":5,"time":"2021-09-15T19:39:43.255Z","response":"2nd","certainty":"high","char":"L","transposition":-3,"order":["swapped","shifted"],"probe_pitches":[7,4,-3,4,-1,7,4,7,-3,2,7,-1,4,-3,-1,-3],"shifted_pitches":[7,4,-3,4,-1,7,4,7,-4,2,7,-1,4,-3,-1,-3],"swapped_pitches":[7,4,-3,4,-1,7,4,-3,7,2,7,-1,4,-3,-1,-3],"shift_direction":-1,"question_num":31,"has_decoy":false},{"rt":1497.0999999046326,"stimulus":"[A] option 1, [L] option 2, [G] neither","key_press":65,"name":"choice","trial_type":"html-keyboard-response","trial_index":54,"time_elapsed":163003,"internal_node_id":"0.0-54.0","subject":"S1C1613","sona":"41884","block":5,"time":"2021-09-15T19:39:43.255Z","response":"1st","certainty":"high","char":"A","transposition":-3,"order":["shifted","swapped"],"probe_pitches":[6,5,1,2,-1,4,11,3,9,11,7,3,11,4,5,4],"shifted_pitches":[6,5,1,2,-1,4,11,3,8,11,7,3,11,4,5,4],"swapped_pitches":[6,5,1,2,-1,4,11,9,3,11,7,3,11,4,5,4],"shift_direction":-1,"question_num":41,"has_decoy":false},{"rt":55749.39999997616,"stimulus":"[A] option 1, [L] option 2, [G] neither","key_press":76,"name":"choice","trial_type":"html-keyboard-response","trial_index":65,"time_elapsed":251487,"internal_node_id":"0.0-65.0","subject":"S1C1613","sona":"41884","block":5,"time":"2021-09-15T19:39:43.255Z","response":"2nd","certainty":"high","char":"L","transposition":0,"order":["swapped","shifted"],"probe_pitches":[4,2,0,7,4,2,-3,4,2,0,7,2,7,2,9,2],"shifted_pitches":[4,2,0,7,4,2,-3,4,1,0,7,2,7,2,9,2],"swapped_pitches":[4,2,0,7,4,2,-3,2,4,0,7,2,7,2,9,2],"shift_direction":-1,"question_num":51,"has_decoy":false},{"rt":98649.20000004768,"stimulus":"[A] option 1, [L] option 2, [G] neither","key_press":65,"name":"choice","trial_type":"html-keyboard-response","trial_index":76,"time_elapsed":376824,"internal_node_id":"0.0-76.0","subject":"S1C1613","sona":"41884","block":5,"time":"2021-09-15T19:39:43.255Z","response":"1st","certainty":"high","char":"A","transposition":-2,"order":["swapped","shifted"],"probe_pitches":[6,8,11,9,4,8,4,0,3,10,11,8,9,7,-1,3],"shifted_pitches":[6,8,11,9,4,8,4,1,3,10,11,8,9,7,-1,3],"swapped_pitches":[6,8,11,9,4,8,4,3,0,10,11,8,9,7,-1,3],"shift_direction":1,"question_num":61,"has_decoy":false},{"rt":1196.8000000715256,"stimulus":"[A] option 1, [L] option 2, [G] neither","key_press":76,"name":"choice","trial_type":"html-keyboard-response","trial_index":87,"time_elapsed":400896,"internal_node_id":"0.0-87.0","subject":"S1C1613","sona":"41884","block":5,"time":"2021-09-15T19:39:43.255Z","response":"2nd","certainty":"high","char":"L","transposition":-1,"order":["shifted","swapped"],"probe_pitches":[0,5,2,9,5,-3,5,0,7,5,9,2,0,2,7,2],"shifted_pitches":[0,5,2,9,5,-3,5,1,7,5,9,2,0,2,7,2],"swapped_pitches":[0,5,2,9,5,-3,5,7,0,5,9,2,0,2,7,2],"shift_direction":1,"question_num":71,"has_decoy":false},{"rt":6095.299999952316,"stimulus":"[A] option 1, [L] option 2, [G] neither","key_press":65,"name":"choice","trial_type":"html-keyboard-response","trial_index":98,"time_elapsed":450710,"internal_node_id":"0.0-98.0","subject":"S1C1613","sona":"41884","block":5,"time":"2021-09-15T19:39:43.255Z","response":"1st","certainty":"high","char":"A","transposition":-3,"order":["shifted","swapped"],"probe_pitches":[-3,-1,-3,2,-3,7,4,7,2,-1,7,-1,2,-3,-1,-3],"shifted_pitches":[-3,-1,-3,2,-3,7,4,7,3,-1,7,-1,2,-3,-1,-3],"swapped_pitches":[-3,-1,-3,2,-3,7,4,2,7,-1,7,-1,2,-3,-1,-3],"shift_direction":1,"question_num":81,"has_decoy":false},{"rt":494.10000002384186,"stimulus":"[A] option 1, [L] option 2, [G] neither","key_press":65,"name":"choice","trial_type":"html-keyboard-response","trial_index":109,"time_elapsed":476671,"internal_node_id":"0.0-109.0","subject":"S1C1613","sona":"41884","block":5,"time":"2021-09-15T19:39:43.255Z","response":"1st","certainty":"high","char":"A","transposition":-2,"order":["shifted","swapped"],"probe_pitches":[2,6,11,3,5,9,0,2,8,1,10,8,0,-1,5,6],"shifted_pitches":[2,6,11,3,5,9,0,2,7,1,10,8,0,-1,5,6],"swapped_pitches":[2,6,11,3,5,9,0,8,2,1,10,8,0,-1,5,6],"shift_direction":-1,"question_num":91,"has_decoy":false},{"rt":50866.699999928474,"stimulus":"[A] option 1, [L] option 2, [G] neither","key_press":65,"name":"choice","trial_type":"html-keyboard-response","trial_index":120,"time_elapsed":556130,"internal_node_id":"0.0-120.0","subject":"S1C1613","sona":"41884","block":5,"time":"2021-09-15T19:39:43.255Z","response":"1st","certainty":"high","char":"A","transposition":2,"order":["shifted","swapped"],"probe_pitches":[5,10,9,3,7,10,6,9,5,1,3,10,5,-1,7,-1],"shifted_pitches":[5,10,9,3,7,10,6,9,4,1,3,10,5,-1,7,-1],"swapped_pitches":[5,10,9,3,7,10,6,5,9,1,3,10,5,-1,7,-1],"shift_direction":-1,"question_num":101,"has_decoy":false},{"rt":1078.6000000238419,"stimulus":"[A] option 1, [L] option 2, [G] neither","key_press":65,"name":"choice","trial_type":"html-keyboard-response","trial_index":131,"time_elapsed":599872,"internal_node_id":"0.0-131.0","subject":"S1C1613","sona":"41884","block":5,"time":"2021-09-15T19:39:43.255Z","response":"1st","certainty":"high","char":"A","transposition":-1,"order":["swapped","shifted"],"probe_pitches":[5,6,5,8,2,8,11,2,-1,0,5,1,7,0,8,7],"shifted_pitches":[5,6,5,8,2,8,11,3,-1,0,5,1,7,0,8,7],"swapped_pitches":[5,6,5,8,2,8,11,-1,2,0,5,1,7,0,8,7],"shift_direction":1,"question_num":111,"has_decoy":false},{"rt":1211,"stimulus":"[A] option 1, [L] option 2, [G] neither","key_press":76,"name":"choice","trial_type":"html-keyboard-response","trial_index":142,"time_elapsed":635396,"internal_node_id":"0.0-142.0","subject":"S1C1613","sona":"41884","block":5,"time":"2021-09-15T19:39:43.255Z","response":"2nd","certainty":"high","char":"L","transposition":-1,"order":["swapped","shifted"],"probe_pitches":[3,0,7,9,11,2,10,0,7,9,8,3,10,8,-1,0],"shifted_pitches":[3,0,7,9,11,2,10,0,6,9,8,3,10,8,-1,0],"swapped_pitches":[3,0,7,9,11,2,10,7,0,9,8,3,10,8,-1,0],"shift_direction":-1,"question_num":121,"has_decoy":false},{"rt":1296.7999999523163,"stimulus":"[A] option 1, [L] option 2, [G] neither","key_press":65,"name":"choice","trial_type":"html-keyboard-response","trial_index":153,"time_elapsed":659451,"internal_node_id":"0.0-153.0","subject":"S1C1613","sona":"41884","block":5,"time":"2021-09-15T19:39:43.255Z","response":"1st","certainty":"high","char":"A","transposition":3,"order":["swapped","shifted"],"probe_pitches":[9,6,-1,-3,4,-3,6,-1,9,-3,4,-1,1,6,9,6],"shifted_pitches":[9,6,-1,-3,4,-3,6,-1,8,-3,4,-1,1,6,9,6],"swapped_pitches":[9,6,-1,-3,4,-3,6,9,-1,-3,4,-1,1,6,9,6],"shift_direction":-1,"question_num":131,"has_decoy":false},{"rt":798.8999999761581,"stimulus":"[A] option 1, [L] option 2, [G] neither","key_press":76,"name":"choice","trial_type":"html-keyboard-response","trial_index":164,"time_elapsed":682329,"internal_node_id":"0.0-164.0","subject":"S1C1613","sona":"41884","block":5,"time":"2021-09-15T19:39:43.255Z","response":"2nd","certainty":"high","char":"L","transposition":3,"order":["swapped","shifted"],"probe_pitches":[11,5,10,8,10,3,6,3,5,6,11,0,10,5,6,3],"shifted_pitches":[11,5,10,8,10,3,6,2,5,6,11,0,10,5,6,3],"swapped_pitches":[11,5,10,8,10,3,6,5,3,6,11,0,10,5,6,3],"shift_direction":-1,"question_num":141,"has_decoy":false},{"rt":1549.6000000238419,"stimulus":"[A] option 1, [L] option 2, [G] neither","key_press":65,"name":"choice","trial_type":"html-keyboard-response","trial_index":175,"time_elapsed":706277,"internal_node_id":"0.0-175.0","subject":"S1C1613","sona":"41884","block":5,"time":"2021-09-15T19:39:43.255Z","response":"1st","certainty":"high","char":"A","transposition":-2,"order":["shifted","swapped"],"probe_pitches":[-3,2,9,6,-1,2,-3,2,-1,4,-1,2,9,-1,-3,9],"shifted_pitches":[-3,2,9,6,-1,2,-3,3,-1,4,-1,2,9,-1,-3,9],"swapped_pitches":[-3,2,9,6,-1,2,-3,-1,2,4,-1,2,9,-1,-3,9],"shift_direction":1,"question_num":151,"has_decoy":false},{"rt":439.5,"stimulus":"[A] option 1, [L] option 2, [G] neither","key_press":76,"name":"choice","trial_type":"html-keyboard-response","trial_index":186,"time_elapsed":729630,"internal_node_id":"0.0-186.0","subject":"S1C1613","sona":"41884","block":5,"time":"2021-09-15T19:39:43.255Z","response":"2nd","certainty":"high","char":"L","transposition":1,"order":["swapped","shifted"],"probe_pitches":[2,4,9,4,2,4,0,7,4,-3,4,9,2,0,7,0],"shifted_pitches":[2,4,9,4,2,4,0,7,3,-3,4,9,2,0,7,0],"swapped_pitches":[2,4,9,4,2,4,0,4,7,-3,4,9,2,0,7,0],"shift_direction":-1,"question_num":161,"has_decoy":false},{"rt":607.7999999523163,"stimulus":"[A] option 1, [L] option 2, [G] neither","key_press":65,"name":"choice","trial_type":"html-keyboard-response","trial_index":197,"time_elapsed":753302,"internal_node_id":"0.0-197.0","subject":"S1C1613","sona":"41884","block":5,"time":"2021-09-15T19:39:43.255Z","response":"1st","certainty":"high","char":"A","transposition":-1,"order":["shifted","swapped"],"probe_pitches":[4,-1,-3,2,-3,-1,9,-1,6,4,-3,9,6,-3,6,9],"shifted_pitches":[4,-1,-3,2,-3,-1,9,0,6,4,-3,9,6,-3,6,9],"swapped_pitches":[4,-1,-3,2,-3,-1,9,6,-1,4,-3,9,6,-3,6,9],"shift_direction":1,"question_num":171,"has_decoy":false},{"rt":548,"stimulus":"[A] option 1, [L] option 2, [G] neither","key_press":76,"name":"choice","trial_type":"html-keyboard-response","trial_index":208,"time_elapsed":778266,"internal_node_id":"0.0-208.0","subject":"S1C1613","sona":"41884","block":5,"time":"2021-09-15T19:39:43.255Z","response":"2nd","certainty":"high","char":"L","transposition":1,"order":["swapped","shifted"],"probe_pitches":[4,8,4,9,8,4,11,9,0,5,2,4,2,0,6,-1],"shifted_pitches":[4,8,4,9,8,4,11,10,0,5,2,4,2,0,6,-1],"swapped_pitches":[4,8,4,9,8,4,11,0,9,5,2,4,2,0,6,-1],"shift_direction":1,"question_num":181,"has_decoy":false},{"rt":518.5,"stimulus":"[A] option 1, [L] option 2, [G] neither","key_press":76,"name":"choice","trial_type":"html-keyboard-response","trial_index":219,"time_elapsed":804666,"internal_node_id":"0.0-219.0","subject":"S1C1613","sona":"41884","block":5,"time":"2021-09-15T19:39:43.255Z","response":"2nd","certainty":"high","char":"L","transposition":-3,"order":["shifted","swapped"],"probe_pitches":[4,0,-1,0,7,1,-1,3,8,4,10,8,4,6,5,4],"shifted_pitches":[4,0,-1,0,7,1,-1,3,9,4,10,8,4,6,5,4],"swapped_pitches":[4,0,-1,0,7,1,-1,8,3,4,10,8,4,6,5,4],"shift_direction":1,"question_num":191,"has_decoy":false}]