[{"rt":1172.1000000238419,"stimulus":"[A] option 1, [L] option 2, [G] neither","key_press":65,"name":"choice","trial_type":"html-keyboard-response","trial_index":10,"time_elapsed":55166,"internal_node_id":"0.0-10.0","subject":"S1C1613","sona":"41884","block":4,"time":"2021-09-15T19:24:07.035Z","response":"1st","certainty":"high","char":"A","transposition":-1,"order":["shifted","swapped"],"probe_pitches":[5,10,8,10,8,0,10,5,3,0,8,3,8,0,8,5],"shifted_pitches":[5,10,8,10,8,0,10,5,2,0,8,3,8,0,8,5],"swapped_pitches":[5,10,8,10,8,0,10,3,5,0,8,3,8,0,8,5],"shift_direction":-1,"question_num":1,"has_decoy":false},{"rt":2504.399999976158,"stimulus":"[A] option 1, [L] option 2, [G] neither","key_press":76,"name":"choice","trial_type":"html-keyboard-response","trial_index":21,"time_elapsed":81544,"internal_node_id":"0.0-21.0","subject":"S1C1613","sona":"41884","block":4,"time":"2021-09-15T19:24:07.035Z","response":"2nd","certainty":"high","char":"L","transposition":-1,"order":["swapped","shifted"],"probe_pitches":[13,8,5,8,6,9,10,7,3,12,11,13,10,5,13,12],"shifted_pitches":[13,8,5,8,6,9,10,7,4,12,11,13,10,5,13,12],"swapped_pitches":[13,8,5,8,6,9,10,3,7,12,11,13,10,5,13,12],"shift_direction":1,"question_num":11,"has_decoy":false},{"rt":517.8999999761581,"stimulus":"[A] option 1, [L] option 2, [G] neither","key_press":65,"name":"choice","trial_type":"html-keyboard-response","trial_index":32,"time_elapsed":107688,"internal_node_id":"0.0-32.0","subject":"S1C1613","sona":"41884","block":4,"time":"2021-09-15T19:24:07.035Z","response":"1st","certainty":"high","char":"A","transposition":-2,"order":["shifted","swapped"],"probe_pitches":[10,7,2,5,2,10,0,5,-2,10,-2,0,10,2,10,7],"shifted_pitches":[10,7,2,5,2,10,0,6,-2,10,-2,0,10,2,10,7],"swapped_pitches":[10,7,2,5,2,10,0,-2,5,10,-2,0,10,2,10,7],"shift_direction":1,"question_num":21,"has_decoy":false},{"rt":5188.200000047684,"stimulus":"[A] option 1, [L] option 2, [G] neither","key_press":76,"name":"choice","trial_type":"html-keyboard-response","trial_index":43,"time_elapsed":135435,"internal_node_id":"0.0-43.0","subject":"S1C1613","sona":"41884","block":4,"time":"2021-09-15T19:24:07.035Z","response":"2nd","certainty":"high","char":"L","transposition":-3,"order":["swapped","shifted"],"probe_pitches":[-2,3,10,3,0,3,5,7,3,0,5,3,0,10,5,-2],"shifted_pitches":[-2,3,10,3,0,3,5,8,3,0,5,3,0,10,5,-2],"swapped_pitches":[-2,3,10,3,0,3,5,3,7,0,5,3,0,10,5,-2],"shift_direction":1,"question_num":31,"has_decoy":false},{"rt":12543.800000071526,"stimulus":"[A] option 1, [L] option 2, [G] neither","key_press":76,"name":"choice","trial_type":"html-keyboard-response","trial_index":54,"time_elapsed":195861,"internal_node_id":"0.0-54.0","subject":"S1C1613","sona":"41884","block":4,"time":"2021-09-15T19:24:07.035Z","response":"2nd","certainty":"high","char":"L","transposition":1,"order":["shifted","swapped"],"probe_pitches":[4,3,1,9,13,5,8,9,11,2,9,6,11,9,8,7],"shifted_pitches":[4,3,1,9,13,5,8,10,11,2,9,6,11,9,8,7],"swapped_pitches":[4,3,1,9,13,5,8,11,9,2,9,6,11,9,8,7],"shift_direction":1,"question_num":41,"has_decoy":false},{"rt":475.60000002384186,"stimulus":"[A] option 1, [L] option 2, [G] neither","key_press":76,"name":"choice","trial_type":"html-keyboard-response","trial_index":65,"time_elapsed":221988,"internal_node_id":"0.0-65.0","subject":"S1C1613","sona":"41884","block":4,"time":"2021-09-15T19:24:07.035Z","response":"2nd","certainty":"high","char":"L","transposition":-1,"order":["swapped","shifted"],"probe_pitches":[2,1,8,1,5,1,6,2,10,13,2,11,4,5,1,4],"shifted_pitches":[2,1,8,1,5,1,6,2,9,13,2,11,4,5,1,4],"swapped_pitches":[2,1,8,1,5,1,6,10,2,13,2,11,4,5,1,4],"shift_direction":-1,"question_num":51,"has_decoy":false},{"rt":2613.100000023842,"stimulus":"[A] option 1, [L] option 2, [G] neither","key_press":65,"name":"choice","trial_type":"html-keyboard-response","trial_index":76,"time_elapsed":250875,"internal_node_id":"0.0-76.0","subject":"S1C1613","sona":"41884","block":4,"time":"2021-09-15T19:24:07.035Z","response":"1st","certainty":"high","char":"A","transposition":-2,"order":["shifted","swapped"],"probe_pitches":[-2,3,1,3,-2,1,-2,10,8,6,-2,3,-2,10,3,8],"shifted_pitches":[-2,3,1,3,-2,1,-2,10,9,6,-2,3,-2,10,3,8],"swapped_pitches":[-2,3,1,3,-2,1,-2,8,10,6,-2,3,-2,10,3,8],"shift_direction":1,"question_num":61,"has_decoy":false},{"rt":615.8999999761581,"stimulus":"[A] option 1, [L] option 2, [G] neither","key_press":76,"name":"choice","trial_type":"html-keyboard-response","trial_index":87,"time_elapsed":286237,"internal_node_id":"0.0-87.0","subject":"S1C1613","sona":"41884","block":4,"time":"2021-09-15T19:24:07.035Z","response":"2nd","certainty":"high","char":"L","transposition":-3,"order":["swapped","shifted"],"probe_pitches":[10,8,3,-2,3,-2,1,8,5,10,3,-2,10,-2,8,3],"shifted_pitches":[10,8,3,-2,3,-2,1,7,5,10,3,-2,10,-2,8,3],"swapped_pitches":[10,8,3,-2,3,-2,1,5,8,10,3,-2,10,-2,8,3],"shift_direction":-1,"question_num":71,"has_decoy":false},{"rt":610.7000000476837,"stimulus":"[A] option 1, [L] option 2, [G] neither","key_press":65,"name":"choice","trial_type":"html-keyboard-response","trial_index":98,"time_elapsed":315723,"internal_node_id":"0.0-98.0","subject":"S1C1613","sona":"41884","block":4,"time":"2021-09-15T19:24:07.035Z","response":"1st","certainty":"high","char":"A","transposition":-3,"order":["shifted","swapped"],"probe_pitches":[7,9,7,2,1,2,9,7,10,2,10,1,5,4,7,11],"shifted_pitches":[7,9,7,2,1,2,9,6,10,2,10,1,5,4,7,11],"swapped_pitches":[7,9,7,2,1,2,9,10,7,2,10,1,5,4,7,11],"shift_direction":-1,"question_num":81,"has_decoy":false},{"rt":1456.1999999284744,"stimulus":"[A] option 1, [L] option 2, [G] neither","key_press":65,"name":"choice","trial_type":"html-keyboard-response","trial_index":109,"time_elapsed":340208,"internal_node_id":"0.0-109.0","subject":"S1C1613","sona":"41884","block":4,"time":"2021-09-15T19:24:07.035Z","response":"1st","certainty":"high","char":"A","transposition":2,"order":["shifted","swapped"],"probe_pitches":[3,-2,3,5,-2,3,10,5,-2,3,-2,5,8,1,-2,3],"shifted_pitches":[3,-2,3,5,-2,3,10,5,-3,3,-2,5,8,1,-2,3],"swapped_pitches":[3,-2,3,5,-2,3,10,-2,5,3,-2,5,8,1,-2,3],"shift_direction":-1,"question_num":91,"has_decoy":false},{"rt":1474.3999999761581,"stimulus":"[A] option 1, [L] option 2, [G] neither","key_press":65,"name":"choice","trial_type":"html-keyboard-response","trial_index":120,"time_elapsed":390363,"internal_node_id":"0.0-120.0","subject":"S1C1613","sona":"41884","block":4,"time":"2021-09-15T19:24:07.035Z","response":"1st","certainty":"high","char":"A","transposition":1,"order":["swapped","shifted"],"probe_pitches":[0,-2,2,10,2,7,5,0,2,5,-2,7,-2,0,7,10],"shifted_pitches":[0,-2,2,10,2,7,5,0,1,5,-2,7,-2,0,7,10],"swapped_pitches":[0,-2,2,10,2,7,5,2,0,5,-2,7,-2,0,7,10],"shift_direction":-1,"question_num":101,"has_decoy":false},{"rt":5188.399999976158,"stimulus":"[A] option 1, [L] option 2, [G] neither","key_press":76,"name":"choice","trial_type":"html-keyboard-response","trial_index":131,"time_elapsed":427465,"internal_node_id":"0.0-131.0","subject":"S1C1613","sona":"41884","block":4,"time":"2021-09-15T19:24:07.035Z","response":"2nd","certainty":"high","char":"L","transposition":0,"order":["shifted","swapped"],"probe_pitches":[6,1,2,4,2,9,4,9,2,1,5,10,13,9,2,1],"shifted_pitches":[6,1,2,4,2,9,4,9,3,1,5,10,13,9,2,1],"swapped_pitches":[6,1,2,4,2,9,4,2,9,1,5,10,13,9,2,1],"shift_direction":1,"question_num":111,"has_decoy":false},{"rt":519,"stimulus":"[A] option 1, [L] option 2, [G] neither","key_press":76,"name":"choice","trial_type":"html-keyboard-response","trial_index":142,"time_elapsed":453094,"internal_node_id":"0.0-142.0","subject":"S1C1613","sona":"41884","block":4,"time":"2021-09-15T19:24:07.035Z","response":"2nd","certainty":"high","char":"L","transposition":3,"order":["swapped","shifted"],"probe_pitches":[8,3,8,0,3,10,3,8,0,3,5,0,5,0,10,8],"shifted_pitches":[8,3,8,0,3,10,3,8,1,3,5,0,5,0,10,8],"swapped_pitches":[8,3,8,0,3,10,3,0,8,3,5,0,5,0,10,8],"shift_direction":1,"question_num":121,"has_decoy":false},{"rt":18945,"stimulus":"[A] option 1, [L] option 2, [G] neither","key_press":65,"name":"choice","trial_type":"html-keyboard-response","trial_index":153,"time_elapsed":503764,"internal_node_id":"0.0-153.0","subject":"S1C1613","sona":"41884","block":4,"time":"2021-09-15T19:24:07.035Z","response":"1st","certainty":"high","char":"A","transposition":-2,"order":["swapped","shifted"],"probe_pitches":[3,9,6,1,5,10,7,9,10,13,12,6,2,10,4,12],"shifted_pitches":[3,9,6,1,5,10,7,8,10,13,12,6,2,10,4,12],"swapped_pitches":[3,9,6,1,5,10,7,10,9,13,12,6,2,10,4,12],"shift_direction":-1,"question_num":131,"has_decoy":false},{"rt":1113,"stimulus":"[A] option 1, [L] option 2, [G] neither","key_press":65,"name":"choice","trial_type":"html-keyboard-response","trial_index":164,"time_elapsed":531830,"internal_node_id":"0.0-164.0","subject":"S1C1613","sona":"41884","block":4,"time":"2021-09-15T19:24:07.035Z","response":"1st","certainty":"high","char":"A","transposition":2,"order":["shifted","swapped"],"probe_pitches":[8,12,11,8,10,2,9,3,6,8,12,2,8,10,9,7],"shifted_pitches":[8,12,11,8,10,2,9,3,5,8,12,2,8,10,9,7],"swapped_pitches":[8,12,11,8,10,2,9,6,3,8,12,2,8,10,9,7],"shift_direction":-1,"question_num":141,"has_decoy":false},{"rt":796.6000000238419,"stimulus":"[A] option 1, [L] option 2, [G] neither","key_press":65,"name":"choice","trial_type":"html-keyboard-response","trial_index":175,"time_elapsed":561287,"internal_node_id":"0.0-175.0","subject":"S1C1613","sona":"41884","block":4,"time":"2021-09-15T19:24:07.035Z","response":"1st","certainty":"high","char":"A","transposition":-1,"order":["shifted","swapped"],"probe_pitches":[1,3,1,-2,3,1,10,-2,1,8,6,3,1,10,6,8],"shifted_pitches":[1,3,1,-2,3,1,10,-1,1,8,6,3,1,10,6,8],"swapped_pitches":[1,3,1,-2,3,1,10,1,-2,8,6,3,1,10,6,8],"shift_direction":1,"question_num":151,"has_decoy":false},{"rt":952,"stimulus":"[A] option 1, [L] option 2, [G] neither","key_press":65,"name":"choice","trial_type":"html-keyboard-response","trial_index":186,"time_elapsed":586012,"internal_node_id":"0.0-186.0","subject":"S1C1613","sona":"41884","block":4,"time":"2021-09-15T19:24:07.035Z","response":"1st","certainty":"high","char":"A","transposition":-3,"order":["swapped","shifted"],"probe_pitches":[7,3,9,13,7,4,9,3,10,9,4,3,6,12,6,7],"shifted_pitches":[7,3,9,13,7,4,9,3,11,9,4,3,6,12,6,7],"swapped_pitches":[7,3,9,13,7,4,9,10,3,9,4,3,6,12,6,7],"shift_direction":1,"question_num":161,"has_decoy":false},{"rt":1171.3999999761581,"stimulus":"[A] option 1, [L] option 2, [G] neither","key_press":65,"name":"choice","trial_type":"html-keyboard-response","trial_index":197,"time_elapsed":613793,"internal_node_id":"0.0-197.0","subject":"S1C1613","sona":"41884","block":4,"time":"2021-09-15T19:24:07.035Z","response":"1st","certainty":"high","char":"A","transposition":0,"order":["swapped","shifted"],"probe_pitches":[3,7,10,7,-2,3,-2,7,10,-2,7,10,7,5,10,0],"shifted_pitches":[3,7,10,7,-2,3,-2,6,10,-2,7,10,7,5,10,0],"swapped_pitches":[3,7,10,7,-2,3,-2,10,7,-2,7,10,7,5,10,0],"shift_direction":-1,"question_num":171,"has_decoy":false},{"rt":1005.2999999523163,"stimulus":"[A] option 1, [L] option 2, [G] neither","key_press":65,"name":"choice","trial_type":"html-keyboard-response","trial_index":208,"time_elapsed":640574,"internal_node_id":"0.0-208.0","subject":"S1C1613","sona":"41884","block":4,"time":"2021-09-15T19:24:07.035Z","response":"1st","certainty":"high","char":"A","transposition":3,"order":["shifted","swapped"],"probe_pitches":[13,10,13,6,9,7,4,11,6,3,13,4,6,2,5,6],"shifted_pitches":[13,10,13,6,9,7,4,12,6,3,13,4,6,2,5,6],"swapped_pitches":[13,10,13,6,9,7,4,6,11,3,13,4,6,2,5,6],"shift_direction":1,"question_num":181,"has_decoy":false},{"rt":389.39999997615814,"stimulus":"[A] option 1, [L] option 2, [G] neither","key_press":65,"name":"choice","trial_type":"html-keyboard-response","trial_index":219,"time_elapsed":666080,"internal_node_id":"0.0-219.0","subject":"S1C1613","sona":"41884","block":4,"time":"2021-09-15T19:24:07.035Z","response":"1st","certainty":"high","char":"A","transposition":-2,"order":["swapped","shifted"],"probe_pitches":[11,13,9,2,9,6,5,8,13,11,3,6,9,12,2,3],"shifted_pitches":[11,13,9,2,9,6,5,7,13,11,3,6,9,12,2,3],"swapped_pitches":[11,13,9,2,9,6,5,13,8,11,3,6,9,12,2,3],"shift_direction":-1,"question_num":191,"has_decoy":false}]