[{"rt":5408.100000023842,"stimulus":"[A] option 1, [L] option 2, [G] neither","key_press":65,"name":"choice","trial_type":"html-keyboard-response","trial_index":10,"time_elapsed":28012,"internal_node_id":"0.0-10.0","subject":"S1C1613","sona":"41884","block":6,"time":"2021-09-15T19:51:36.155Z","response":"1st","certainty":"high","char":"A","transposition":-3,"order":["shifted","swapped"],"probe_pitches":[10,7,2,7,5,10,7,10,-2,7,5,10,2,10,0,2],"shifted_pitches":[10,7,2,7,5,10,7,11,-2,7,5,10,2,10,0,2],"swapped_pitches":[10,7,2,7,5,10,7,-2,10,7,5,10,2,10,0,2],"shift_direction":1,"question_num":1,"has_decoy":false},{"rt":404.7999999523163,"stimulus":"[A] option 1, [L] option 2, [G] neither","key_press":76,"name":"choice","trial_type":"html-keyboard-response","trial_index":21,"time_elapsed":61523,"internal_node_id":"0.0-21.0","subject":"S1C1613","sona":"41884","block":6,"time":"2021-09-15T19:51:36.155Z","response":"2nd","certainty":"high","char":"L","transposition":2,"order":["shifted","swapped"],"probe_pitches":[1,6,8,10,8,-2,1,8,3,-2,8,1,3,-2,3,8],"shifted_pitches":[1,6,8,10,8,-2,1,8,2,-2,8,1,3,-2,3,8],"swapped_pitches":[1,6,8,10,8,-2,1,3,8,-2,8,1,3,-2,3,8],"shift_direction":-1,"question_num":11,"has_decoy":false},{"rt":1136.3000000715256,"stimulus":"[A] option 1, [L] option 2, [G] neither","key_press":76,"name":"choice","trial_type":"html-keyboard-response","trial_index":32,"time_elapsed":87456,"internal_node_id":"0.0-32.0","subject":"S1C1613","sona":"41884","block":6,"time":"2021-09-15T19:51:36.155Z","response":"2nd","certainty":"high","char":"L","transposition":1,"order":["swapped","shifted"],"probe_pitches":[3,7,1,0,3,9,2,7,0,2,9,3,9,4,8,1],"shifted_pitches":[3,7,1,0,3,9,2,7,-1,2,9,3,9,4,8,1],"swapped_pitches":[3,7,1,0,3,9,2,0,7,2,9,3,9,4,8,1],"shift_direction":-1,"question_num":21,"has_decoy":false},{"rt":2969.5,"stimulus":"[A] option 1, [L] option 2, [G] neither","key_press":65,"name":"choice","trial_type":"html-keyboard-response","trial_index":43,"time_elapsed":119186,"internal_node_id":"0.0-43.0","subject":"S1C1613","sona":"41884","block":6,"time":"2021-09-15T19:51:36.155Z","response":"1st","certainty":"high","char":"A","transposition":-2,"order":["swapped","shifted"],"probe_pitches":[0,-2,2,0,-3,5,2,9,3,2,6,0,-3,1,0,-2],"shifted_pitches":[0,-2,2,0,-3,5,2,9,4,2,6,0,-3,1,0,-2],"swapped_pitches":[0,-2,2,0,-3,5,2,3,9,2,6,0,-3,1,0,-2],"shift_direction":1,"question_num":31,"has_decoy":false},{"rt":3140.399999976158,"stimulus":"[A] option 1, [L] option 2, [G] neither","key_press":76,"name":"choice","trial_type":"html-keyboard-response","trial_index":54,"time_elapsed":145052,"internal_node_id":"0.0-54.0","subject":"S1C1613","sona":"41884","block":6,"time":"2021-09-15T19:51:36.155Z","response":"2nd","certainty":"high","char":"L","transposition":3,"order":["shifted","swapped"],"probe_pitches":[5,2,-2,-3,-1,-3,4,-2,7,8,1,4,1,9,3,4],"shifted_pitches":[5,2,-2,-3,-1,-3,4,-2,6,8,1,4,1,9,3,4],"swapped_pitches":[5,2,-2,-3,-1,-3,4,7,-2,8,1,4,1,9,3,4],"shift_direction":-1,"question_num":41,"has_decoy":false},{"rt":1211.2000000476837,"stimulus":"[A] option 1, [L] option 2, [G] neither","key_press":65,"name":"choice","trial_type":"html-keyboard-response","trial_index":65,"time_elapsed":184342,"internal_node_id":"0.0-65.0","subject":"S1C1613","sona":"41884","block":6,"time":"2021-09-15T19:51:36.155Z","response":"1st","certainty":"high","char":"A","transposition":1,"order":["shifted","swapped"],"probe_pitches":[-2,3,0,-2,0,3,10,0,5,3,8,5,-2,0,3,5],"shifted_pitches":[-2,3,0,-2,0,3,10,0,6,3,8,5,-2,0,3,5],"swapped_pitches":[-2,3,0,-2,0,3,10,5,0,3,8,5,-2,0,3,5],"shift_direction":1,"question_num":51,"has_decoy":false},{"rt":567.0999999046326,"stimulus":"[A] option 1, [L] option 2, [G] neither","key_press":76,"name":"choice","trial_type":"html-keyboard-response","trial_index":76,"time_elapsed":209817,"internal_node_id":"0.0-76.0","subject":"S1C1613","sona":"41884","block":6,"time":"2021-09-15T19:51:36.155Z","response":"2nd","certainty":"high","char":"L","transposition":3,"order":["swapped","shifted"],"probe_pitches":[-2,3,10,7,5,-2,7,5,3,-2,0,-2,7,10,0,7],"shifted_pitches":[-2,3,10,7,5,-2,7,5,4,-2,0,-2,7,10,0,7],"swapped_pitches":[-2,3,10,7,5,-2,7,3,5,-2,0,-2,7,10,0,7],"shift_direction":1,"question_num":61,"has_decoy":false},{"rt":4244.5,"stimulus":"[A] option 1, [L] option 2, [G] neither","key_press":76,"name":"choice","trial_type":"html-keyboard-response","trial_index":87,"time_elapsed":238766,"internal_node_id":"0.0-87.0","subject":"S1C1613","sona":"41884","block":6,"time":"2021-09-15T19:51:36.155Z","response":"2nd","certainty":"high","char":"L","transposition":-2,"order":["swapped","shifted"],"probe_pitches":[-2,-1,0,-3,-1,1,0,3,1,4,8,7,-3,5,6,5],"shifted_pitches":[-2,-1,0,-3,-1,1,0,2,1,4,8,7,-3,5,6,5],"swapped_pitches":[-2,-1,0,-3,-1,1,0,1,3,4,8,7,-3,5,6,5],"shift_direction":-1,"question_num":71,"has_decoy":false},{"rt":11624.899999976158,"stimulus":"[A] option 1, [L] option 2, [G] neither","key_press":76,"name":"choice","trial_type":"html-keyboard-response","trial_index":98,"time_elapsed":276434,"internal_node_id":"0.0-98.0","subject":"S1C1613","sona":"41884","block":6,"time":"2021-09-15T19:51:36.155Z","response":"2nd","certainty":"high","char":"L","transposition":-3,"order":["swapped","shifted"],"probe_pitches":[-3,1,6,-1,0,9,7,6,-1,0,2,4,-3,-1,4,6],"shifted_pitches":[-3,1,6,-1,0,9,7,5,-1,0,2,4,-3,-1,4,6],"swapped_pitches":[-3,1,6,-1,0,9,7,-1,6,0,2,4,-3,-1,4,6],"shift_direction":-1,"question_num":81,"has_decoy":false},{"rt":13269.700000047684,"stimulus":"[A] option 1, [L] option 2, [G] neither","key_press":65,"name":"choice","trial_type":"html-keyboard-response","trial_index":109,"time_elapsed":321146,"internal_node_id":"0.0-109.0","subject":"S1C1613","sona":"41884","block":6,"time":"2021-09-15T19:51:36.155Z","response":"1st","certainty":"high","char":"A","transposition":-1,"order":["swapped","shifted"],"probe_pitches":[6,0,-2,0,4,-3,2,-1,0,3,5,3,5,7,-2,3],"shifted_pitches":[6,0,-2,0,4,-3,2,-1,1,3,5,3,5,7,-2,3],"swapped_pitches":[6,0,-2,0,4,-3,2,0,-1,3,5,3,5,7,-2,3],"shift_direction":1,"question_num":91,"has_decoy":false},{"rt":6353,"stimulus":"[A] option 1, [L] option 2, [G] neither","key_press":76,"name":"choice","trial_type":"html-keyboard-response","trial_index":120,"time_elapsed":364307,"internal_node_id":"0.0-120.0","subject":"S1C1613","sona":"41884","block":6,"time":"2021-09-15T19:51:36.155Z","response":"2nd","certainty":"high","char":"L","transposition":-1,"order":["shifted","swapped"],"probe_pitches":[2,0,-3,4,5,-3,1,-1,2,7,4,0,6,-3,8,2],"shifted_pitches":[2,0,-3,4,5,-3,1,-1,3,7,4,0,6,-3,8,2],"swapped_pitches":[2,0,-3,4,5,-3,1,2,-1,7,4,0,6,-3,8,2],"shift_direction":1,"question_num":101,"has_decoy":false},{"rt":2839.600000023842,"stimulus":"[A] option 1, [L] option 2, [G] neither","key_press":65,"name":"choice","trial_type":"html-keyboard-response","trial_index":131,"time_elapsed":393834,"internal_node_id":"0.0-131.0","subject":"S1C1613","sona":"41884","block":6,"time":"2021-09-15T19:51:36.155Z","response":"1st","certainty":"high","char":"A","transposition":-2,"order":["shifted","swapped"],"probe_pitches":[1,6,10,3,10,8,10,6,-2,8,3,-2,6,1,3,10],"shifted_pitches":[1,6,10,3,10,8,10,6,-3,8,3,-2,6,1,3,10],"swapped_pitches":[1,6,10,3,10,8,10,-2,6,8,3,-2,6,1,3,10],"shift_direction":-1,"question_num":111,"has_decoy":false},{"rt":8400.100000023842,"stimulus":"[A] option 1, [L] option 2, [G] neither","key_press":76,"name":"choice","trial_type":"html-keyboard-response","trial_index":142,"time_elapsed":436784,"internal_node_id":"0.0-142.0","subject":"S1C1613","sona":"41884","block":6,"time":"2021-09-15T19:51:36.155Z","response":"2nd","certainty":"high","char":"L","transposition":0,"order":["shifted","swapped"],"probe_pitches":[4,-1,-2,-3,3,4,2,7,5,0,4,6,0,1,-3,7],"shifted_pitches":[4,-1,-2,-3,3,4,2,8,5,0,4,6,0,1,-3,7],"swapped_pitches":[4,-1,-2,-3,3,4,2,5,7,0,4,6,0,1,-3,7],"shift_direction":1,"question_num":121,"has_decoy":false},{"rt":5212.199999928474,"stimulus":"[A] option 1, [L] option 2, [G] neither","key_press":65,"name":"choice","trial_type":"html-keyboard-response","trial_index":153,"time_elapsed":471357,"internal_node_id":"0.0-153.0","subject":"S1C1613","sona":"41884","block":6,"time":"2021-09-15T19:51:36.155Z","response":"1st","certainty":"high","char":"A","transposition":-3,"order":["shifted","swapped"],"probe_pitches":[-3,1,-2,3,1,7,-2,1,9,5,6,3,-2,5,3,-1],"shifted_pitches":[-3,1,-2,3,1,7,-2,0,9,5,6,3,-2,5,3,-1],"swapped_pitches":[-3,1,-2,3,1,7,-2,9,1,5,6,3,-2,5,3,-1],"shift_direction":-1,"question_num":131,"has_decoy":false},{"rt":1281,"stimulus":"[A] option 1, [L] option 2, [G] neither","key_press":76,"name":"choice","trial_type":"html-keyboard-response","trial_index":164,"time_elapsed":527933,"internal_node_id":"0.0-164.0","subject":"S1C1613","sona":"41884","block":6,"time":"2021-09-15T19:51:36.155Z","response":"2nd","certainty":"high","char":"L","transposition":-1,"order":["shifted","swapped"],"probe_pitches":[1,3,1,3,10,5,10,1,-2,10,-2,3,10,5,8,3],"shifted_pitches":[1,3,1,3,10,5,10,2,-2,10,-2,3,10,5,8,3],"swapped_pitches":[1,3,1,3,10,5,10,-2,1,10,-2,3,10,5,8,3],"shift_direction":1,"question_num":141,"has_decoy":false},{"rt":4697.899999976158,"stimulus":"[A] option 1, [L] option 2, [G] neither","key_press":65,"name":"choice","trial_type":"html-keyboard-response","trial_index":175,"time_elapsed":565301,"internal_node_id":"0.0-175.0","subject":"S1C1613","sona":"41884","block":6,"time":"2021-09-15T19:51:36.155Z","response":"1st","certainty":"high","char":"A","transposition":-3,"order":["swapped","shifted"],"probe_pitches":[7,5,7,10,7,2,7,-2,2,0,2,5,-2,2,0,7],"shifted_pitches":[7,5,7,10,7,2,7,-3,2,0,2,5,-2,2,0,7],"swapped_pitches":[7,5,7,10,7,2,7,2,-2,0,2,5,-2,2,0,7],"shift_direction":-1,"question_num":151,"has_decoy":false},{"rt":14275.599999904633,"stimulus":"[A] option 1, [L] option 2, [G] neither","key_press":65,"name":"choice","trial_type":"html-keyboard-response","trial_index":186,"time_elapsed":608288,"internal_node_id":"0.0-186.0","subject":"S1C1613","sona":"41884","block":6,"time":"2021-09-15T19:51:36.155Z","response":"1st","certainty":"high","char":"A","transposition":2,"order":["shifted","swapped"],"probe_pitches":[2,-2,-1,-2,-1,5,3,6,8,0,-1,5,3,0,6,9],"shifted_pitches":[2,-2,-1,-2,-1,5,3,7,8,0,-1,5,3,0,6,9],"swapped_pitches":[2,-2,-1,-2,-1,5,3,8,6,0,-1,5,3,0,6,9],"shift_direction":1,"question_num":161,"has_decoy":false},{"rt":1897.5,"stimulus":"[A] option 1, [L] option 2, [G] neither","key_press":65,"name":"choice","trial_type":"html-keyboard-response","trial_index":197,"time_elapsed":639267,"internal_node_id":"0.0-197.0","subject":"S1C1613","sona":"41884","block":6,"time":"2021-09-15T19:51:36.155Z","response":"1st","certainty":"high","char":"A","transposition":-1,"order":["swapped","shifted"],"probe_pitches":[5,3,-2,5,10,5,3,0,-2,10,7,0,7,5,10,0],"shifted_pitches":[5,3,-2,5,10,5,3,-1,-2,10,7,0,7,5,10,0],"swapped_pitches":[5,3,-2,5,10,5,3,-2,0,10,7,0,7,5,10,0],"shift_direction":-1,"question_num":171,"has_decoy":false},{"rt":6816.799999952316,"stimulus":"[A] option 1, [L] option 2, [G] neither","key_press":76,"name":"choice","trial_type":"html-keyboard-response","trial_index":208,"time_elapsed":682053,"internal_node_id":"0.0-208.0","subject":"S1C1613","sona":"41884","block":6,"time":"2021-09-15T19:51:36.155Z","response":"2nd","certainty":"high","char":"L","transposition":0,"order":["swapped","shifted"],"probe_pitches":[3,8,3,5,10,3,10,8,-2,1,10,-2,8,1,-2,1],"shifted_pitches":[3,8,3,5,10,3,10,8,-1,1,10,-2,8,1,-2,1],"swapped_pitches":[3,8,3,5,10,3,10,-2,8,1,10,-2,8,1,-2,1],"shift_direction":1,"question_num":181,"has_decoy":false},{"rt":3168.7000000476837,"stimulus":"[A] option 1, [L] option 2, [G] neither","key_press":65,"name":"choice","trial_type":"html-keyboard-response","trial_index":219,"time_elapsed":708665,"internal_node_id":"0.0-219.0","subject":"S1C1613","sona":"41884","block":6,"time":"2021-09-15T19:51:36.155Z","response":"1st","certainty":"high","char":"A","transposition":-2,"order":["swapped","shifted"],"probe_pitches":[5,3,0,8,0,3,10,-2,3,8,-2,10,8,0,10,-2],"shifted_pitches":[5,3,0,8,0,3,10,-3,3,8,-2,10,8,0,10,-2],"swapped_pitches":[5,3,0,8,0,3,10,3,-2,8,-2,10,8,0,10,-2],"shift_direction":-1,"question_num":191,"has_decoy":false}]