[{"rt":3297.5999999940395,"stimulus":"[A] option 1, [L] option 2, [G] neither","key_press":76,"name":"choice","trial_type":"html-keyboard-response","trial_index":10,"time_elapsed":30660,"internal_node_id":"0.0-10.0","subject":"S1C1663","sona":"41718","block":5,"time":"2021-09-23T01:13:16.895Z","response":"2nd","certainty":"high","char":"L","transposition":-2,"order":["swapped","shifted"],"probe_pitches":[7,5,10,8,15,8,10,11,5,12,4,14,9,11,13,14],"shifted_pitches":[7,5,10,8,15,8,10,11,6,12,4,14,9,11,13,14],"swapped_pitches":[7,5,10,8,15,8,10,5,11,12,4,14,9,11,13,14],"shift_direction":1,"question_num":1,"has_decoy":false},{"rt":1678.0999999940395,"stimulus":"[A] option 1, [L] option 2, [G] neither","key_press":76,"name":"choice","trial_type":"html-keyboard-response","trial_index":21,"time_elapsed":64739,"internal_node_id":"0.0-21.0","subject":"S1C1663","sona":"41718","block":5,"time":"2021-09-23T01:13:16.895Z","response":"2nd","certainty":"high","char":"L","transposition":-1,"order":["shifted","swapped"],"probe_pitches":[4,5,6,11,4,9,3,9,11,5,6,5,4,11,13,12],"shifted_pitches":[4,5,6,11,4,9,3,9,10,5,6,5,4,11,13,12],"swapped_pitches":[4,5,6,11,4,9,3,11,9,5,6,5,4,11,13,12],"shift_direction":-1,"question_num":11,"has_decoy":false},{"rt":3528.4000000059605,"stimulus":"[A] option 1, [L] option 2, [G] neither","key_press":65,"name":"choice","trial_type":"html-keyboard-response","trial_index":32,"time_elapsed":93760,"internal_node_id":"0.0-32.0","subject":"S1C1663","sona":"41718","block":5,"time":"2021-09-23T01:13:16.895Z","response":"1st","certainty":"high","char":"A","transposition":2,"order":["swapped","shifted"],"probe_pitches":[9,4,5,10,11,10,9,11,13,6,8,10,15,13,5,4],"shifted_pitches":[9,4,5,10,11,10,9,11,12,6,8,10,15,13,5,4],"swapped_pitches":[9,4,5,10,11,10,9,13,11,6,8,10,15,13,5,4],"shift_direction":-1,"question_num":21,"has_decoy":false},{"rt":758.9000000059605,"stimulus":"[A] option 1, [L] option 2, [G] neither","key_press":65,"name":"choice","trial_type":"html-keyboard-response","trial_index":43,"time_elapsed":118120,"internal_node_id":"0.0-43.0","subject":"S1C1663","sona":"41718","block":5,"time":"2021-09-23T01:13:16.895Z","response":"1st","certainty":"high","char":"A","transposition":-1,"order":["shifted","swapped"],"probe_pitches":[7,4,-1,-3,2,9,7,9,4,7,2,7,-1,7,2,-3],"shifted_pitches":[7,4,-1,-3,2,9,7,10,4,7,2,7,-1,7,2,-3],"swapped_pitches":[7,4,-1,-3,2,9,7,4,9,7,2,7,-1,7,2,-3],"shift_direction":1,"question_num":31,"has_decoy":false},{"rt":3268.7000000029802,"stimulus":"[A] option 1, [L] option 2, [G] neither","key_press":65,"name":"choice","trial_type":"html-keyboard-response","trial_index":54,"time_elapsed":144989,"internal_node_id":"0.0-54.0","subject":"S1C1663","sona":"41718","block":5,"time":"2021-09-23T01:13:16.895Z","response":"1st","certainty":"high","char":"A","transposition":-3,"order":["shifted","swapped"],"probe_pitches":[7,10,5,4,9,3,9,7,11,4,5,15,10,12,5,11],"shifted_pitches":[7,10,5,4,9,3,9,8,11,4,5,15,10,12,5,11],"swapped_pitches":[7,10,5,4,9,3,9,11,7,4,5,15,10,12,5,11],"shift_direction":1,"question_num":41,"has_decoy":false},{"rt":4180.20000000298,"stimulus":"[A] option 1, [L] option 2, [G] neither","key_press":65,"name":"choice","trial_type":"html-keyboard-response","trial_index":65,"time_elapsed":171820,"internal_node_id":"0.0-65.0","subject":"S1C1663","sona":"41718","block":5,"time":"2021-09-23T01:13:16.895Z","response":"1st","certainty":"high","char":"A","transposition":3,"order":["shifted","swapped"],"probe_pitches":[5,10,4,5,4,6,13,10,12,4,10,13,8,4,13,15],"shifted_pitches":[5,10,4,5,4,6,13,11,12,4,10,13,8,4,13,15],"swapped_pitches":[5,10,4,5,4,6,13,12,10,4,10,13,8,4,13,15],"shift_direction":1,"question_num":51,"has_decoy":false},{"rt":1918.9000000059605,"stimulus":"[A] option 1, [L] option 2, [G] neither","key_press":76,"name":"choice","trial_type":"html-keyboard-response","trial_index":76,"time_elapsed":197599,"internal_node_id":"0.0-76.0","subject":"S1C1663","sona":"41718","block":5,"time":"2021-09-23T01:13:16.895Z","response":"2nd","certainty":"high","char":"L","transposition":3,"order":["shifted","swapped"],"probe_pitches":[-3,0,-3,5,-3,7,9,2,0,9,0,-3,0,5,9,2],"shifted_pitches":[-3,0,-3,5,-3,7,9,1,0,9,0,-3,0,5,9,2],"swapped_pitches":[-3,0,-3,5,-3,7,9,0,2,9,0,-3,0,5,9,2],"shift_direction":-1,"question_num":61,"has_decoy":false},{"rt":909.4000000059605,"stimulus":"[A] option 1, [L] option 2, [G] neither","key_press":76,"name":"choice","trial_type":"html-keyboard-response","trial_index":87,"time_elapsed":221379,"internal_node_id":"0.0-87.0","subject":"S1C1663","sona":"41718","block":5,"time":"2021-09-23T01:13:16.895Z","response":"2nd","certainty":"high","char":"L","transposition":-3,"order":["shifted","swapped"],"probe_pitches":[0,4,-3,2,9,4,2,7,-3,0,-3,7,2,4,0,7],"shifted_pitches":[0,4,-3,2,9,4,2,7,-2,0,-3,7,2,4,0,7],"swapped_pitches":[0,4,-3,2,9,4,2,-3,7,0,-3,7,2,4,0,7],"shift_direction":1,"question_num":71,"has_decoy":false},{"rt":1119.7000000029802,"stimulus":"[A] option 1, [L] option 2, [G] neither","key_press":65,"name":"choice","trial_type":"html-keyboard-response","trial_index":98,"time_elapsed":247540,"internal_node_id":"0.0-98.0","subject":"S1C1663","sona":"41718","block":5,"time":"2021-09-23T01:13:16.895Z","response":"1st","certainty":"high","char":"A","transposition":-3,"order":["swapped","shifted"],"probe_pitches":[6,2,4,2,-3,-1,4,6,-1,9,-1,9,-3,6,2,-3],"shifted_pitches":[6,2,4,2,-3,-1,4,6,-2,9,-1,9,-3,6,2,-3],"swapped_pitches":[6,2,4,2,-3,-1,4,-1,6,9,-1,9,-3,6,2,-3],"shift_direction":-1,"question_num":81,"has_decoy":false},{"rt":499.6000000089407,"stimulus":"[A] option 1, [L] option 2, [G] neither","key_press":65,"name":"choice","trial_type":"html-keyboard-response","trial_index":109,"time_elapsed":271880,"internal_node_id":"0.0-109.0","subject":"S1C1663","sona":"41718","block":5,"time":"2021-09-23T01:13:16.895Z","response":"1st","certainty":"high","char":"A","transposition":-2,"order":["shifted","swapped"],"probe_pitches":[2,4,7,2,-3,-1,-3,9,4,-1,4,9,4,-1,9,-1],"shifted_pitches":[2,4,7,2,-3,-1,-3,9,3,-1,4,9,4,-1,9,-1],"swapped_pitches":[2,4,7,2,-3,-1,-3,4,9,-1,4,9,4,-1,9,-1],"shift_direction":-1,"question_num":91,"has_decoy":false},{"rt":850.9000000059605,"stimulus":"[A] option 1, [L] option 2, [G] neither","key_press":76,"name":"choice","trial_type":"html-keyboard-response","trial_index":120,"time_elapsed":296671,"internal_node_id":"0.0-120.0","subject":"S1C1663","sona":"41718","block":5,"time":"2021-09-23T01:13:16.895Z","response":"2nd","certainty":"high","char":"L","transposition":1,"order":["swapped","shifted"],"probe_pitches":[6,1,4,9,1,-1,9,6,4,-3,6,-1,-3,1,6,4],"shifted_pitches":[6,1,4,9,1,-1,9,6,5,-3,6,-1,-3,1,6,4],"swapped_pitches":[6,1,4,9,1,-1,9,4,6,-3,6,-1,-3,1,6,4],"shift_direction":1,"question_num":101,"has_decoy":false},{"rt":340.1000000089407,"stimulus":"[A] option 1, [L] option 2, [G] neither","key_press":65,"name":"choice","trial_type":"html-keyboard-response","trial_index":131,"time_elapsed":319780,"internal_node_id":"0.0-131.0","subject":"S1C1663","sona":"41718","block":5,"time":"2021-09-23T01:13:16.895Z","response":"1st","certainty":"high","char":"A","transposition":-2,"order":["shifted","swapped"],"probe_pitches":[6,2,-1,2,4,9,6,9,-1,4,2,-1,9,4,6,4],"shifted_pitches":[6,2,-1,2,4,9,6,8,-1,4,2,-1,9,4,6,4],"swapped_pitches":[6,2,-1,2,4,9,6,-1,9,4,2,-1,9,4,6,4],"shift_direction":-1,"question_num":111,"has_decoy":false},{"rt":6339.70000000298,"stimulus":"[A] option 1, [L] option 2, [G] neither","key_press":71,"name":"choice","trial_type":"html-keyboard-response","trial_index":142,"time_elapsed":348520,"internal_node_id":"0.0-142.0","subject":"S1C1663","sona":"41718","block":5,"time":"2021-09-23T01:13:16.895Z","response":"neither","certainty":"high","char":"G","transposition":1,"order":["swapped","shifted"],"probe_pitches":[9,15,8,10,5,4,12,4,13,11,9,13,12,15,5,3],"shifted_pitches":[9,15,8,10,5,4,12,4,14,11,9,13,12,15,5,3],"swapped_pitches":[9,15,8,10,5,4,12,13,4,11,9,13,12,15,5,3],"shift_direction":1,"question_num":121,"has_decoy":false},{"rt":2400.6000000089407,"stimulus":"[A] option 1, [L] option 2, [G] neither","key_press":65,"name":"choice","trial_type":"html-keyboard-response","trial_index":153,"time_elapsed":374290,"internal_node_id":"0.0-153.0","subject":"S1C1663","sona":"41718","block":5,"time":"2021-09-23T01:13:16.895Z","response":"1st","certainty":"high","char":"A","transposition":-3,"order":["shifted","swapped"],"probe_pitches":[10,13,14,11,10,13,11,8,12,5,8,9,8,13,6,12],"shifted_pitches":[10,13,14,11,10,13,11,7,12,5,8,9,8,13,6,12],"swapped_pitches":[10,13,14,11,10,13,11,12,8,5,8,9,8,13,6,12],"shift_direction":-1,"question_num":131,"has_decoy":false},{"rt":1090.4000000059605,"stimulus":"[A] option 1, [L] option 2, [G] neither","key_press":76,"name":"choice","trial_type":"html-keyboard-response","trial_index":164,"time_elapsed":398190,"internal_node_id":"0.0-164.0","subject":"S1C1663","sona":"41718","block":5,"time":"2021-09-23T01:13:16.895Z","response":"2nd","certainty":"high","char":"L","transposition":-2,"order":["swapped","shifted"],"probe_pitches":[9,12,10,12,9,8,4,6,8,10,13,9,10,9,15,13],"shifted_pitches":[9,12,10,12,9,8,4,5,8,10,13,9,10,9,15,13],"swapped_pitches":[9,12,10,12,9,8,4,8,6,10,13,9,10,9,15,13],"shift_direction":-1,"question_num":141,"has_decoy":false},{"rt":3001,"stimulus":"[A] option 1, [L] option 2, [G] neither","key_press":65,"name":"choice","trial_type":"html-keyboard-response","trial_index":175,"time_elapsed":423731,"internal_node_id":"0.0-175.0","subject":"S1C1663","sona":"41718","block":5,"time":"2021-09-23T01:13:16.895Z","response":"1st","certainty":"high","char":"A","transposition":-1,"order":["shifted","swapped"],"probe_pitches":[4,7,6,12,3,10,11,8,13,7,10,3,10,13,14,6],"shifted_pitches":[4,7,6,12,3,10,11,9,13,7,10,3,10,13,14,6],"swapped_pitches":[4,7,6,12,3,10,11,13,8,7,10,3,10,13,14,6],"shift_direction":1,"question_num":151,"has_decoy":false},{"rt":1160.800000011921,"stimulus":"[A] option 1, [L] option 2, [G] neither","key_press":65,"name":"choice","trial_type":"html-keyboard-response","trial_index":186,"time_elapsed":448621,"internal_node_id":"0.0-186.0","subject":"S1C1663","sona":"41718","block":5,"time":"2021-09-23T01:13:16.895Z","response":"1st","certainty":"high","char":"A","transposition":0,"order":["swapped","shifted"],"probe_pitches":[12,11,6,7,14,5,6,4,14,10,4,3,7,5,12,9],"shifted_pitches":[12,11,6,7,14,5,6,4,13,10,4,3,7,5,12,9],"swapped_pitches":[12,11,6,7,14,5,6,14,4,10,4,3,7,5,12,9],"shift_direction":-1,"question_num":161,"has_decoy":false},{"rt":1140.5,"stimulus":"[A] option 1, [L] option 2, [G] neither","key_press":76,"name":"choice","trial_type":"html-keyboard-response","trial_index":197,"time_elapsed":472400,"internal_node_id":"0.0-197.0","subject":"S1C1663","sona":"41718","block":5,"time":"2021-09-23T01:13:16.895Z","response":"2nd","certainty":"high","char":"L","transposition":-1,"order":["swapped","shifted"],"probe_pitches":[9,4,9,4,1,-3,1,-1,6,1,4,6,9,-1,-3,1],"shifted_pitches":[9,4,9,4,1,-3,1,-2,6,1,4,6,9,-1,-3,1],"swapped_pitches":[9,4,9,4,1,-3,1,6,-1,1,4,6,9,-1,-3,1],"shift_direction":-1,"question_num":171,"has_decoy":false},{"rt":1321.7000000029802,"stimulus":"[A] option 1, [L] option 2, [G] neither","key_press":65,"name":"choice","trial_type":"html-keyboard-response","trial_index":208,"time_elapsed":496322,"internal_node_id":"0.0-208.0","subject":"S1C1663","sona":"41718","block":5,"time":"2021-09-23T01:13:16.895Z","response":"1st","certainty":"high","char":"A","transposition":0,"order":["swapped","shifted"],"probe_pitches":[0,-3,2,0,7,2,9,2,-3,4,-3,4,7,0,4,-3],"shifted_pitches":[0,-3,2,0,7,2,9,3,-3,4,-3,4,7,0,4,-3],"swapped_pitches":[0,-3,2,0,7,2,9,-3,2,4,-3,4,7,0,4,-3],"shift_direction":1,"question_num":181,"has_decoy":false},{"rt":2001.699999988079,"stimulus":"[A] option 1, [L] option 2, [G] neither","key_press":65,"name":"choice","trial_type":"html-keyboard-response","trial_index":219,"time_elapsed":520941,"internal_node_id":"0.0-219.0","subject":"S1C1663","sona":"41718","block":5,"time":"2021-09-23T01:13:16.895Z","response":"1st","certainty":"high","char":"A","transposition":2,"order":["swapped","shifted"],"probe_pitches":[0,5,9,2,0,5,7,2,-3,5,9,2,-3,0,5,2],"shifted_pitches":[0,5,9,2,0,5,7,2,-2,5,9,2,-3,0,5,2],"swapped_pitches":[0,5,9,2,0,5,7,-3,2,5,9,2,-3,0,5,2],"shift_direction":1,"question_num":191,"has_decoy":false}]