[{"rt":1001,"stimulus":"[A] option 1, [L] option 2, [G] neither","key_press":65,"name":"choice","trial_type":"html-keyboard-response","trial_index":10,"time_elapsed":25701,"internal_node_id":"0.0-10.0","subject":"S1C1663","sona":"41718","block":3,"time":"2021-09-23T00:49:05.823Z","response":"1st","certainty":"high","char":"A","transposition":-3,"order":["shifted","swapped"],"probe_pitches":[4,6,11,6,4,-1,4,6,11,8,6,4,11,8,1,11],"shifted_pitches":[4,6,11,6,4,-1,4,7,11,8,6,4,11,8,1,11],"swapped_pitches":[4,6,11,6,4,-1,4,11,6,8,6,4,11,8,1,11],"shift_direction":1,"question_num":1,"has_decoy":false},{"rt":1191.6000000089407,"stimulus":"[A] option 1, [L] option 2, [G] neither","key_press":76,"name":"choice","trial_type":"html-keyboard-response","trial_index":21,"time_elapsed":50671,"internal_node_id":"0.0-21.0","subject":"S1C1663","sona":"41718","block":3,"time":"2021-09-23T00:49:05.823Z","response":"2nd","certainty":"high","char":"L","transposition":-2,"order":["swapped","shifted"],"probe_pitches":[6,11,9,6,11,9,4,11,6,2,11,9,4,2,11,2],"shifted_pitches":[6,11,9,6,11,9,4,12,6,2,11,9,4,2,11,2],"swapped_pitches":[6,11,9,6,11,9,4,6,11,2,11,9,4,2,11,2],"shift_direction":1,"question_num":11,"has_decoy":false},{"rt":1081.2999999970198,"stimulus":"[A] option 1, [L] option 2, [G] neither","key_press":76,"name":"choice","trial_type":"html-keyboard-response","trial_index":32,"time_elapsed":76765,"internal_node_id":"0.0-32.0","subject":"S1C1663","sona":"41718","block":3,"time":"2021-09-23T00:49:05.823Z","response":"2nd","certainty":"high","char":"L","transposition":-2,"order":["shifted","swapped"],"probe_pitches":[-2,0,-2,3,0,-2,3,8,4,0,4,7,0,4,10,4],"shifted_pitches":[-2,0,-2,3,0,-2,3,9,4,0,4,7,0,4,10,4],"swapped_pitches":[-2,0,-2,3,0,-2,3,4,8,0,4,7,0,4,10,4],"shift_direction":1,"question_num":21,"has_decoy":false},{"rt":2341.7000000029802,"stimulus":"[A] option 1, [L] option 2, [G] neither","key_press":65,"name":"choice","trial_type":"html-keyboard-response","trial_index":43,"time_elapsed":104435,"internal_node_id":"0.0-43.0","subject":"S1C1663","sona":"41718","block":3,"time":"2021-09-23T00:49:05.823Z","response":"1st","certainty":"high","char":"A","transposition":-1,"order":["swapped","shifted"],"probe_pitches":[4,3,9,1,7,10,2,4,3,1,9,7,1,3,0,1],"shifted_pitches":[4,3,9,1,7,10,2,5,3,1,9,7,1,3,0,1],"swapped_pitches":[4,3,9,1,7,10,2,3,4,1,9,7,1,3,0,1],"shift_direction":1,"question_num":31,"has_decoy":false},{"rt":1892.2999999970198,"stimulus":"[A] option 1, [L] option 2, [G] neither","key_press":76,"name":"choice","trial_type":"html-keyboard-response","trial_index":54,"time_elapsed":129795,"internal_node_id":"0.0-54.0","subject":"S1C1663","sona":"41718","block":3,"time":"2021-09-23T00:49:05.823Z","response":"2nd","certainty":"high","char":"L","transposition":0,"order":["shifted","swapped"],"probe_pitches":[6,11,8,6,4,11,1,4,6,11,8,4,-1,1,11,1],"shifted_pitches":[6,11,8,6,4,11,1,3,6,11,8,4,-1,1,11,1],"swapped_pitches":[6,11,8,6,4,11,1,6,4,11,8,4,-1,1,11,1],"shift_direction":-1,"question_num":41,"has_decoy":false},{"rt":3011.7999999970198,"stimulus":"[A] option 1, [L] option 2, [G] neither","key_press":71,"name":"choice","trial_type":"html-keyboard-response","trial_index":65,"time_elapsed":158025,"internal_node_id":"0.0-65.0","subject":"S1C1663","sona":"41718","block":3,"time":"2021-09-23T00:49:05.823Z","response":"neither","certainty":"high","char":"G","transposition":3,"order":["shifted","swapped"],"probe_pitches":[1,7,1,-2,7,-2,6,9,5,10,5,10,1,0,9,1],"shifted_pitches":[1,7,1,-2,7,-2,6,8,5,10,5,10,1,0,9,1],"swapped_pitches":[1,7,1,-2,7,-2,6,5,9,10,5,10,1,0,9,1],"shift_direction":-1,"question_num":51,"has_decoy":false},{"rt":1242.699999988079,"stimulus":"[A] option 1, [L] option 2, [G] neither","key_press":76,"name":"choice","trial_type":"html-keyboard-response","trial_index":76,"time_elapsed":183295,"internal_node_id":"0.0-76.0","subject":"S1C1663","sona":"41718","block":3,"time":"2021-09-23T00:49:05.823Z","response":"2nd","certainty":"high","char":"L","transposition":-1,"order":["swapped","shifted"],"probe_pitches":[1,6,11,9,1,-1,4,6,11,-1,6,4,9,1,9,11],"shifted_pitches":[1,6,11,9,1,-1,4,6,12,-1,6,4,9,1,9,11],"swapped_pitches":[1,6,11,9,1,-1,4,11,6,-1,6,4,9,1,9,11],"shift_direction":1,"question_num":61,"has_decoy":false},{"rt":1622.5,"stimulus":"[A] option 1, [L] option 2, [G] neither","key_press":65,"name":"choice","trial_type":"html-keyboard-response","trial_index":87,"time_elapsed":209086,"internal_node_id":"0.0-87.0","subject":"S1C1663","sona":"41718","block":3,"time":"2021-09-23T00:49:05.823Z","response":"1st","certainty":"high","char":"A","transposition":0,"order":["swapped","shifted"],"probe_pitches":[1,4,7,4,9,0,8,9,4,8,2,1,7,10,1,6],"shifted_pitches":[1,4,7,4,9,0,8,9,3,8,2,1,7,10,1,6],"swapped_pitches":[1,4,7,4,9,0,8,4,9,8,2,1,7,10,1,6],"shift_direction":-1,"question_num":71,"has_decoy":false},{"rt":572.0999999940395,"stimulus":"[A] option 1, [L] option 2, [G] neither","key_press":65,"name":"choice","trial_type":"html-keyboard-response","trial_index":98,"time_elapsed":236426,"internal_node_id":"0.0-98.0","subject":"S1C1663","sona":"41718","block":3,"time":"2021-09-23T00:49:05.823Z","response":"1st","certainty":"high","char":"A","transposition":1,"order":["shifted","swapped"],"probe_pitches":[7,4,-1,4,9,7,9,7,11,2,-1,4,7,4,-1,7],"shifted_pitches":[7,4,-1,4,9,7,9,7,10,2,-1,4,7,4,-1,7],"swapped_pitches":[7,4,-1,4,9,7,9,11,7,2,-1,4,7,4,-1,7],"shift_direction":-1,"question_num":81,"has_decoy":false},{"rt":2123.5,"stimulus":"[A] option 1, [L] option 2, [G] neither","key_press":76,"name":"choice","trial_type":"html-keyboard-response","trial_index":109,"time_elapsed":260946,"internal_node_id":"0.0-109.0","subject":"S1C1663","sona":"41718","block":3,"time":"2021-09-23T00:49:05.823Z","response":"2nd","certainty":"high","char":"L","transposition":-3,"order":["shifted","swapped"],"probe_pitches":[-1,4,11,9,7,2,7,11,4,7,11,7,-1,9,-1,2],"shifted_pitches":[-1,4,11,9,7,2,7,11,3,7,11,7,-1,9,-1,2],"swapped_pitches":[-1,4,11,9,7,2,7,4,11,7,11,7,-1,9,-1,2],"shift_direction":-1,"question_num":91,"has_decoy":false},{"rt":433.6000000089407,"stimulus":"[A] option 1, [L] option 2, [G] neither","key_press":76,"name":"choice","trial_type":"html-keyboard-response","trial_index":120,"time_elapsed":292666,"internal_node_id":"0.0-120.0","subject":"S1C1663","sona":"41718","block":3,"time":"2021-09-23T00:49:05.823Z","response":"2nd","certainty":"high","char":"L","transposition":-1,"order":["swapped","shifted"],"probe_pitches":[4,6,4,2,9,-1,6,11,9,2,6,11,-1,2,9,2],"shifted_pitches":[4,6,4,2,9,-1,6,10,9,2,6,11,-1,2,9,2],"swapped_pitches":[4,6,4,2,9,-1,6,9,11,2,6,11,-1,2,9,2],"shift_direction":-1,"question_num":101,"has_decoy":false},{"rt":1313.0999999940395,"stimulus":"[A] option 1, [L] option 2, [G] neither","key_press":65,"name":"choice","trial_type":"html-keyboard-response","trial_index":131,"time_elapsed":319115,"internal_node_id":"0.0-131.0","subject":"S1C1663","sona":"41718","block":3,"time":"2021-09-23T00:49:05.823Z","response":"1st","certainty":"high","char":"A","transposition":-3,"order":["shifted","swapped"],"probe_pitches":[4,7,2,1,0,7,10,-2,5,0,-1,8,9,8,0,8],"shifted_pitches":[4,7,2,1,0,7,10,-2,6,0,-1,8,9,8,0,8],"swapped_pitches":[4,7,2,1,0,7,10,5,-2,0,-1,8,9,8,0,8],"shift_direction":1,"question_num":111,"has_decoy":false},{"rt":2003.7000000029802,"stimulus":"[A] option 1, [L] option 2, [G] neither","key_press":76,"name":"choice","trial_type":"html-keyboard-response","trial_index":142,"time_elapsed":345896,"internal_node_id":"0.0-142.0","subject":"S1C1663","sona":"41718","block":3,"time":"2021-09-23T00:49:05.823Z","response":"2nd","certainty":"high","char":"L","transposition":2,"order":["shifted","swapped"],"probe_pitches":[6,3,6,1,-1,6,-1,8,3,1,-1,8,3,11,8,6],"shifted_pitches":[6,3,6,1,-1,6,-1,7,3,1,-1,8,3,11,8,6],"swapped_pitches":[6,3,6,1,-1,6,-1,3,8,1,-1,8,3,11,8,6],"shift_direction":-1,"question_num":121,"has_decoy":false},{"rt":1213,"stimulus":"[A] option 1, [L] option 2, [G] neither","key_press":76,"name":"choice","trial_type":"html-keyboard-response","trial_index":153,"time_elapsed":370915,"internal_node_id":"0.0-153.0","subject":"S1C1663","sona":"41718","block":3,"time":"2021-09-23T00:49:05.823Z","response":"2nd","certainty":"high","char":"L","transposition":3,"order":["swapped","shifted"],"probe_pitches":[1,6,1,-1,8,6,-1,11,6,-1,3,8,1,3,-1,11],"shifted_pitches":[1,6,1,-1,8,6,-1,11,7,-1,3,8,1,3,-1,11],"swapped_pitches":[1,6,1,-1,8,6,-1,6,11,-1,3,8,1,3,-1,11],"shift_direction":1,"question_num":131,"has_decoy":false},{"rt":1406.6000000089407,"stimulus":"[A] option 1, [L] option 2, [G] neither","key_press":76,"name":"choice","trial_type":"html-keyboard-response","trial_index":164,"time_elapsed":395144,"internal_node_id":"0.0-164.0","subject":"S1C1663","sona":"41718","block":3,"time":"2021-09-23T00:49:05.823Z","response":"2nd","certainty":"high","char":"L","transposition":-2,"order":["shifted","swapped"],"probe_pitches":[6,7,8,9,2,4,2,3,-1,9,6,4,7,6,3,1],"shifted_pitches":[6,7,8,9,2,4,2,3,0,9,6,4,7,6,3,1],"swapped_pitches":[6,7,8,9,2,4,2,-1,3,9,6,4,7,6,3,1],"shift_direction":1,"question_num":141,"has_decoy":false},{"rt":1134.3999999910593,"stimulus":"[A] option 1, [L] option 2, [G] neither","key_press":76,"name":"choice","trial_type":"html-keyboard-response","trial_index":175,"time_elapsed":421782,"internal_node_id":"0.0-175.0","subject":"S1C1663","sona":"41718","block":3,"time":"2021-09-23T00:49:05.823Z","response":"2nd","certainty":"high","char":"L","transposition":1,"order":["swapped","shifted"],"probe_pitches":[7,1,4,9,7,4,6,0,1,9,3,7,0,9,5,7],"shifted_pitches":[7,1,4,9,7,4,6,0,2,9,3,7,0,9,5,7],"swapped_pitches":[7,1,4,9,7,4,6,1,0,9,3,7,0,9,5,7],"shift_direction":1,"question_num":151,"has_decoy":false},{"rt":1984.2999999970198,"stimulus":"[A] option 1, [L] option 2, [G] neither","key_press":65,"name":"choice","trial_type":"html-keyboard-response","trial_index":186,"time_elapsed":468781,"internal_node_id":"0.0-186.0","subject":"S1C1663","sona":"41718","block":3,"time":"2021-09-23T00:49:05.823Z","response":"1st","certainty":"high","char":"A","transposition":-3,"order":["shifted","swapped"],"probe_pitches":[10,5,-1,-2,5,0,4,2,0,3,-2,8,4,5,-1,2],"shifted_pitches":[10,5,-1,-2,5,0,4,1,0,3,-2,8,4,5,-1,2],"swapped_pitches":[10,5,-1,-2,5,0,4,0,2,3,-2,8,4,5,-1,2],"shift_direction":-1,"question_num":161,"has_decoy":false},{"rt":1263.9000000059605,"stimulus":"[A] option 1, [L] option 2, [G] neither","key_press":65,"name":"choice","trial_type":"html-keyboard-response","trial_index":197,"time_elapsed":493780,"internal_node_id":"0.0-197.0","subject":"S1C1663","sona":"41718","block":3,"time":"2021-09-23T00:49:05.823Z","response":"1st","certainty":"high","char":"A","transposition":2,"order":["swapped","shifted"],"probe_pitches":[8,5,-1,-2,5,-1,1,5,9,10,6,0,9,-1,9,8],"shifted_pitches":[8,5,-1,-2,5,-1,1,4,9,10,6,0,9,-1,9,8],"swapped_pitches":[8,5,-1,-2,5,-1,1,9,5,10,6,0,9,-1,9,8],"shift_direction":-1,"question_num":171,"has_decoy":false},{"rt":3134.5,"stimulus":"[A] option 1, [L] option 2, [G] neither","key_press":65,"name":"choice","trial_type":"html-keyboard-response","trial_index":208,"time_elapsed":520236,"internal_node_id":"0.0-208.0","subject":"S1C1663","sona":"41718","block":3,"time":"2021-09-23T00:49:05.823Z","response":"1st","certainty":"high","char":"A","transposition":-1,"order":["swapped","shifted"],"probe_pitches":[10,4,-2,6,3,10,3,5,8,0,10,8,10,8,5,9],"shifted_pitches":[10,4,-2,6,3,10,3,5,7,0,10,8,10,8,5,9],"swapped_pitches":[10,4,-2,6,3,10,3,8,5,0,10,8,10,8,5,9],"shift_direction":-1,"question_num":181,"has_decoy":false},{"rt":1405.7000000029802,"stimulus":"[A] option 1, [L] option 2, [G] neither","key_press":76,"name":"choice","trial_type":"html-keyboard-response","trial_index":219,"time_elapsed":544757,"internal_node_id":"0.0-219.0","subject":"S1C1663","sona":"41718","block":3,"time":"2021-09-23T00:49:05.823Z","response":"2nd","certainty":"high","char":"L","transposition":-2,"order":["swapped","shifted"],"probe_pitches":[6,9,4,11,4,9,1,4,6,-1,9,1,9,4,9,-1],"shifted_pitches":[6,9,4,11,4,9,1,4,7,-1,9,1,9,4,9,-1],"swapped_pitches":[6,9,4,11,4,9,1,6,4,-1,9,1,9,4,9,-1],"shift_direction":1,"question_num":191,"has_decoy":false}]