[{"rt":1663.2999999970198,"stimulus":"[A] option 1, [L] option 2, [G] neither","key_press":76,"name":"choice","trial_type":"html-keyboard-response","trial_index":10,"time_elapsed":29874,"internal_node_id":"0.0-10.0","subject":"S1C1663","sona":"41718","block":2,"time":"2021-09-23T00:36:40.855Z","response":"2nd","certainty":"high","char":"L","transposition":-2,"order":["shifted","swapped"],"probe_pitches":[4,7,8,15,6,5,13,11,8,12,3,12,9,12,9,11],"shifted_pitches":[4,7,8,15,6,5,13,10,8,12,3,12,9,12,9,11],"swapped_pitches":[4,7,8,15,6,5,13,8,11,12,3,12,9,12,9,11],"shift_direction":-1,"question_num":1,"has_decoy":false},{"rt":2123.5,"stimulus":"[A] option 1, [L] option 2, [G] neither","key_press":65,"name":"choice","trial_type":"html-keyboard-response","trial_index":21,"time_elapsed":59022,"internal_node_id":"0.0-21.0","subject":"S1C1663","sona":"41718","block":2,"time":"2021-09-23T00:36:40.855Z","response":"1st","certainty":"high","char":"A","transposition":-3,"order":["shifted","swapped"],"probe_pitches":[4,-1,1,6,4,6,1,9,11,-1,1,4,1,4,11,9],"shifted_pitches":[4,-1,1,6,4,6,1,9,10,-1,1,4,1,4,11,9],"swapped_pitches":[4,-1,1,6,4,6,1,11,9,-1,1,4,1,4,11,9],"shift_direction":-1,"question_num":11,"has_decoy":false},{"rt":1173.7999999970198,"stimulus":"[A] option 1, [L] option 2, [G] neither","key_press":76,"name":"choice","trial_type":"html-keyboard-response","trial_index":32,"time_elapsed":84152,"internal_node_id":"0.0-32.0","subject":"S1C1663","sona":"41718","block":2,"time":"2021-09-23T00:36:40.855Z","response":"2nd","certainty":"high","char":"L","transposition":-1,"order":["shifted","swapped"],"probe_pitches":[8,4,5,7,5,8,15,10,12,9,12,13,9,4,9,12],"shifted_pitches":[8,4,5,7,5,8,15,10,11,9,12,13,9,4,9,12],"swapped_pitches":[8,4,5,7,5,8,15,12,10,9,12,13,9,4,9,12],"shift_direction":-1,"question_num":21,"has_decoy":false},{"rt":1153.2999999970198,"stimulus":"[A] option 1, [L] option 2, [G] neither","key_press":76,"name":"choice","trial_type":"html-keyboard-response","trial_index":43,"time_elapsed":108752,"internal_node_id":"0.0-43.0","subject":"S1C1663","sona":"41718","block":2,"time":"2021-09-23T00:36:40.855Z","response":"2nd","certainty":"high","char":"L","transposition":-3,"order":["shifted","swapped"],"probe_pitches":[9,7,11,8,12,13,15,3,4,10,5,12,6,4,10,4],"shifted_pitches":[9,7,11,8,12,13,15,2,4,10,5,12,6,4,10,4],"swapped_pitches":[9,7,11,8,12,13,15,4,3,10,5,12,6,4,10,4],"shift_direction":-1,"question_num":31,"has_decoy":false},{"rt":493.70000000298023,"stimulus":"[A] option 1, [L] option 2, [G] neither","key_press":76,"name":"choice","trial_type":"html-keyboard-response","trial_index":54,"time_elapsed":132627,"internal_node_id":"0.0-54.0","subject":"S1C1663","sona":"41718","block":2,"time":"2021-09-23T00:36:40.855Z","response":"2nd","certainty":"high","char":"L","transposition":-1,"order":["shifted","swapped"],"probe_pitches":[6,11,7,8,15,13,7,8,12,15,8,7,6,4,8,11],"shifted_pitches":[6,11,7,8,15,13,7,9,12,15,8,7,6,4,8,11],"swapped_pitches":[6,11,7,8,15,13,7,12,8,15,8,7,6,4,8,11],"shift_direction":1,"question_num":41,"has_decoy":false},{"rt":491.79999999701977,"stimulus":"[A] option 1, [L] option 2, [G] neither","key_press":76,"name":"choice","trial_type":"html-keyboard-response","trial_index":65,"time_elapsed":156257,"internal_node_id":"0.0-65.0","subject":"S1C1663","sona":"41718","block":2,"time":"2021-09-23T00:36:40.855Z","response":"2nd","certainty":"high","char":"L","transposition":3,"order":["swapped","shifted"],"probe_pitches":[-1,4,7,11,7,11,4,-1,9,4,9,7,4,9,7,2],"shifted_pitches":[-1,4,7,11,7,11,4,-2,9,4,9,7,4,9,7,2],"swapped_pitches":[-1,4,7,11,7,11,4,9,-1,4,9,7,4,9,7,2],"shift_direction":-1,"question_num":51,"has_decoy":false},{"rt":1194.7000000029802,"stimulus":"[A] option 1, [L] option 2, [G] neither","key_press":65,"name":"choice","trial_type":"html-keyboard-response","trial_index":76,"time_elapsed":180768,"internal_node_id":"0.0-76.0","subject":"S1C1663","sona":"41718","block":2,"time":"2021-09-23T00:36:40.855Z","response":"1st","certainty":"high","char":"A","transposition":0,"order":["swapped","shifted"],"probe_pitches":[8,6,7,13,7,15,8,13,4,7,11,4,6,15,3,15],"shifted_pitches":[8,6,7,13,7,15,8,13,5,7,11,4,6,15,3,15],"swapped_pitches":[8,6,7,13,7,15,8,4,13,7,11,4,6,15,3,15],"shift_direction":1,"question_num":61,"has_decoy":false},{"rt":6604,"stimulus":"[A] option 1, [L] option 2, [G] neither","key_press":71,"name":"choice","trial_type":"html-keyboard-response","trial_index":87,"time_elapsed":212628,"internal_node_id":"0.0-87.0","subject":"S1C1663","sona":"41718","block":2,"time":"2021-09-23T00:36:40.855Z","response":"neither","certainty":"high","char":"G","transposition":1,"order":["swapped","shifted"],"probe_pitches":[3,9,11,15,11,13,6,15,9,12,4,3,6,5,12,7],"shifted_pitches":[3,9,11,15,11,13,6,15,8,12,4,3,6,5,12,7],"swapped_pitches":[3,9,11,15,11,13,6,9,15,12,4,3,6,5,12,7],"shift_direction":-1,"question_num":71,"has_decoy":false},{"rt":615.5,"stimulus":"[A] option 1, [L] option 2, [G] neither","key_press":76,"name":"choice","trial_type":"html-keyboard-response","trial_index":98,"time_elapsed":236919,"internal_node_id":"0.0-98.0","subject":"S1C1663","sona":"41718","block":2,"time":"2021-09-23T00:36:40.855Z","response":"2nd","certainty":"high","char":"L","transposition":-1,"order":["swapped","shifted"],"probe_pitches":[8,6,-1,1,4,6,11,-1,1,6,11,6,11,8,4,11],"shifted_pitches":[8,6,-1,1,4,6,11,-2,1,6,11,6,11,8,4,11],"swapped_pitches":[8,6,-1,1,4,6,11,1,-1,6,11,6,11,8,4,11],"shift_direction":-1,"question_num":81,"has_decoy":false},{"rt":1674.5,"stimulus":"[A] option 1, [L] option 2, [G] neither","key_press":65,"name":"choice","trial_type":"html-keyboard-response","trial_index":109,"time_elapsed":262652,"internal_node_id":"0.0-109.0","subject":"S1C1663","sona":"41718","block":2,"time":"2021-09-23T00:36:40.855Z","response":"1st","certainty":"high","char":"A","transposition":-3,"order":["shifted","swapped"],"probe_pitches":[4,9,4,6,9,6,1,9,6,4,6,-1,1,9,4,-1],"shifted_pitches":[4,9,4,6,9,6,1,10,6,4,6,-1,1,9,4,-1],"swapped_pitches":[4,9,4,6,9,6,1,6,9,4,6,-1,1,9,4,-1],"shift_direction":1,"question_num":91,"has_decoy":false},{"rt":1684.2999999970198,"stimulus":"[A] option 1, [L] option 2, [G] neither","key_press":76,"name":"choice","trial_type":"html-keyboard-response","trial_index":120,"time_elapsed":288142,"internal_node_id":"0.0-120.0","subject":"S1C1663","sona":"41718","block":2,"time":"2021-09-23T00:36:40.855Z","response":"2nd","certainty":"high","char":"L","transposition":2,"order":["swapped","shifted"],"probe_pitches":[8,5,3,9,6,3,9,5,6,9,14,12,10,11,10,12],"shifted_pitches":[8,5,3,9,6,3,9,5,7,9,14,12,10,11,10,12],"swapped_pitches":[8,5,3,9,6,3,9,6,5,9,14,12,10,11,10,12],"shift_direction":1,"question_num":101,"has_decoy":false},{"rt":795.5999999940395,"stimulus":"[A] option 1, [L] option 2, [G] neither","key_press":65,"name":"choice","trial_type":"html-keyboard-response","trial_index":131,"time_elapsed":314788,"internal_node_id":"0.0-131.0","subject":"S1C1663","sona":"41718","block":2,"time":"2021-09-23T00:36:40.855Z","response":"1st","certainty":"high","char":"A","transposition":3,"order":["swapped","shifted"],"probe_pitches":[8,6,9,3,4,6,10,15,12,7,10,4,15,4,3,5],"shifted_pitches":[8,6,9,3,4,6,10,15,13,7,10,4,15,4,3,5],"swapped_pitches":[8,6,9,3,4,6,10,12,15,7,10,4,15,4,3,5],"shift_direction":1,"question_num":111,"has_decoy":false},{"rt":5345.29999999702,"stimulus":"[A] option 1, [L] option 2, [G] neither","key_press":65,"name":"choice","trial_type":"html-keyboard-response","trial_index":142,"time_elapsed":346968,"internal_node_id":"0.0-142.0","subject":"S1C1663","sona":"41718","block":2,"time":"2021-09-23T00:36:40.855Z","response":"1st","certainty":"high","char":"A","transposition":-3,"order":["swapped","shifted"],"probe_pitches":[14,8,15,9,10,3,8,7,11,14,4,8,11,14,3,5],"shifted_pitches":[14,8,15,9,10,3,8,6,11,14,4,8,11,14,3,5],"swapped_pitches":[14,8,15,9,10,3,8,11,7,14,4,8,11,14,3,5],"shift_direction":-1,"question_num":121,"has_decoy":false},{"rt":1645.5999999940395,"stimulus":"[A] option 1, [L] option 2, [G] neither","key_press":76,"name":"choice","trial_type":"html-keyboard-response","trial_index":153,"time_elapsed":371868,"internal_node_id":"0.0-153.0","subject":"S1C1663","sona":"41718","block":2,"time":"2021-09-23T00:36:40.855Z","response":"2nd","certainty":"high","char":"L","transposition":0,"order":["swapped","shifted"],"probe_pitches":[6,11,8,3,-1,3,11,1,6,-1,1,3,11,6,8,-1],"shifted_pitches":[6,11,8,3,-1,3,11,1,7,-1,1,3,11,6,8,-1],"swapped_pitches":[6,11,8,3,-1,3,11,6,1,-1,1,3,11,6,8,-1],"shift_direction":1,"question_num":131,"has_decoy":false},{"rt":2725.7000000029802,"stimulus":"[A] option 1, [L] option 2, [G] neither","key_press":65,"name":"choice","trial_type":"html-keyboard-response","trial_index":164,"time_elapsed":399468,"internal_node_id":"0.0-164.0","subject":"S1C1663","sona":"41718","block":2,"time":"2021-09-23T00:36:40.855Z","response":"1st","certainty":"high","char":"A","transposition":-2,"order":["shifted","swapped"],"probe_pitches":[11,7,4,7,-1,4,-1,11,9,4,11,-1,11,2,4,7],"shifted_pitches":[11,7,4,7,-1,4,-1,11,8,4,11,-1,11,2,4,7],"swapped_pitches":[11,7,4,7,-1,4,-1,9,11,4,11,-1,11,2,4,7],"shift_direction":-1,"question_num":141,"has_decoy":false},{"rt":1045.5999999940395,"stimulus":"[A] option 1, [L] option 2, [G] neither","key_press":76,"name":"choice","trial_type":"html-keyboard-response","trial_index":175,"time_elapsed":424521,"internal_node_id":"0.0-175.0","subject":"S1C1663","sona":"41718","block":2,"time":"2021-09-23T00:36:40.855Z","response":"2nd","certainty":"high","char":"L","transposition":-2,"order":["swapped","shifted"],"probe_pitches":[-1,4,6,1,4,11,8,6,-1,1,-1,8,1,6,4,1],"shifted_pitches":[-1,4,6,1,4,11,8,6,0,1,-1,8,1,6,4,1],"swapped_pitches":[-1,4,6,1,4,11,8,-1,6,1,-1,8,1,6,4,1],"shift_direction":1,"question_num":151,"has_decoy":false},{"rt":1756.7000000029802,"stimulus":"[A] option 1, [L] option 2, [G] neither","key_press":76,"name":"choice","trial_type":"html-keyboard-response","trial_index":186,"time_elapsed":449942,"internal_node_id":"0.0-186.0","subject":"S1C1663","sona":"41718","block":2,"time":"2021-09-23T00:36:40.855Z","response":"2nd","certainty":"high","char":"L","transposition":-2,"order":["shifted","swapped"],"probe_pitches":[15,10,7,3,8,5,4,11,3,8,5,13,3,8,9,6],"shifted_pitches":[15,10,7,3,8,5,4,12,3,8,5,13,3,8,9,6],"swapped_pitches":[15,10,7,3,8,5,4,3,11,8,5,13,3,8,9,6],"shift_direction":1,"question_num":161,"has_decoy":false},{"rt":2436.5,"stimulus":"[A] option 1, [L] option 2, [G] neither","key_press":65,"name":"choice","trial_type":"html-keyboard-response","trial_index":197,"time_elapsed":476522,"internal_node_id":"0.0-197.0","subject":"S1C1663","sona":"41718","block":2,"time":"2021-09-23T00:36:40.855Z","response":"1st","certainty":"high","char":"A","transposition":1,"order":["swapped","shifted"],"probe_pitches":[6,9,11,6,-1,6,4,6,2,-1,4,6,-1,6,9,2],"shifted_pitches":[6,9,11,6,-1,6,4,7,2,-1,4,6,-1,6,9,2],"swapped_pitches":[6,9,11,6,-1,6,4,2,6,-1,4,6,-1,6,9,2],"shift_direction":1,"question_num":171,"has_decoy":false},{"rt":796,"stimulus":"[A] option 1, [L] option 2, [G] neither","key_press":65,"name":"choice","trial_type":"html-keyboard-response","trial_index":208,"time_elapsed":501149,"internal_node_id":"0.0-208.0","subject":"S1C1663","sona":"41718","block":2,"time":"2021-09-23T00:36:40.855Z","response":"1st","certainty":"high","char":"A","transposition":2,"order":["shifted","swapped"],"probe_pitches":[4,-1,6,11,4,-1,9,6,4,11,2,6,-1,6,2,9],"shifted_pitches":[4,-1,6,11,4,-1,9,5,4,11,2,6,-1,6,2,9],"swapped_pitches":[4,-1,6,11,4,-1,9,4,6,11,2,6,-1,6,2,9],"shift_direction":-1,"question_num":181,"has_decoy":false},{"rt":1376.6000000089407,"stimulus":"[A] option 1, [L] option 2, [G] neither","key_press":76,"name":"choice","trial_type":"html-keyboard-response","trial_index":219,"time_elapsed":525829,"internal_node_id":"0.0-219.0","subject":"S1C1663","sona":"41718","block":2,"time":"2021-09-23T00:36:40.855Z","response":"2nd","certainty":"high","char":"L","transposition":-1,"order":["shifted","swapped"],"probe_pitches":[3,6,1,6,1,8,11,8,3,1,3,6,1,11,6,11],"shifted_pitches":[3,6,1,6,1,8,11,8,4,1,3,6,1,11,6,11],"swapped_pitches":[3,6,1,6,1,8,11,3,8,1,3,6,1,11,6,11],"shift_direction":1,"question_num":191,"has_decoy":false}]