[{"rt":1532.7000000029802,"stimulus":"[A] option 1, [L] option 2, [G] neither","key_press":76,"name":"choice","trial_type":"html-keyboard-response","trial_index":10,"time_elapsed":26151,"internal_node_id":"0.0-10.0","subject":"S1C1663","sona":"41718","block":6,"time":"2021-09-23T01:21:29.227Z","response":"2nd","certainty":"high","char":"L","transposition":-3,"order":["shifted","swapped"],"probe_pitches":[7,13,6,10,8,2,9,1,13,2,1,5,11,10,8,6],"shifted_pitches":[7,13,6,10,8,2,9,0,13,2,1,5,11,10,8,6],"swapped_pitches":[7,13,6,10,8,2,9,13,1,2,1,5,11,10,8,6],"shift_direction":-1,"question_num":1,"has_decoy":false},{"rt":763.2999999970198,"stimulus":"[A] option 1, [L] option 2, [G] neither","key_press":65,"name":"choice","trial_type":"html-keyboard-response","trial_index":21,"time_elapsed":49632,"internal_node_id":"0.0-21.0","subject":"S1C1663","sona":"41718","block":6,"time":"2021-09-23T01:21:29.227Z","response":"1st","certainty":"high","char":"A","transposition":-3,"order":["swapped","shifted"],"probe_pitches":[1,3,10,8,1,8,5,1,8,5,1,10,8,-2,1,-2],"shifted_pitches":[1,3,10,8,1,8,5,0,8,5,1,10,8,-2,1,-2],"swapped_pitches":[1,3,10,8,1,8,5,8,1,5,1,10,8,-2,1,-2],"shift_direction":-1,"question_num":11,"has_decoy":false},{"rt":943.7000000029802,"stimulus":"[A] option 1, [L] option 2, [G] neither","key_press":76,"name":"choice","trial_type":"html-keyboard-response","trial_index":32,"time_elapsed":73312,"internal_node_id":"0.0-32.0","subject":"S1C1663","sona":"41718","block":6,"time":"2021-09-23T01:21:29.227Z","response":"2nd","certainty":"high","char":"L","transposition":-2,"order":["swapped","shifted"],"probe_pitches":[6,1,5,13,10,3,11,5,8,10,8,4,8,11,3,1],"shifted_pitches":[6,1,5,13,10,3,11,5,9,10,8,4,8,11,3,1],"swapped_pitches":[6,1,5,13,10,3,11,8,5,10,8,4,8,11,3,1],"shift_direction":1,"question_num":21,"has_decoy":false},{"rt":3133.0999999940395,"stimulus":"[A] option 1, [L] option 2, [G] neither","key_press":65,"name":"choice","trial_type":"html-keyboard-response","trial_index":43,"time_elapsed":99042,"internal_node_id":"0.0-43.0","subject":"S1C1663","sona":"41718","block":6,"time":"2021-09-23T01:21:29.227Z","response":"1st","certainty":"high","char":"A","transposition":-1,"order":["shifted","swapped"],"probe_pitches":[6,11,8,9,5,6,2,8,10,4,11,13,9,4,8,12],"shifted_pitches":[6,11,8,9,5,6,2,7,10,4,11,13,9,4,8,12],"swapped_pitches":[6,11,8,9,5,6,2,10,8,4,11,13,9,4,8,12],"shift_direction":-1,"question_num":31,"has_decoy":false},{"rt":3983.7000000029802,"stimulus":"[A] option 1, [L] option 2, [G] neither","key_press":65,"name":"choice","trial_type":"html-keyboard-response","trial_index":54,"time_elapsed":126862,"internal_node_id":"0.0-54.0","subject":"S1C1663","sona":"41718","block":6,"time":"2021-09-23T01:21:29.227Z","response":"1st","certainty":"high","char":"A","transposition":0,"order":["shifted","swapped"],"probe_pitches":[7,3,8,12,3,7,9,5,8,1,10,6,8,10,11,5],"shifted_pitches":[7,3,8,12,3,7,9,4,8,1,10,6,8,10,11,5],"swapped_pitches":[7,3,8,12,3,7,9,8,5,1,10,6,8,10,11,5],"shift_direction":-1,"question_num":41,"has_decoy":false},{"rt":1553.5999999940395,"stimulus":"[A] option 1, [L] option 2, [G] neither","key_press":65,"name":"choice","trial_type":"html-keyboard-response","trial_index":65,"time_elapsed":150581,"internal_node_id":"0.0-65.0","subject":"S1C1663","sona":"41718","block":6,"time":"2021-09-23T01:21:29.227Z","response":"1st","certainty":"high","char":"A","transposition":1,"order":["shifted","swapped"],"probe_pitches":[10,7,10,5,-2,5,7,2,0,7,10,-2,10,-2,2,-2],"shifted_pitches":[10,7,10,5,-2,5,7,3,0,7,10,-2,10,-2,2,-2],"swapped_pitches":[10,7,10,5,-2,5,7,0,2,7,10,-2,10,-2,2,-2],"shift_direction":1,"question_num":51,"has_decoy":false},{"rt":1943.2999999970198,"stimulus":"[A] option 1, [L] option 2, [G] neither","key_press":65,"name":"choice","trial_type":"html-keyboard-response","trial_index":76,"time_elapsed":174631,"internal_node_id":"0.0-76.0","subject":"S1C1663","sona":"41718","block":6,"time":"2021-09-23T01:21:29.227Z","response":"1st","certainty":"high","char":"A","transposition":2,"order":["swapped","shifted"],"probe_pitches":[3,-2,3,1,3,1,-2,3,8,-2,10,6,10,1,8,10],"shifted_pitches":[3,-2,3,1,3,1,-2,3,7,-2,10,6,10,1,8,10],"swapped_pitches":[3,-2,3,1,3,1,-2,8,3,-2,10,6,10,1,8,10],"shift_direction":-1,"question_num":61,"has_decoy":false},{"rt":1614.5,"stimulus":"[A] option 1, [L] option 2, [G] neither","key_press":65,"name":"choice","trial_type":"html-keyboard-response","trial_index":87,"time_elapsed":199173,"internal_node_id":"0.0-87.0","subject":"S1C1663","sona":"41718","block":6,"time":"2021-09-23T01:21:29.227Z","response":"1st","certainty":"high","char":"A","transposition":-1,"order":["swapped","shifted"],"probe_pitches":[12,9,11,10,2,8,12,8,2,10,4,7,5,1,10,12],"shifted_pitches":[12,9,11,10,2,8,12,8,3,10,4,7,5,1,10,12],"swapped_pitches":[12,9,11,10,2,8,12,2,8,10,4,7,5,1,10,12],"shift_direction":1,"question_num":71,"has_decoy":false},{"rt":2184.0999999940395,"stimulus":"[A] option 1, [L] option 2, [G] neither","key_press":76,"name":"choice","trial_type":"html-keyboard-response","trial_index":98,"time_elapsed":224372,"internal_node_id":"0.0-98.0","subject":"S1C1663","sona":"41718","block":6,"time":"2021-09-23T01:21:29.227Z","response":"2nd","certainty":"high","char":"L","transposition":-3,"order":["swapped","shifted"],"probe_pitches":[1,4,11,3,8,3,8,11,5,4,7,4,13,7,12,2],"shifted_pitches":[1,4,11,3,8,3,8,11,6,4,7,4,13,7,12,2],"swapped_pitches":[1,4,11,3,8,3,8,5,11,4,7,4,13,7,12,2],"shift_direction":1,"question_num":81,"has_decoy":false},{"rt":814.5,"stimulus":"[A] option 1, [L] option 2, [G] neither","key_press":65,"name":"choice","trial_type":"html-keyboard-response","trial_index":109,"time_elapsed":248072,"internal_node_id":"0.0-109.0","subject":"S1C1663","sona":"41718","block":6,"time":"2021-09-23T01:21:29.227Z","response":"1st","certainty":"high","char":"A","transposition":-3,"order":["shifted","swapped"],"probe_pitches":[3,0,-2,0,-2,5,7,3,-2,7,-2,3,0,-2,0,-2],"shifted_pitches":[3,0,-2,0,-2,5,7,3,-1,7,-2,3,0,-2,0,-2],"swapped_pitches":[3,0,-2,0,-2,5,7,-2,3,7,-2,3,0,-2,0,-2],"shift_direction":1,"question_num":91,"has_decoy":false},{"rt":774.7000000029802,"stimulus":"[A] option 1, [L] option 2, [G] neither","key_press":76,"name":"choice","trial_type":"html-keyboard-response","trial_index":120,"time_elapsed":271352,"internal_node_id":"0.0-120.0","subject":"S1C1663","sona":"41718","block":6,"time":"2021-09-23T01:21:29.227Z","response":"2nd","certainty":"high","char":"L","transposition":-1,"order":["swapped","shifted"],"probe_pitches":[-2,1,3,10,3,8,10,1,6,10,3,6,10,6,8,10],"shifted_pitches":[-2,1,3,10,3,8,10,2,6,10,3,6,10,6,8,10],"swapped_pitches":[-2,1,3,10,3,8,10,6,1,10,3,6,10,6,8,10],"shift_direction":1,"question_num":101,"has_decoy":false},{"rt":414.59999999403954,"stimulus":"[A] option 1, [L] option 2, [G] neither","key_press":76,"name":"choice","trial_type":"html-keyboard-response","trial_index":131,"time_elapsed":294802,"internal_node_id":"0.0-131.0","subject":"S1C1663","sona":"41718","block":6,"time":"2021-09-23T01:21:29.227Z","response":"2nd","certainty":"high","char":"L","transposition":-2,"order":["shifted","swapped"],"probe_pitches":[4,8,10,4,9,6,4,10,6,7,10,1,4,10,4,10],"shifted_pitches":[4,8,10,4,9,6,4,10,5,7,10,1,4,10,4,10],"swapped_pitches":[4,8,10,4,9,6,4,6,10,7,10,1,4,10,4,10],"shift_direction":-1,"question_num":111,"has_decoy":false},{"rt":1144.4000000059605,"stimulus":"[A] option 1, [L] option 2, [G] neither","key_press":65,"name":"choice","trial_type":"html-keyboard-response","trial_index":142,"time_elapsed":318986,"internal_node_id":"0.0-142.0","subject":"S1C1663","sona":"41718","block":6,"time":"2021-09-23T01:21:29.227Z","response":"1st","certainty":"high","char":"A","transposition":-2,"order":["shifted","swapped"],"probe_pitches":[7,5,-2,5,0,5,0,2,5,10,5,2,5,2,10,0],"shifted_pitches":[7,5,-2,5,0,5,0,2,4,10,5,2,5,2,10,0],"swapped_pitches":[7,5,-2,5,0,5,0,5,2,10,5,2,5,2,10,0],"shift_direction":-1,"question_num":121,"has_decoy":false},{"rt":535.3999999910593,"stimulus":"[A] option 1, [L] option 2, [G] neither","key_press":76,"name":"choice","trial_type":"html-keyboard-response","trial_index":153,"time_elapsed":342107,"internal_node_id":"0.0-153.0","subject":"S1C1663","sona":"41718","block":6,"time":"2021-09-23T01:21:29.227Z","response":"2nd","certainty":"high","char":"L","transposition":1,"order":["swapped","shifted"],"probe_pitches":[3,4,3,1,9,1,2,7,5,11,13,3,7,2,10,5],"shifted_pitches":[3,4,3,1,9,1,2,8,5,11,13,3,7,2,10,5],"swapped_pitches":[3,4,3,1,9,1,2,5,7,11,13,3,7,2,10,5],"shift_direction":1,"question_num":131,"has_decoy":false},{"rt":935.7999999970198,"stimulus":"[A] option 1, [L] option 2, [G] neither","key_press":65,"name":"choice","trial_type":"html-keyboard-response","trial_index":164,"time_elapsed":365757,"internal_node_id":"0.0-164.0","subject":"S1C1663","sona":"41718","block":6,"time":"2021-09-23T01:21:29.227Z","response":"1st","certainty":"high","char":"A","transposition":2,"order":["swapped","shifted"],"probe_pitches":[5,2,3,6,1,2,9,11,12,2,8,1,6,13,3,4],"shifted_pitches":[5,2,3,6,1,2,9,10,12,2,8,1,6,13,3,4],"swapped_pitches":[5,2,3,6,1,2,9,12,11,2,8,1,6,13,3,4],"shift_direction":-1,"question_num":141,"has_decoy":false},{"rt":2045.3999999910593,"stimulus":"[A] option 1, [L] option 2, [G] neither","key_press":65,"name":"choice","trial_type":"html-keyboard-response","trial_index":175,"time_elapsed":390673,"internal_node_id":"0.0-175.0","subject":"S1C1663","sona":"41718","block":6,"time":"2021-09-23T01:21:29.227Z","response":"1st","certainty":"high","char":"A","transposition":3,"order":["swapped","shifted"],"probe_pitches":[10,8,5,-2,5,10,3,10,0,3,5,10,5,10,3,8],"shifted_pitches":[10,8,5,-2,5,10,3,9,0,3,5,10,5,10,3,8],"swapped_pitches":[10,8,5,-2,5,10,3,0,10,3,5,10,5,10,3,8],"shift_direction":-1,"question_num":151,"has_decoy":false},{"rt":1685.5,"stimulus":"[A] option 1, [L] option 2, [G] neither","key_press":65,"name":"choice","trial_type":"html-keyboard-response","trial_index":186,"time_elapsed":415993,"internal_node_id":"0.0-186.0","subject":"S1C1663","sona":"41718","block":6,"time":"2021-09-23T01:21:29.227Z","response":"1st","certainty":"high","char":"A","transposition":3,"order":["shifted","swapped"],"probe_pitches":[5,1,2,4,3,5,2,3,10,1,12,4,2,12,10,4],"shifted_pitches":[5,1,2,4,3,5,2,3,11,1,12,4,2,12,10,4],"swapped_pitches":[5,1,2,4,3,5,2,10,3,1,12,4,2,12,10,4],"shift_direction":1,"question_num":161,"has_decoy":false},{"rt":1435.7000000029802,"stimulus":"[A] option 1, [L] option 2, [G] neither","key_press":76,"name":"choice","trial_type":"html-keyboard-response","trial_index":197,"time_elapsed":440353,"internal_node_id":"0.0-197.0","subject":"S1C1663","sona":"41718","block":6,"time":"2021-09-23T01:21:29.227Z","response":"2nd","certainty":"high","char":"L","transposition":-1,"order":["swapped","shifted"],"probe_pitches":[-2,0,7,3,0,7,3,7,0,5,-2,3,5,0,7,0],"shifted_pitches":[-2,0,7,3,0,7,3,6,0,5,-2,3,5,0,7,0],"swapped_pitches":[-2,0,7,3,0,7,3,0,7,5,-2,3,5,0,7,0],"shift_direction":-1,"question_num":171,"has_decoy":false},{"rt":1256.2999999970198,"stimulus":"[A] option 1, [L] option 2, [G] neither","key_press":65,"name":"choice","trial_type":"html-keyboard-response","trial_index":208,"time_elapsed":464395,"internal_node_id":"0.0-208.0","subject":"S1C1663","sona":"41718","block":6,"time":"2021-09-23T01:21:29.227Z","response":"1st","certainty":"high","char":"A","transposition":-2,"order":["shifted","swapped"],"probe_pitches":[10,5,10,3,10,5,1,5,10,3,10,-2,1,10,8,10],"shifted_pitches":[10,5,10,3,10,5,1,5,11,3,10,-2,1,10,8,10],"swapped_pitches":[10,5,10,3,10,5,1,10,5,3,10,-2,1,10,8,10],"shift_direction":1,"question_num":181,"has_decoy":false},{"rt":866.7000000029802,"stimulus":"[A] option 1, [L] option 2, [G] neither","key_press":65,"name":"choice","trial_type":"html-keyboard-response","trial_index":219,"time_elapsed":488185,"internal_node_id":"0.0-219.0","subject":"S1C1663","sona":"41718","block":6,"time":"2021-09-23T01:21:29.227Z","response":"1st","certainty":"high","char":"A","transposition":0,"order":["shifted","swapped"],"probe_pitches":[8,5,3,5,0,5,3,-2,0,8,5,10,-2,8,5,3],"shifted_pitches":[8,5,3,5,0,5,3,-2,1,8,5,10,-2,8,5,3],"swapped_pitches":[8,5,3,5,0,5,3,0,-2,8,5,10,-2,8,5,3],"shift_direction":1,"question_num":191,"has_decoy":false}]