[{"rt":4548.0999999940395,"stimulus":"[A] option 1, [L] option 2, [G] neither","key_press":76,"name":"choice","trial_type":"html-keyboard-response","trial_index":15,"time_elapsed":77926,"internal_node_id":"0.0-15.0","response":"2nd","certainty":"high","char":"L","transposition":-2,"order":["swapped","shifted"],"probe_pitches":[1,-2,3,-2,6,10,1,-2,8,6,1,8,6,-2,10,3],"shifted_pitches":[1,-2,3,-2,6,10,1,-3,8,6,1,8,6,-2,10,3],"swapped_pitches":[1,-2,3,-2,6,10,1,8,-2,6,1,8,6,-2,10,3],"shift_direction":-1,"question_num":1,"has_decoy":false,"subject":"S1C1663","sona":"41718","block":1,"time":"2021-09-23T00:25:19.672Z"},{"rt":97701.20000000298,"stimulus":"[A] option 1, [L] option 2, [G] neither","key_press":65,"name":"choice","trial_type":"html-keyboard-response","trial_index":26,"time_elapsed":201955,"internal_node_id":"0.0-26.0","response":"1st","certainty":"high","char":"A","transposition":-3,"order":["shifted","swapped"],"probe_pitches":[3,5,11,4,11,5,15,10,4,8,6,10,7,10,8,7],"shifted_pitches":[3,5,11,4,11,5,15,9,4,8,6,10,7,10,8,7],"swapped_pitches":[3,5,11,4,11,5,15,4,10,8,6,10,7,10,8,7],"shift_direction":-1,"question_num":11,"has_decoy":false,"subject":"S1C1663","sona":"41718","block":1,"time":"2021-09-23T00:25:19.672Z"},{"rt":2297.4000000059605,"stimulus":"[A] option 1, [L] option 2, [G] neither","key_press":76,"name":"choice","trial_type":"html-keyboard-response","trial_index":37,"time_elapsed":227990,"internal_node_id":"0.0-37.0","response":"2nd","certainty":"high","char":"L","transposition":-3,"order":["swapped","shifted"],"probe_pitches":[7,2,0,7,5,7,5,7,-2,10,-2,10,2,10,7,-2],"shifted_pitches":[7,2,0,7,5,7,5,6,-2,10,-2,10,2,10,7,-2],"swapped_pitches":[7,2,0,7,5,7,5,-2,7,10,-2,10,2,10,7,-2],"shift_direction":-1,"question_num":21,"has_decoy":false,"subject":"S1C1663","sona":"41718","block":1,"time":"2021-09-23T00:25:19.672Z"},{"rt":3577,"stimulus":"[A] option 1, [L] option 2, [G] neither","key_press":76,"name":"choice","trial_type":"html-keyboard-response","trial_index":48,"time_elapsed":256649,"internal_node_id":"0.0-48.0","response":"2nd","certainty":"high","char":"L","transposition":1,"order":["swapped","shifted"],"probe_pitches":[10,8,6,10,1,3,1,6,10,-2,8,6,10,1,6,-2],"shifted_pitches":[10,8,6,10,1,3,1,5,10,-2,8,6,10,1,6,-2],"swapped_pitches":[10,8,6,10,1,3,1,10,6,-2,8,6,10,1,6,-2],"shift_direction":-1,"question_num":31,"has_decoy":false,"subject":"S1C1663","sona":"41718","block":1,"time":"2021-09-23T00:25:19.672Z"},{"rt":3548,"stimulus":"[A] option 1, [L] option 2, [G] neither","key_press":71,"name":"choice","trial_type":"html-keyboard-response","trial_index":59,"time_elapsed":283624,"internal_node_id":"0.0-59.0","response":"neither","certainty":"high","char":"G","transposition":-3,"order":["swapped","shifted"],"probe_pitches":[12,9,8,15,8,12,9,12,6,3,10,13,6,9,15,4],"shifted_pitches":[12,9,8,15,8,12,9,11,6,3,10,13,6,9,15,4],"swapped_pitches":[12,9,8,15,8,12,9,6,12,3,10,13,6,9,15,4],"shift_direction":-1,"question_num":41,"has_decoy":false,"subject":"S1C1663","sona":"41718","block":1,"time":"2021-09-23T00:25:19.672Z"},{"rt":1157,"stimulus":"[A] option 1, [L] option 2, [G] neither","key_press":65,"name":"choice","trial_type":"html-keyboard-response","trial_index":70,"time_elapsed":309424,"internal_node_id":"0.0-70.0","response":"1st","certainty":"high","char":"A","transposition":0,"order":["shifted","swapped"],"probe_pitches":[3,5,3,-2,3,0,3,-2,7,10,3,0,-2,0,10,5],"shifted_pitches":[3,5,3,-2,3,0,3,-2,8,10,3,0,-2,0,10,5],"swapped_pitches":[3,5,3,-2,3,0,3,7,-2,10,3,0,-2,0,10,5],"shift_direction":1,"question_num":51,"has_decoy":false,"subject":"S1C1663","sona":"41718","block":1,"time":"2021-09-23T00:25:19.672Z"},{"rt":1438.0999999940395,"stimulus":"[A] option 1, [L] option 2, [G] neither","key_press":76,"name":"choice","trial_type":"html-keyboard-response","trial_index":81,"time_elapsed":336523,"internal_node_id":"0.0-81.0","response":"2nd","certainty":"high","char":"L","transposition":-2,"order":["swapped","shifted"],"probe_pitches":[3,7,6,7,10,3,9,5,11,9,15,10,14,6,14,5],"shifted_pitches":[3,7,6,7,10,3,9,5,12,9,15,10,14,6,14,5],"swapped_pitches":[3,7,6,7,10,3,9,11,5,9,15,10,14,6,14,5],"shift_direction":1,"question_num":61,"has_decoy":false,"subject":"S1C1663","sona":"41718","block":1,"time":"2021-09-23T00:25:19.672Z"},{"rt":1098.5,"stimulus":"[A] option 1, [L] option 2, [G] neither","key_press":76,"name":"choice","trial_type":"html-keyboard-response","trial_index":92,"time_elapsed":363103,"internal_node_id":"0.0-92.0","response":"2nd","certainty":"high","char":"L","transposition":0,"order":["shifted","swapped"],"probe_pitches":[12,15,12,11,5,12,9,11,13,8,5,13,6,4,11,7],"shifted_pitches":[12,15,12,11,5,12,9,10,13,8,5,13,6,4,11,7],"swapped_pitches":[12,15,12,11,5,12,9,13,11,8,5,13,6,4,11,7],"shift_direction":-1,"question_num":71,"has_decoy":false,"subject":"S1C1663","sona":"41718","block":1,"time":"2021-09-23T00:25:19.672Z"},{"rt":1119.4000000059605,"stimulus":"[A] option 1, [L] option 2, [G] neither","key_press":76,"name":"choice","trial_type":"html-keyboard-response","trial_index":103,"time_elapsed":388093,"internal_node_id":"0.0-103.0","response":"2nd","certainty":"high","char":"L","transposition":-3,"order":["shifted","swapped"],"probe_pitches":[3,1,8,5,1,3,5,1,3,5,-2,1,-2,1,5,10],"shifted_pitches":[3,1,8,5,1,3,5,1,4,5,-2,1,-2,1,5,10],"swapped_pitches":[3,1,8,5,1,3,5,3,1,5,-2,1,-2,1,5,10],"shift_direction":1,"question_num":81,"has_decoy":false,"subject":"S1C1663","sona":"41718","block":1,"time":"2021-09-23T00:25:19.672Z"},{"rt":14273,"stimulus":"[A] option 1, [L] option 2, [G] neither","key_press":71,"name":"choice","trial_type":"html-keyboard-response","trial_index":114,"time_elapsed":426507,"internal_node_id":"0.0-114.0","response":"neither","certainty":"high","char":"G","transposition":1,"order":["shifted","swapped"],"probe_pitches":[3,5,6,5,11,3,6,10,9,7,12,15,6,9,10,3],"shifted_pitches":[3,5,6,5,11,3,6,10,8,7,12,15,6,9,10,3],"swapped_pitches":[3,5,6,5,11,3,6,9,10,7,12,15,6,9,10,3],"shift_direction":-1,"question_num":91,"has_decoy":false,"subject":"S1C1663","sona":"41718","block":1,"time":"2021-09-23T00:25:19.672Z"},{"rt":1976.7000000029802,"stimulus":"[A] option 1, [L] option 2, [G] neither","key_press":76,"name":"choice","trial_type":"html-keyboard-response","trial_index":125,"time_elapsed":452761,"internal_node_id":"0.0-125.0","response":"2nd","certainty":"high","char":"L","transposition":3,"order":["shifted","swapped"],"probe_pitches":[3,8,4,11,4,3,9,10,4,8,4,11,6,7,4,13],"shifted_pitches":[3,8,4,11,4,3,9,10,5,8,4,11,6,7,4,13],"swapped_pitches":[3,8,4,11,4,3,9,4,10,8,4,11,6,7,4,13],"shift_direction":1,"question_num":101,"has_decoy":false,"subject":"S1C1663","sona":"41718","block":1,"time":"2021-09-23T00:25:19.672Z"},{"rt":1366.8999999910593,"stimulus":"[A] option 1, [L] option 2, [G] neither","key_press":65,"name":"choice","trial_type":"html-keyboard-response","trial_index":136,"time_elapsed":477491,"internal_node_id":"0.0-136.0","response":"1st","certainty":"high","char":"A","transposition":-2,"order":["shifted","swapped"],"probe_pitches":[15,10,9,7,10,15,10,13,5,15,7,12,3,12,11,5],"shifted_pitches":[15,10,9,7,10,15,10,14,5,15,7,12,3,12,11,5],"swapped_pitches":[15,10,9,7,10,15,10,5,13,15,7,12,3,12,11,5],"shift_direction":1,"question_num":111,"has_decoy":false,"subject":"S1C1663","sona":"41718","block":1,"time":"2021-09-23T00:25:19.672Z"},{"rt":2017,"stimulus":"[A] option 1, [L] option 2, [G] neither","key_press":76,"name":"choice","trial_type":"html-keyboard-response","trial_index":147,"time_elapsed":503191,"internal_node_id":"0.0-147.0","response":"2nd","certainty":"high","char":"L","transposition":-1,"order":["swapped","shifted"],"probe_pitches":[13,7,3,4,12,13,4,5,3,10,5,12,9,8,9,12],"shifted_pitches":[13,7,3,4,12,13,4,6,3,10,5,12,9,8,9,12],"swapped_pitches":[13,7,3,4,12,13,4,3,5,10,5,12,9,8,9,12],"shift_direction":1,"question_num":121,"has_decoy":false,"subject":"S1C1663","sona":"41718","block":1,"time":"2021-09-23T00:25:19.672Z"},{"rt":87409,"stimulus":"[A] option 1, [L] option 2, [G] neither","key_press":76,"name":"choice","trial_type":"html-keyboard-response","trial_index":158,"time_elapsed":614590,"internal_node_id":"0.0-158.0","response":"2nd","certainty":"high","char":"L","transposition":-1,"order":["swapped","shifted"],"probe_pitches":[8,5,-2,3,10,5,8,3,10,-2,10,3,0,5,-2,8],"shifted_pitches":[8,5,-2,3,10,5,8,3,11,-2,10,3,0,5,-2,8],"swapped_pitches":[8,5,-2,3,10,5,8,10,3,-2,10,3,0,5,-2,8],"shift_direction":1,"question_num":131,"has_decoy":false,"subject":"S1C1663","sona":"41718","block":1,"time":"2021-09-23T00:25:19.672Z"},{"rt":2393.4000000059605,"stimulus":"[A] option 1, [L] option 2, [G] neither","key_press":71,"name":"choice","trial_type":"html-keyboard-response","trial_index":169,"time_elapsed":642715,"internal_node_id":"0.0-169.0","response":"neither","certainty":"high","char":"G","transposition":-1,"order":["swapped","shifted"],"probe_pitches":[6,10,15,7,9,4,5,15,14,3,5,4,8,7,15,5],"shifted_pitches":[6,10,15,7,9,4,5,15,13,3,5,4,8,7,15,5],"swapped_pitches":[6,10,15,7,9,4,5,14,15,3,5,4,8,7,15,5],"shift_direction":-1,"question_num":141,"has_decoy":false,"subject":"S1C1663","sona":"41718","block":1,"time":"2021-09-23T00:25:19.672Z"},{"rt":1423.1000000089407,"stimulus":"[A] option 1, [L] option 2, [G] neither","key_press":76,"name":"choice","trial_type":"html-keyboard-response","trial_index":180,"time_elapsed":669725,"internal_node_id":"0.0-180.0","response":"2nd","certainty":"high","char":"L","transposition":3,"order":["swapped","shifted"],"probe_pitches":[-2,0,3,-2,0,7,3,7,5,3,0,10,3,-2,10,5],"shifted_pitches":[-2,0,3,-2,0,7,3,8,5,3,0,10,3,-2,10,5],"swapped_pitches":[-2,0,3,-2,0,7,3,5,7,3,0,10,3,-2,10,5],"shift_direction":1,"question_num":151,"has_decoy":false,"subject":"S1C1663","sona":"41718","block":1,"time":"2021-09-23T00:25:19.672Z"},{"rt":1913.300000011921,"stimulus":"[A] option 1, [L] option 2, [G] neither","key_press":76,"name":"choice","trial_type":"html-keyboard-response","trial_index":191,"time_elapsed":695878,"internal_node_id":"0.0-191.0","response":"2nd","certainty":"high","char":"L","transposition":2,"order":["shifted","swapped"],"probe_pitches":[5,10,5,7,0,-2,0,7,2,10,-2,0,-2,2,-2,2],"shifted_pitches":[5,10,5,7,0,-2,0,7,3,10,-2,0,-2,2,-2,2],"swapped_pitches":[5,10,5,7,0,-2,0,2,7,10,-2,0,-2,2,-2,2],"shift_direction":1,"question_num":161,"has_decoy":false,"subject":"S1C1663","sona":"41718","block":1,"time":"2021-09-23T00:25:19.672Z"},{"rt":1664.2000000029802,"stimulus":"[A] option 1, [L] option 2, [G] neither","key_press":65,"name":"choice","trial_type":"html-keyboard-response","trial_index":202,"time_elapsed":720809,"internal_node_id":"0.0-202.0","response":"1st","certainty":"high","char":"A","transposition":2,"order":["swapped","shifted"],"probe_pitches":[14,9,14,10,3,5,3,9,6,13,4,11,13,11,14,15],"shifted_pitches":[14,9,14,10,3,5,3,9,7,13,4,11,13,11,14,15],"swapped_pitches":[14,9,14,10,3,5,3,6,9,13,4,11,13,11,14,15],"shift_direction":1,"question_num":171,"has_decoy":false,"subject":"S1C1663","sona":"41718","block":1,"time":"2021-09-23T00:25:19.672Z"},{"rt":1024,"stimulus":"[A] option 1, [L] option 2, [G] neither","key_press":76,"name":"choice","trial_type":"html-keyboard-response","trial_index":213,"time_elapsed":746438,"internal_node_id":"0.0-213.0","response":"2nd","certainty":"high","char":"L","transposition":-1,"order":["shifted","swapped"],"probe_pitches":[-2,1,-2,3,1,8,3,1,-2,10,-2,1,8,5,-2,3],"shifted_pitches":[-2,1,-2,3,1,8,3,0,-2,10,-2,1,8,5,-2,3],"swapped_pitches":[-2,1,-2,3,1,8,3,-2,1,10,-2,1,8,5,-2,3],"shift_direction":-1,"question_num":181,"has_decoy":false,"subject":"S1C1663","sona":"41718","block":1,"time":"2021-09-23T00:25:19.672Z"},{"rt":984.2000000029802,"stimulus":"[A] option 1, [L] option 2, [G] neither","key_press":65,"name":"choice","trial_type":"html-keyboard-response","trial_index":224,"time_elapsed":769628,"internal_node_id":"0.0-224.0","response":"1st","certainty":"high","char":"A","transposition":-2,"order":["shifted","swapped"],"probe_pitches":[8,10,8,3,-2,5,3,5,0,8,3,10,3,0,-2,10],"shifted_pitches":[8,10,8,3,-2,5,3,5,-1,8,3,10,3,0,-2,10],"swapped_pitches":[8,10,8,3,-2,5,3,0,5,8,3,10,3,0,-2,10],"shift_direction":-1,"question_num":191,"has_decoy":false,"subject":"S1C1663","sona":"41718","block":1,"time":"2021-09-23T00:25:19.672Z"}]