[{"rt":3912.7999999970198,"stimulus":"[A] option 1, [L] option 2, [G] neither","key_press":71,"name":"choice","trial_type":"html-keyboard-response","trial_index":10,"time_elapsed":29417,"internal_node_id":"0.0-10.0","subject":"S1C1663","sona":"41718","block":4,"time":"2021-09-23T01:02:51.632Z","response":"neither","certainty":"high","char":"G","transposition":2,"order":["shifted","swapped"],"probe_pitches":[5,10,7,3,5,3,10,7,12,10,15,12,5,10,7,10],"shifted_pitches":[5,10,7,3,5,3,10,7,13,10,15,12,5,10,7,10],"swapped_pitches":[5,10,7,3,5,3,10,12,7,10,15,12,5,10,7,10],"shift_direction":1,"question_num":1,"has_decoy":false},{"rt":912.7999999970198,"stimulus":"[A] option 1, [L] option 2, [G] neither","key_press":65,"name":"choice","trial_type":"html-keyboard-response","trial_index":21,"time_elapsed":54657,"internal_node_id":"0.0-21.0","subject":"S1C1663","sona":"41718","block":4,"time":"2021-09-23T01:02:51.632Z","response":"1st","certainty":"high","char":"A","transposition":-3,"order":["swapped","shifted"],"probe_pitches":[5,10,5,12,7,12,15,10,7,12,10,3,10,5,3,5],"shifted_pitches":[5,10,5,12,7,12,15,9,7,12,10,3,10,5,3,5],"swapped_pitches":[5,10,5,12,7,12,15,7,10,12,10,3,10,5,3,5],"shift_direction":-1,"question_num":11,"has_decoy":false},{"rt":1112.7999999970198,"stimulus":"[A] option 1, [L] option 2, [G] neither","key_press":65,"name":"choice","trial_type":"html-keyboard-response","trial_index":32,"time_elapsed":79792,"internal_node_id":"0.0-32.0","subject":"S1C1663","sona":"41718","block":4,"time":"2021-09-23T01:02:51.632Z","response":"1st","certainty":"high","char":"A","transposition":-1,"order":["shifted","swapped"],"probe_pitches":[3,5,12,5,10,3,10,8,12,3,12,8,3,15,12,5],"shifted_pitches":[3,5,12,5,10,3,10,8,11,3,12,8,3,15,12,5],"swapped_pitches":[3,5,12,5,10,3,10,12,8,3,12,8,3,15,12,5],"shift_direction":-1,"question_num":21,"has_decoy":false},{"rt":1612.7000000029802,"stimulus":"[A] option 1, [L] option 2, [G] neither","key_press":65,"name":"choice","trial_type":"html-keyboard-response","trial_index":43,"time_elapsed":104922,"internal_node_id":"0.0-43.0","subject":"S1C1663","sona":"41718","block":4,"time":"2021-09-23T01:02:51.632Z","response":"1st","certainty":"high","char":"A","transposition":-2,"order":["shifted","swapped"],"probe_pitches":[13,15,10,8,5,13,8,3,13,10,8,13,8,5,10,13],"shifted_pitches":[13,15,10,8,5,13,8,4,13,10,8,13,8,5,10,13],"swapped_pitches":[13,15,10,8,5,13,8,13,3,10,8,13,8,5,10,13],"shift_direction":1,"question_num":31,"has_decoy":false},{"rt":1823.7000000029802,"stimulus":"[A] option 1, [L] option 2, [G] neither","key_press":76,"name":"choice","trial_type":"html-keyboard-response","trial_index":54,"time_elapsed":130762,"internal_node_id":"0.0-54.0","subject":"S1C1663","sona":"41718","block":4,"time":"2021-09-23T01:02:51.632Z","response":"2nd","certainty":"high","char":"L","transposition":0,"order":["swapped","shifted"],"probe_pitches":[6,8,13,15,8,3,13,10,8,3,15,8,6,8,10,3],"shifted_pitches":[6,8,13,15,8,3,13,11,8,3,15,8,6,8,10,3],"swapped_pitches":[6,8,13,15,8,3,13,8,10,3,15,8,6,8,10,3],"shift_direction":1,"question_num":41,"has_decoy":false},{"rt":1713.3999999910593,"stimulus":"[A] option 1, [L] option 2, [G] neither","key_press":65,"name":"choice","trial_type":"html-keyboard-response","trial_index":65,"time_elapsed":156252,"internal_node_id":"0.0-65.0","subject":"S1C1663","sona":"41718","block":4,"time":"2021-09-23T01:02:51.632Z","response":"1st","certainty":"high","char":"A","transposition":-1,"order":["shifted","swapped"],"probe_pitches":[5,9,5,0,3,-1,3,1,7,-1,2,7,4,9,7,4],"shifted_pitches":[5,9,5,0,3,-1,3,1,8,-1,2,7,4,9,7,4],"swapped_pitches":[5,9,5,0,3,-1,3,7,1,-1,2,7,4,9,7,4],"shift_direction":1,"question_num":51,"has_decoy":false},{"rt":873.5,"stimulus":"[A] option 1, [L] option 2, [G] neither","key_press":65,"name":"choice","trial_type":"html-keyboard-response","trial_index":76,"time_elapsed":180252,"internal_node_id":"0.0-76.0","subject":"S1C1663","sona":"41718","block":4,"time":"2021-09-23T01:02:51.632Z","response":"1st","certainty":"high","char":"A","transposition":-3,"order":["shifted","swapped"],"probe_pitches":[10,9,2,5,6,10,11,0,-1,7,10,3,0,3,11,5],"shifted_pitches":[10,9,2,5,6,10,11,1,-1,7,10,3,0,3,11,5],"swapped_pitches":[10,9,2,5,6,10,11,-1,0,7,10,3,0,3,11,5],"shift_direction":1,"question_num":61,"has_decoy":false},{"rt":1263.7999999970198,"stimulus":"[A] option 1, [L] option 2, [G] neither","key_press":76,"name":"choice","trial_type":"html-keyboard-response","trial_index":87,"time_elapsed":204802,"internal_node_id":"0.0-87.0","subject":"S1C1663","sona":"41718","block":4,"time":"2021-09-23T01:02:51.632Z","response":"2nd","certainty":"high","char":"L","transposition":2,"order":["swapped","shifted"],"probe_pitches":[4,1,8,4,0,-1,4,7,2,11,7,2,1,8,9,-1],"shifted_pitches":[4,1,8,4,0,-1,4,6,2,11,7,2,1,8,9,-1],"swapped_pitches":[4,1,8,4,0,-1,4,2,7,11,7,2,1,8,9,-1],"shift_direction":-1,"question_num":71,"has_decoy":false},{"rt":1573.4000000059605,"stimulus":"[A] option 1, [L] option 2, [G] neither","key_press":71,"name":"choice","trial_type":"html-keyboard-response","trial_index":98,"time_elapsed":231072,"internal_node_id":"0.0-98.0","subject":"S1C1663","sona":"41718","block":4,"time":"2021-09-23T01:02:51.632Z","response":"neither","certainty":"high","char":"G","transposition":-2,"order":["swapped","shifted"],"probe_pitches":[15,13,15,8,11,15,13,15,6,11,6,8,11,3,8,3],"shifted_pitches":[15,13,15,8,11,15,13,15,5,11,6,8,11,3,8,3],"swapped_pitches":[15,13,15,8,11,15,13,6,15,11,6,8,11,3,8,3],"shift_direction":-1,"question_num":81,"has_decoy":false},{"rt":984.0999999940395,"stimulus":"[A] option 1, [L] option 2, [G] neither","key_press":76,"name":"choice","trial_type":"html-keyboard-response","trial_index":109,"time_elapsed":255560,"internal_node_id":"0.0-109.0","subject":"S1C1663","sona":"41718","block":4,"time":"2021-09-23T01:02:51.632Z","response":"2nd","certainty":"high","char":"L","transposition":-1,"order":["swapped","shifted"],"probe_pitches":[6,9,10,8,11,6,10,11,8,9,5,4,8,-1,10,-1],"shifted_pitches":[6,9,10,8,11,6,10,11,7,9,5,4,8,-1,10,-1],"swapped_pitches":[6,9,10,8,11,6,10,8,11,9,5,4,8,-1,10,-1],"shift_direction":-1,"question_num":91,"has_decoy":false},{"rt":2154.4000000059605,"stimulus":"[A] option 1, [L] option 2, [G] neither","key_press":65,"name":"choice","trial_type":"html-keyboard-response","trial_index":120,"time_elapsed":281701,"internal_node_id":"0.0-120.0","subject":"S1C1663","sona":"41718","block":4,"time":"2021-09-23T01:02:51.632Z","response":"1st","certainty":"high","char":"A","transposition":1,"order":["shifted","swapped"],"probe_pitches":[13,15,11,6,8,6,15,3,6,8,15,6,8,11,15,11],"shifted_pitches":[13,15,11,6,8,6,15,3,7,8,15,6,8,11,15,11],"swapped_pitches":[13,15,11,6,8,6,15,6,3,8,15,6,8,11,15,11],"shift_direction":1,"question_num":101,"has_decoy":false},{"rt":2324.7999999970198,"stimulus":"[A] option 1, [L] option 2, [G] neither","key_press":76,"name":"choice","trial_type":"html-keyboard-response","trial_index":131,"time_elapsed":307921,"internal_node_id":"0.0-131.0","subject":"S1C1663","sona":"41718","block":4,"time":"2021-09-23T01:02:51.632Z","response":"2nd","certainty":"high","char":"L","transposition":0,"order":["shifted","swapped"],"probe_pitches":[2,-1,0,8,7,8,11,5,2,1,5,-1,7,5,8,1],"shifted_pitches":[2,-1,0,8,7,8,11,5,3,1,5,-1,7,5,8,1],"swapped_pitches":[2,-1,0,8,7,8,11,2,5,1,5,-1,7,5,8,1],"shift_direction":1,"question_num":111,"has_decoy":false},{"rt":1134.9000000059605,"stimulus":"[A] option 1, [L] option 2, [G] neither","key_press":65,"name":"choice","trial_type":"html-keyboard-response","trial_index":142,"time_elapsed":332833,"internal_node_id":"0.0-142.0","subject":"S1C1663","sona":"41718","block":4,"time":"2021-09-23T01:02:51.632Z","response":"1st","certainty":"high","char":"A","transposition":-3,"order":["swapped","shifted"],"probe_pitches":[2,7,6,11,5,1,8,11,2,8,7,11,4,5,4,0],"shifted_pitches":[2,7,6,11,5,1,8,10,2,8,7,11,4,5,4,0],"swapped_pitches":[2,7,6,11,5,1,8,2,11,8,7,11,4,5,4,0],"shift_direction":-1,"question_num":121,"has_decoy":false},{"rt":1485.0999999940395,"stimulus":"[A] option 1, [L] option 2, [G] neither","key_press":65,"name":"choice","trial_type":"html-keyboard-response","trial_index":153,"time_elapsed":358153,"internal_node_id":"0.0-153.0","subject":"S1C1663","sona":"41718","block":4,"time":"2021-09-23T01:02:51.632Z","response":"1st","certainty":"high","char":"A","transposition":3,"order":["swapped","shifted"],"probe_pitches":[6,3,6,8,6,10,15,3,10,13,8,6,8,13,8,13],"shifted_pitches":[6,3,6,8,6,10,15,3,11,13,8,6,8,13,8,13],"swapped_pitches":[6,3,6,8,6,10,15,10,3,13,8,6,8,13,8,13],"shift_direction":1,"question_num":131,"has_decoy":false},{"rt":954.8000000119209,"stimulus":"[A] option 1, [L] option 2, [G] neither","key_press":65,"name":"choice","trial_type":"html-keyboard-response","trial_index":164,"time_elapsed":382612,"internal_node_id":"0.0-164.0","subject":"S1C1663","sona":"41718","block":4,"time":"2021-09-23T01:02:51.632Z","response":"1st","certainty":"high","char":"A","transposition":-1,"order":["shifted","swapped"],"probe_pitches":[8,10,3,5,10,8,15,3,5,15,8,3,13,5,13,10],"shifted_pitches":[8,10,3,5,10,8,15,2,5,15,8,3,13,5,13,10],"swapped_pitches":[8,10,3,5,10,8,15,5,3,15,8,3,13,5,13,10],"shift_direction":-1,"question_num":141,"has_decoy":false},{"rt":1895.5,"stimulus":"[A] option 1, [L] option 2, [G] neither","key_press":76,"name":"choice","trial_type":"html-keyboard-response","trial_index":175,"time_elapsed":407983,"internal_node_id":"0.0-175.0","subject":"S1C1663","sona":"41718","block":4,"time":"2021-09-23T01:02:51.632Z","response":"2nd","certainty":"high","char":"L","transposition":1,"order":["shifted","swapped"],"probe_pitches":[4,2,3,11,5,3,5,2,8,6,0,1,8,5,3,4],"shifted_pitches":[4,2,3,11,5,3,5,2,9,6,0,1,8,5,3,4],"swapped_pitches":[4,2,3,11,5,3,5,8,2,6,0,1,8,5,3,4],"shift_direction":1,"question_num":151,"has_decoy":false},{"rt":2556.2000000029802,"stimulus":"[A] option 1, [L] option 2, [G] neither","key_press":65,"name":"choice","trial_type":"html-keyboard-response","trial_index":186,"time_elapsed":435993,"internal_node_id":"0.0-186.0","subject":"S1C1663","sona":"41718","block":4,"time":"2021-09-23T01:02:51.632Z","response":"1st","certainty":"high","char":"A","transposition":3,"order":["swapped","shifted"],"probe_pitches":[-1,2,1,3,5,1,6,5,10,8,11,9,11,9,6,5],"shifted_pitches":[-1,2,1,3,5,1,6,4,10,8,11,9,11,9,6,5],"swapped_pitches":[-1,2,1,3,5,1,6,10,5,8,11,9,11,9,6,5],"shift_direction":-1,"question_num":161,"has_decoy":false},{"rt":2018.2999999970198,"stimulus":"[A] option 1, [L] option 2, [G] neither","key_press":76,"name":"choice","trial_type":"html-keyboard-response","trial_index":197,"time_elapsed":461815,"internal_node_id":"0.0-197.0","subject":"S1C1663","sona":"41718","block":4,"time":"2021-09-23T01:02:51.632Z","response":"2nd","certainty":"high","char":"L","transposition":-2,"order":["swapped","shifted"],"probe_pitches":[9,11,10,3,8,-1,6,10,1,6,7,3,9,10,0,1],"shifted_pitches":[9,11,10,3,8,-1,6,10,2,6,7,3,9,10,0,1],"swapped_pitches":[9,11,10,3,8,-1,6,1,10,6,7,3,9,10,0,1],"shift_direction":1,"question_num":171,"has_decoy":false},{"rt":755.9000000059605,"stimulus":"[A] option 1, [L] option 2, [G] neither","key_press":76,"name":"choice","trial_type":"html-keyboard-response","trial_index":208,"time_elapsed":486052,"internal_node_id":"0.0-208.0","subject":"S1C1663","sona":"41718","block":4,"time":"2021-09-23T01:02:51.632Z","response":"2nd","certainty":"high","char":"L","transposition":-2,"order":["shifted","swapped"],"probe_pitches":[7,11,6,9,8,10,8,6,4,10,11,9,10,3,7,8],"shifted_pitches":[7,11,6,9,8,10,8,5,4,10,11,9,10,3,7,8],"swapped_pitches":[7,11,6,9,8,10,8,4,6,10,11,9,10,3,7,8],"shift_direction":-1,"question_num":181,"has_decoy":false},{"rt":1085.5999999940395,"stimulus":"[A] option 1, [L] option 2, [G] neither","key_press":65,"name":"choice","trial_type":"html-keyboard-response","trial_index":219,"time_elapsed":513893,"internal_node_id":"0.0-219.0","subject":"S1C1663","sona":"41718","block":4,"time":"2021-09-23T01:02:51.632Z","response":"1st","certainty":"high","char":"A","transposition":-3,"order":["swapped","shifted"],"probe_pitches":[12,8,3,10,8,15,8,10,12,5,3,8,3,15,3,10],"shifted_pitches":[12,8,3,10,8,15,8,9,12,5,3,8,3,15,3,10],"swapped_pitches":[12,8,3,10,8,15,8,12,10,5,3,8,3,15,3,10],"shift_direction":-1,"question_num":191,"has_decoy":false}]