[{"rt":373.10000002384186,"stimulus":"[A] option 1, [L] option 2, [G] neither","key_press":65,"name":"choice","trial_type":"html-keyboard-response","trial_index":10,"time_elapsed":16315,"internal_node_id":"0.0-10.0","subject":"S1C0827","sona":"41706","block":6,"time":"2021-09-17T19:53:00.864Z","response":"1st","certainty":"high","char":"A","transposition":-3,"order":["swapped","shifted"],"probe_pitches":[11,6,8,11,15,13,15,8],"shifted_pitches":[11,6,8,10,15,13,15,8],"swapped_pitches":[11,6,8,15,11,13,15,8],"shift_direction":-1,"question_num":1,"has_decoy":false},{"rt":4534.800000071526,"stimulus":"[A] option 1, [L] option 2, [G] neither","key_press":71,"name":"choice","trial_type":"html-keyboard-response","trial_index":21,"time_elapsed":36765,"internal_node_id":"0.0-21.0","subject":"S1C0827","sona":"41706","block":6,"time":"2021-09-17T19:53:00.864Z","response":"neither","certainty":"high","char":"G","transposition":-1,"order":["swapped","shifted"],"probe_pitches":[4,8,12,10,4,3,6,2],"shifted_pitches":[4,8,12,10,5,3,6,2],"swapped_pitches":[4,8,12,4,10,3,6,2],"shift_direction":1,"question_num":11,"has_decoy":false},{"rt":4203.399999976158,"stimulus":"[A] option 1, [L] option 2, [G] neither","key_press":71,"name":"choice","trial_type":"html-keyboard-response","trial_index":32,"time_elapsed":61362,"internal_node_id":"0.0-32.0","subject":"S1C0827","sona":"41706","block":6,"time":"2021-09-17T19:53:00.864Z","response":"neither","certainty":"high","char":"G","transposition":2,"order":["swapped","shifted"],"probe_pitches":[8,10,12,8,3,12,5,3],"shifted_pitches":[8,10,12,8,4,12,5,3],"swapped_pitches":[8,10,12,3,8,12,5,3],"shift_direction":1,"question_num":21,"has_decoy":false},{"rt":526.5,"stimulus":"[A] option 1, [L] option 2, [G] neither","key_press":76,"name":"choice","trial_type":"html-keyboard-response","trial_index":43,"time_elapsed":81659,"internal_node_id":"0.0-43.0","subject":"S1C0827","sona":"41706","block":6,"time":"2021-09-17T19:53:00.864Z","response":"2nd","certainty":"high","char":"L","transposition":-2,"order":["swapped","shifted"],"probe_pitches":[4,10,4,0,9,10,6,4],"shifted_pitches":[4,10,4,0,8,10,6,4],"swapped_pitches":[4,10,4,9,0,10,6,4],"shift_direction":-1,"question_num":31,"has_decoy":false},{"rt":57.5,"stimulus":"[A] option 1, [L] option 2, [G] neither","key_press":65,"name":"choice","trial_type":"html-keyboard-response","trial_index":54,"time_elapsed":106037,"internal_node_id":"0.0-54.0","subject":"S1C0827","sona":"41706","block":6,"time":"2021-09-17T19:53:00.864Z","response":"1st","certainty":"high","char":"A","transposition":3,"order":["shifted","swapped"],"probe_pitches":[6,9,10,3,5,6,10,6],"shifted_pitches":[6,9,10,4,5,6,10,6],"swapped_pitches":[6,9,10,5,3,6,10,6],"shift_direction":1,"question_num":41,"has_decoy":false},{"rt":1417.6000000238419,"stimulus":"[A] option 1, [L] option 2, [G] neither","key_press":76,"name":"choice","trial_type":"html-keyboard-response","trial_index":65,"time_elapsed":123131,"internal_node_id":"0.0-65.0","subject":"S1C0827","sona":"41706","block":6,"time":"2021-09-17T19:53:00.864Z","response":"2nd","certainty":"high","char":"L","transposition":-3,"order":["shifted","swapped"],"probe_pitches":[4,3,8,3,1,5,7,6],"shifted_pitches":[4,3,8,2,1,5,7,6],"swapped_pitches":[4,3,8,1,3,5,7,6],"shift_direction":-1,"question_num":51,"has_decoy":false},{"rt":1235.8999999761581,"stimulus":"[A] option 1, [L] option 2, [G] neither","key_press":76,"name":"choice","trial_type":"html-keyboard-response","trial_index":76,"time_elapsed":141451,"internal_node_id":"0.0-76.0","subject":"S1C0827","sona":"41706","block":6,"time":"2021-09-17T19:53:00.864Z","response":"2nd","certainty":"high","char":"L","transposition":-3,"order":["swapped","shifted"],"probe_pitches":[5,8,3,5,13,3,5,10],"shifted_pitches":[5,8,3,5,12,3,5,10],"swapped_pitches":[5,8,3,13,5,3,5,10],"shift_direction":-1,"question_num":61,"has_decoy":false},{"rt":379.60000002384186,"stimulus":"[A] option 1, [L] option 2, [G] neither","key_press":71,"name":"choice","trial_type":"html-keyboard-response","trial_index":87,"time_elapsed":156509,"internal_node_id":"0.0-87.0","subject":"S1C0827","sona":"41706","block":6,"time":"2021-09-17T19:53:00.864Z","response":"neither","certainty":"high","char":"G","transposition":-2,"order":["shifted","swapped"],"probe_pitches":[10,13,6,10,15,8,15,10],"shifted_pitches":[10,13,6,11,15,8,15,10],"swapped_pitches":[10,13,6,15,10,8,15,10],"shift_direction":1,"question_num":71,"has_decoy":false},{"rt":1375.7000000476837,"stimulus":"[A] option 1, [L] option 2, [G] neither","key_press":65,"name":"choice","trial_type":"html-keyboard-response","trial_index":98,"time_elapsed":174410,"internal_node_id":"0.0-98.0","subject":"S1C0827","sona":"41706","block":6,"time":"2021-09-17T19:53:00.864Z","response":"1st","certainty":"high","char":"A","transposition":2,"order":["shifted","swapped"],"probe_pitches":[7,1,0,5,8,7,2,5],"shifted_pitches":[7,1,0,6,8,7,2,5],"swapped_pitches":[7,1,0,8,5,7,2,5],"shift_direction":1,"question_num":81,"has_decoy":false},{"rt":231.60000002384186,"stimulus":"[A] option 1, [L] option 2, [G] neither","key_press":71,"name":"choice","trial_type":"html-keyboard-response","trial_index":109,"time_elapsed":191564,"internal_node_id":"0.0-109.0","subject":"S1C0827","sona":"41706","block":6,"time":"2021-09-17T19:53:00.864Z","response":"neither","certainty":"high","char":"G","transposition":-1,"order":["shifted","swapped"],"probe_pitches":[13,8,3,10,8,6,3,15],"shifted_pitches":[13,8,3,10,9,6,3,15],"swapped_pitches":[13,8,3,8,10,6,3,15],"shift_direction":1,"question_num":91,"has_decoy":false},{"rt":1782.5999999046326,"stimulus":"[A] option 1, [L] option 2, [G] neither","key_press":65,"name":"choice","trial_type":"html-keyboard-response","trial_index":120,"time_elapsed":207690,"internal_node_id":"0.0-120.0","subject":"S1C0827","sona":"41706","block":6,"time":"2021-09-17T19:53:00.864Z","response":"1st","certainty":"high","char":"A","transposition":-2,"order":["shifted","swapped"],"probe_pitches":[4,5,4,0,8,1,0,4],"shifted_pitches":[4,5,4,-1,8,1,0,4],"swapped_pitches":[4,5,4,8,0,1,0,4],"shift_direction":-1,"question_num":101,"has_decoy":false},{"rt":308.7000000476837,"stimulus":"[A] option 1, [L] option 2, [G] neither","key_press":71,"name":"choice","trial_type":"html-keyboard-response","trial_index":131,"time_elapsed":229512,"internal_node_id":"0.0-131.0","subject":"S1C0827","sona":"41706","block":6,"time":"2021-09-17T19:53:00.864Z","response":"neither","certainty":"high","char":"G","transposition":-1,"order":["shifted","swapped"],"probe_pitches":[3,5,10,7,5,12,7,15],"shifted_pitches":[3,5,10,8,5,12,7,15],"swapped_pitches":[3,5,10,5,7,12,7,15],"shift_direction":1,"question_num":111,"has_decoy":false},{"rt":228.70000004768372,"stimulus":"[A] option 1, [L] option 2, [G] neither","key_press":76,"name":"choice","trial_type":"html-keyboard-response","trial_index":142,"time_elapsed":247982,"internal_node_id":"0.0-142.0","subject":"S1C0827","sona":"41706","block":6,"time":"2021-09-17T19:53:00.864Z","response":"2nd","certainty":"high","char":"L","transposition":0,"order":["swapped","shifted"],"probe_pitches":[1,6,1,9,5,2,4,9],"shifted_pitches":[1,6,1,10,5,2,4,9],"swapped_pitches":[1,6,1,5,9,2,4,9],"shift_direction":1,"question_num":121,"has_decoy":false},{"rt":815.6999999284744,"stimulus":"[A] option 1, [L] option 2, [G] neither","key_press":71,"name":"choice","trial_type":"html-keyboard-response","trial_index":153,"time_elapsed":264840,"internal_node_id":"0.0-153.0","subject":"S1C0827","sona":"41706","block":6,"time":"2021-09-17T19:53:00.864Z","response":"neither","certainty":"high","char":"G","transposition":0,"order":["swapped","shifted"],"probe_pitches":[8,3,5,3,10,13,8,10],"shifted_pitches":[8,3,5,4,10,13,8,10],"swapped_pitches":[8,3,5,10,3,13,8,10],"shift_direction":1,"question_num":131,"has_decoy":false},{"rt":1546,"stimulus":"[A] option 1, [L] option 2, [G] neither","key_press":65,"name":"choice","trial_type":"html-keyboard-response","trial_index":164,"time_elapsed":283128,"internal_node_id":"0.0-164.0","subject":"S1C0827","sona":"41706","block":6,"time":"2021-09-17T19:53:00.864Z","response":"1st","certainty":"high","char":"A","transposition":1,"order":["shifted","swapped"],"probe_pitches":[3,8,6,13,11,6,3,15],"shifted_pitches":[3,8,6,13,10,6,3,15],"swapped_pitches":[3,8,6,11,13,6,3,15],"shift_direction":-1,"question_num":141,"has_decoy":false},{"rt":9573.600000023842,"stimulus":"[A] option 1, [L] option 2, [G] neither","key_press":71,"name":"choice","trial_type":"html-keyboard-response","trial_index":175,"time_elapsed":312105,"internal_node_id":"0.0-175.0","subject":"S1C0827","sona":"41706","block":6,"time":"2021-09-17T19:53:00.864Z","response":"neither","certainty":"high","char":"G","transposition":1,"order":["shifted","swapped"],"probe_pitches":[0,4,2,6,8,1,6,12],"shifted_pitches":[0,4,2,6,7,1,6,12],"swapped_pitches":[0,4,2,8,6,1,6,12],"shift_direction":-1,"question_num":151,"has_decoy":false},{"rt":311.2999999523163,"stimulus":"[A] option 1, [L] option 2, [G] neither","key_press":71,"name":"choice","trial_type":"html-keyboard-response","trial_index":186,"time_elapsed":329211,"internal_node_id":"0.0-186.0","subject":"S1C0827","sona":"41706","block":6,"time":"2021-09-17T19:53:00.864Z","response":"neither","certainty":"high","char":"G","transposition":-3,"order":["swapped","shifted"],"probe_pitches":[12,6,1,6,2,1,4,2],"shifted_pitches":[12,6,1,6,3,1,4,2],"swapped_pitches":[12,6,1,2,6,1,4,2],"shift_direction":1,"question_num":161,"has_decoy":false},{"rt":3273.2999999523163,"stimulus":"[A] option 1, [L] option 2, [G] neither","key_press":65,"name":"choice","trial_type":"html-keyboard-response","trial_index":197,"time_elapsed":354231,"internal_node_id":"0.0-197.0","subject":"S1C0827","sona":"41706","block":6,"time":"2021-09-17T19:53:00.864Z","response":"1st","certainty":"high","char":"A","transposition":3,"order":["swapped","shifted"],"probe_pitches":[10,8,15,12,5,15,5,10],"shifted_pitches":[10,8,15,12,4,15,5,10],"swapped_pitches":[10,8,15,5,12,15,5,10],"shift_direction":-1,"question_num":171,"has_decoy":false},{"rt":2276.1999999284744,"stimulus":"[A] option 1, [L] option 2, [G] neither","key_press":76,"name":"choice","trial_type":"html-keyboard-response","trial_index":208,"time_elapsed":373991,"internal_node_id":"0.0-208.0","subject":"S1C0827","sona":"41706","block":6,"time":"2021-09-17T19:53:00.864Z","response":"2nd","certainty":"high","char":"L","transposition":-2,"order":["shifted","swapped"],"probe_pitches":[5,10,7,3,12,7,5,10],"shifted_pitches":[5,10,7,2,12,7,5,10],"swapped_pitches":[5,10,7,12,3,7,5,10],"shift_direction":-1,"question_num":181,"has_decoy":false},{"rt":3082.2999999523163,"stimulus":"[A] option 1, [L] option 2, [G] neither","key_press":71,"name":"choice","trial_type":"html-keyboard-response","trial_index":219,"time_elapsed":392275,"internal_node_id":"0.0-219.0","subject":"S1C0827","sona":"41706","block":6,"time":"2021-09-17T19:53:00.864Z","response":"neither","certainty":"high","char":"G","transposition":-1,"order":["swapped","shifted"],"probe_pitches":[0,3,0,2,10,6,2,11],"shifted_pitches":[0,3,0,2,9,6,2,11],"swapped_pitches":[0,3,0,10,2,6,2,11],"shift_direction":-1,"question_num":191,"has_decoy":false}]