[{"rt":673.6000000238419,"stimulus":"[A] option 1, [L] option 2, [G] neither","key_press":65,"name":"choice","trial_type":"html-keyboard-response","trial_index":10,"time_elapsed":17938,"internal_node_id":"0.0-10.0","subject":"S1C0827","sona":"41706","block":5,"time":"2021-09-17T19:46:11.529Z","response":"1st","certainty":"high","char":"A","transposition":0,"order":["shifted","swapped"],"probe_pitches":[9,4,6,1,5,7,9,5],"shifted_pitches":[9,4,6,2,5,7,9,5],"swapped_pitches":[9,4,6,5,1,7,9,5],"shift_direction":1,"question_num":1,"has_decoy":false},{"rt":247.5,"stimulus":"[A] option 1, [L] option 2, [G] neither","key_press":76,"name":"choice","trial_type":"html-keyboard-response","trial_index":21,"time_elapsed":37048,"internal_node_id":"0.0-21.0","subject":"S1C0827","sona":"41706","block":5,"time":"2021-09-17T19:46:11.529Z","response":"2nd","certainty":"high","char":"L","transposition":-3,"order":["shifted","swapped"],"probe_pitches":[10,4,10,2,9,10,9,8],"shifted_pitches":[10,4,10,1,9,10,9,8],"swapped_pitches":[10,4,10,9,2,10,9,8],"shift_direction":-1,"question_num":11,"has_decoy":false},{"rt":816.3000000715256,"stimulus":"[A] option 1, [L] option 2, [G] neither","key_press":71,"name":"choice","trial_type":"html-keyboard-response","trial_index":32,"time_elapsed":52961,"internal_node_id":"0.0-32.0","subject":"S1C0827","sona":"41706","block":5,"time":"2021-09-17T19:46:11.529Z","response":"neither","certainty":"high","char":"G","transposition":-3,"order":["shifted","swapped"],"probe_pitches":[8,9,3,0,4,8,2,11],"shifted_pitches":[8,9,3,0,5,8,2,11],"swapped_pitches":[8,9,3,4,0,8,2,11],"shift_direction":1,"question_num":21,"has_decoy":false},{"rt":569.1000000238419,"stimulus":"[A] option 1, [L] option 2, [G] neither","key_press":65,"name":"choice","trial_type":"html-keyboard-response","trial_index":43,"time_elapsed":72879,"internal_node_id":"0.0-43.0","subject":"S1C0827","sona":"41706","block":5,"time":"2021-09-17T19:46:11.529Z","response":"1st","certainty":"high","char":"A","transposition":1,"order":["swapped","shifted"],"probe_pitches":[-2,3,5,3,8,1,8,10],"shifted_pitches":[-2,3,5,2,8,1,8,10],"swapped_pitches":[-2,3,5,8,3,1,8,10],"shift_direction":-1,"question_num":31,"has_decoy":false},{"rt":643.7000000476837,"stimulus":"[A] option 1, [L] option 2, [G] neither","key_press":76,"name":"choice","trial_type":"html-keyboard-response","trial_index":54,"time_elapsed":91882,"internal_node_id":"0.0-54.0","subject":"S1C0827","sona":"41706","block":5,"time":"2021-09-17T19:46:11.529Z","response":"2nd","certainty":"high","char":"L","transposition":-1,"order":["shifted","swapped"],"probe_pitches":[4,6,4,9,3,1,6,11],"shifted_pitches":[4,6,4,8,3,1,6,11],"swapped_pitches":[4,6,4,3,9,1,6,11],"shift_direction":-1,"question_num":41,"has_decoy":false},{"rt":719.1000000238419,"stimulus":"[A] option 1, [L] option 2, [G] neither","key_press":65,"name":"choice","trial_type":"html-keyboard-response","trial_index":65,"time_elapsed":107803,"internal_node_id":"0.0-65.0","subject":"S1C0827","sona":"41706","block":5,"time":"2021-09-17T19:46:11.529Z","response":"1st","certainty":"high","char":"A","transposition":-1,"order":["swapped","shifted"],"probe_pitches":[4,9,10,2,7,8,2,9],"shifted_pitches":[4,9,10,2,6,8,2,9],"swapped_pitches":[4,9,10,7,2,8,2,9],"shift_direction":-1,"question_num":51,"has_decoy":false},{"rt":392.3000000715256,"stimulus":"[A] option 1, [L] option 2, [G] neither","key_press":65,"name":"choice","trial_type":"html-keyboard-response","trial_index":76,"time_elapsed":124756,"internal_node_id":"0.0-76.0","subject":"S1C0827","sona":"41706","block":5,"time":"2021-09-17T19:46:11.529Z","response":"1st","certainty":"high","char":"A","transposition":-2,"order":["shifted","swapped"],"probe_pitches":[-1,1,0,1,6,9,0,4],"shifted_pitches":[-1,1,0,1,7,9,0,4],"swapped_pitches":[-1,1,0,6,1,9,0,4],"shift_direction":1,"question_num":61,"has_decoy":false},{"rt":837.6999999284744,"stimulus":"[A] option 1, [L] option 2, [G] neither","key_press":76,"name":"choice","trial_type":"html-keyboard-response","trial_index":87,"time_elapsed":140993,"internal_node_id":"0.0-87.0","subject":"S1C0827","sona":"41706","block":5,"time":"2021-09-17T19:46:11.529Z","response":"2nd","certainty":"high","char":"L","transposition":-2,"order":["swapped","shifted"],"probe_pitches":[-2,3,-2,5,0,-2,8,0],"shifted_pitches":[-2,3,-2,5,-1,-2,8,0],"swapped_pitches":[-2,3,-2,0,5,-2,8,0],"shift_direction":-1,"question_num":71,"has_decoy":false},{"rt":1882.1000000238419,"stimulus":"[A] option 1, [L] option 2, [G] neither","key_press":71,"name":"choice","trial_type":"html-keyboard-response","trial_index":98,"time_elapsed":161206,"internal_node_id":"0.0-98.0","subject":"S1C0827","sona":"41706","block":5,"time":"2021-09-17T19:46:11.529Z","response":"neither","certainty":"high","char":"G","transposition":-3,"order":["shifted","swapped"],"probe_pitches":[10,6,1,6,8,3,8,1],"shifted_pitches":[10,6,1,5,8,3,8,1],"swapped_pitches":[10,6,1,8,6,3,8,1],"shift_direction":-1,"question_num":81,"has_decoy":false},{"rt":3012.2999999523163,"stimulus":"[A] option 1, [L] option 2, [G] neither","key_press":65,"name":"choice","trial_type":"html-keyboard-response","trial_index":109,"time_elapsed":193296,"internal_node_id":"0.0-109.0","subject":"S1C0827","sona":"41706","block":5,"time":"2021-09-17T19:46:11.529Z","response":"1st","certainty":"high","char":"A","transposition":1,"order":["swapped","shifted"],"probe_pitches":[8,2,7,0,8,11,0,7],"shifted_pitches":[8,2,7,0,9,11,0,7],"swapped_pitches":[8,2,7,8,0,11,0,7],"shift_direction":1,"question_num":91,"has_decoy":false},{"rt":2334,"stimulus":"[A] option 1, [L] option 2, [G] neither","key_press":71,"name":"choice","trial_type":"html-keyboard-response","trial_index":120,"time_elapsed":212244,"internal_node_id":"0.0-120.0","subject":"S1C0827","sona":"41706","block":5,"time":"2021-09-17T19:46:11.529Z","response":"neither","certainty":"high","char":"G","transposition":3,"order":["swapped","shifted"],"probe_pitches":[0,2,0,-2,5,7,-2,2],"shifted_pitches":[0,2,0,-2,4,7,-2,2],"swapped_pitches":[0,2,0,5,-2,7,-2,2],"shift_direction":-1,"question_num":101,"has_decoy":false},{"rt":2693.600000023842,"stimulus":"[A] option 1, [L] option 2, [G] neither","key_press":65,"name":"choice","trial_type":"html-keyboard-response","trial_index":131,"time_elapsed":243863,"internal_node_id":"0.0-131.0","subject":"S1C0827","sona":"41706","block":5,"time":"2021-09-17T19:46:11.529Z","response":"1st","certainty":"high","char":"A","transposition":-2,"order":["shifted","swapped"],"probe_pitches":[-2,0,2,5,-2,7,-2,5],"shifted_pitches":[-2,0,2,5,-1,7,-2,5],"swapped_pitches":[-2,0,2,-2,5,7,-2,5],"shift_direction":1,"question_num":111,"has_decoy":false},{"rt":7543.600000023842,"stimulus":"[A] option 1, [L] option 2, [G] neither","key_press":71,"name":"choice","trial_type":"html-keyboard-response","trial_index":142,"time_elapsed":269907,"internal_node_id":"0.0-142.0","subject":"S1C0827","sona":"41706","block":5,"time":"2021-09-17T19:46:11.529Z","response":"neither","certainty":"high","char":"G","transposition":-2,"order":["swapped","shifted"],"probe_pitches":[5,7,3,5,2,9,3,7],"shifted_pitches":[5,7,3,4,2,9,3,7],"swapped_pitches":[5,7,3,2,5,9,3,7],"shift_direction":-1,"question_num":121,"has_decoy":false},{"rt":560.1999999284744,"stimulus":"[A] option 1, [L] option 2, [G] neither","key_press":76,"name":"choice","trial_type":"html-keyboard-response","trial_index":153,"time_elapsed":293932,"internal_node_id":"0.0-153.0","subject":"S1C0827","sona":"41706","block":5,"time":"2021-09-17T19:46:11.529Z","response":"2nd","certainty":"high","char":"L","transposition":-3,"order":["shifted","swapped"],"probe_pitches":[10,5,10,3,7,-2,0,10],"shifted_pitches":[10,5,10,4,7,-2,0,10],"swapped_pitches":[10,5,10,7,3,-2,0,10],"shift_direction":1,"question_num":131,"has_decoy":false},{"rt":939.2000000476837,"stimulus":"[A] option 1, [L] option 2, [G] neither","key_press":76,"name":"choice","trial_type":"html-keyboard-response","trial_index":164,"time_elapsed":311265,"internal_node_id":"0.0-164.0","subject":"S1C0827","sona":"41706","block":5,"time":"2021-09-17T19:46:11.529Z","response":"2nd","certainty":"high","char":"L","transposition":0,"order":["swapped","shifted"],"probe_pitches":[5,8,5,1,-2,5,3,8],"shifted_pitches":[5,8,5,2,-2,5,3,8],"swapped_pitches":[5,8,5,-2,1,5,3,8],"shift_direction":1,"question_num":141,"has_decoy":false},{"rt":264.10000002384186,"stimulus":"[A] option 1, [L] option 2, [G] neither","key_press":71,"name":"choice","trial_type":"html-keyboard-response","trial_index":175,"time_elapsed":326340,"internal_node_id":"0.0-175.0","subject":"S1C0827","sona":"41706","block":5,"time":"2021-09-17T19:46:11.529Z","response":"neither","certainty":"high","char":"G","transposition":2,"order":["swapped","shifted"],"probe_pitches":[11,10,5,9,4,5,10,2],"shifted_pitches":[11,10,5,9,3,5,10,2],"swapped_pitches":[11,10,5,4,9,5,10,2],"shift_direction":-1,"question_num":151,"has_decoy":false},{"rt":1815,"stimulus":"[A] option 1, [L] option 2, [G] neither","key_press":65,"name":"choice","trial_type":"html-keyboard-response","trial_index":186,"time_elapsed":342574,"internal_node_id":"0.0-186.0","subject":"S1C0827","sona":"41706","block":5,"time":"2021-09-17T19:46:11.529Z","response":"1st","certainty":"high","char":"A","transposition":3,"order":["swapped","shifted"],"probe_pitches":[2,1,4,9,11,4,8,2],"shifted_pitches":[2,1,4,10,11,4,8,2],"swapped_pitches":[2,1,4,11,9,4,8,2],"shift_direction":1,"question_num":161,"has_decoy":false},{"rt":344.10000002384186,"stimulus":"[A] option 1, [L] option 2, [G] neither","key_press":71,"name":"choice","trial_type":"html-keyboard-response","trial_index":197,"time_elapsed":366617,"internal_node_id":"0.0-197.0","subject":"S1C0827","sona":"41706","block":5,"time":"2021-09-17T19:46:11.529Z","response":"neither","certainty":"high","char":"G","transposition":-1,"order":["shifted","swapped"],"probe_pitches":[5,7,10,5,7,-2,3,0],"shifted_pitches":[5,7,10,5,8,-2,3,0],"swapped_pitches":[5,7,10,7,5,-2,3,0],"shift_direction":1,"question_num":171,"has_decoy":false},{"rt":313.7000000476837,"stimulus":"[A] option 1, [L] option 2, [G] neither","key_press":76,"name":"choice","trial_type":"html-keyboard-response","trial_index":208,"time_elapsed":381574,"internal_node_id":"0.0-208.0","subject":"S1C0827","sona":"41706","block":5,"time":"2021-09-17T19:46:11.529Z","response":"2nd","certainty":"high","char":"L","transposition":-1,"order":["swapped","shifted"],"probe_pitches":[8,10,8,3,-2,5,8,0],"shifted_pitches":[8,10,8,4,-2,5,8,0],"swapped_pitches":[8,10,8,-2,3,5,8,0],"shift_direction":1,"question_num":181,"has_decoy":false},{"rt":75.70000004768372,"stimulus":"[A] option 1, [L] option 2, [G] neither","key_press":65,"name":"choice","trial_type":"html-keyboard-response","trial_index":219,"time_elapsed":396867,"internal_node_id":"0.0-219.0","subject":"S1C0827","sona":"41706","block":5,"time":"2021-09-17T19:46:11.529Z","response":"1st","certainty":"high","char":"A","transposition":2,"order":["shifted","swapped"],"probe_pitches":[10,8,1,3,-2,6,10,3],"shifted_pitches":[10,8,1,3,-3,6,10,3],"swapped_pitches":[10,8,1,-2,3,6,10,3],"shift_direction":-1,"question_num":191,"has_decoy":false}]