[{"rt":7958.100000023842,"stimulus":"[A] option 1, [L] option 2, [G] neither","key_press":76,"name":"choice","trial_type":"html-keyboard-response","trial_index":15,"time_elapsed":57423,"internal_node_id":"0.0-15.0","response":"2nd","certainty":"high","char":"L","transposition":3,"order":["shifted","swapped"],"probe_pitches":[3,5,10,12,5,10,0,8],"shifted_pitches":[3,5,10,11,5,10,0,8],"swapped_pitches":[3,5,10,5,12,10,0,8],"shift_direction":-1,"question_num":1,"has_decoy":false,"subject":"S1C0827","sona":"41706","block":1,"time":"2021-09-17T19:18:16.660Z"},{"rt":4298.299999952316,"stimulus":"[A] option 1, [L] option 2, [G] neither","key_press":76,"name":"choice","trial_type":"html-keyboard-response","trial_index":26,"time_elapsed":79400,"internal_node_id":"0.0-26.0","response":"2nd","certainty":"high","char":"L","transposition":-3,"order":["swapped","shifted"],"probe_pitches":[9,7,5,2,9,4,8,4],"shifted_pitches":[9,7,5,2,10,4,8,4],"swapped_pitches":[9,7,5,9,2,4,8,4],"shift_direction":1,"question_num":11,"has_decoy":false,"subject":"S1C0827","sona":"41706","block":1,"time":"2021-09-17T19:18:16.660Z"},{"rt":1462,"stimulus":"[A] option 1, [L] option 2, [G] neither","key_press":76,"name":"choice","trial_type":"html-keyboard-response","trial_index":37,"time_elapsed":96980,"internal_node_id":"0.0-37.0","response":"2nd","certainty":"high","char":"L","transposition":-2,"order":["shifted","swapped"],"probe_pitches":[12,10,3,7,12,5,3,5],"shifted_pitches":[12,10,3,7,13,5,3,5],"swapped_pitches":[12,10,3,12,7,5,3,5],"shift_direction":1,"question_num":21,"has_decoy":false,"subject":"S1C0827","sona":"41706","block":1,"time":"2021-09-17T19:18:16.660Z"},{"rt":9492.899999976158,"stimulus":"[A] option 1, [L] option 2, [G] neither","key_press":71,"name":"choice","trial_type":"html-keyboard-response","trial_index":48,"time_elapsed":121896,"internal_node_id":"0.0-48.0","response":"neither","certainty":"high","char":"G","transposition":1,"order":["swapped","shifted"],"probe_pitches":[12,9,2,7,4,0,9,12],"shifted_pitches":[12,9,2,7,5,0,9,12],"swapped_pitches":[12,9,2,4,7,0,9,12],"shift_direction":1,"question_num":31,"has_decoy":false,"subject":"S1C0827","sona":"41706","block":1,"time":"2021-09-17T19:18:16.660Z"},{"rt":868.7999999523163,"stimulus":"[A] option 1, [L] option 2, [G] neither","key_press":76,"name":"choice","trial_type":"html-keyboard-response","trial_index":59,"time_elapsed":139703,"internal_node_id":"0.0-59.0","response":"2nd","certainty":"high","char":"L","transposition":2,"order":["swapped","shifted"],"probe_pitches":[3,9,14,8,13,14,10,6],"shifted_pitches":[3,9,14,7,13,14,10,6],"swapped_pitches":[3,9,14,13,8,14,10,6],"shift_direction":-1,"question_num":41,"has_decoy":false,"subject":"S1C0827","sona":"41706","block":1,"time":"2021-09-17T19:18:16.660Z"},{"rt":686.2999999523163,"stimulus":"[A] option 1, [L] option 2, [G] neither","key_press":65,"name":"choice","trial_type":"html-keyboard-response","trial_index":70,"time_elapsed":155731,"internal_node_id":"0.0-70.0","response":"1st","certainty":"high","char":"A","transposition":0,"order":["swapped","shifted"],"probe_pitches":[13,14,13,10,5,9,8,13],"shifted_pitches":[13,14,13,10,4,9,8,13],"swapped_pitches":[13,14,13,5,10,9,8,13],"shift_direction":-1,"question_num":51,"has_decoy":false,"subject":"S1C0827","sona":"41706","block":1,"time":"2021-09-17T19:18:16.660Z"},{"rt":3812.899999976158,"stimulus":"[A] option 1, [L] option 2, [G] neither","key_press":76,"name":"choice","trial_type":"html-keyboard-response","trial_index":81,"time_elapsed":175031,"internal_node_id":"0.0-81.0","response":"2nd","certainty":"high","char":"L","transposition":-2,"order":["shifted","swapped"],"probe_pitches":[12,14,7,12,5,7,12,3],"shifted_pitches":[12,14,7,11,5,7,12,3],"swapped_pitches":[12,14,7,5,12,7,12,3],"shift_direction":-1,"question_num":61,"has_decoy":false,"subject":"S1C0827","sona":"41706","block":1,"time":"2021-09-17T19:18:16.660Z"},{"rt":24727.299999952316,"stimulus":"[A] option 1, [L] option 2, [G] neither","key_press":71,"name":"choice","trial_type":"html-keyboard-response","trial_index":92,"time_elapsed":215305,"internal_node_id":"0.0-92.0","response":"neither","certainty":"high","char":"G","transposition":-3,"order":["shifted","swapped"],"probe_pitches":[12,10,12,10,2,5,7,10],"shifted_pitches":[12,10,12,9,2,5,7,10],"swapped_pitches":[12,10,12,2,10,5,7,10],"shift_direction":-1,"question_num":71,"has_decoy":false,"subject":"S1C0827","sona":"41706","block":1,"time":"2021-09-17T19:18:16.660Z"},{"rt":997.3999999761581,"stimulus":"[A] option 1, [L] option 2, [G] neither","key_press":65,"name":"choice","trial_type":"html-keyboard-response","trial_index":103,"time_elapsed":231856,"internal_node_id":"0.0-103.0","response":"1st","certainty":"high","char":"A","transposition":-1,"order":["shifted","swapped"],"probe_pitches":[13,11,9,3,4,12,8,13],"shifted_pitches":[13,11,9,3,5,12,8,13],"swapped_pitches":[13,11,9,4,3,12,8,13],"shift_direction":1,"question_num":81,"has_decoy":false,"subject":"S1C0827","sona":"41706","block":1,"time":"2021-09-17T19:18:16.660Z"},{"rt":725.6999999284744,"stimulus":"[A] option 1, [L] option 2, [G] neither","key_press":76,"name":"choice","trial_type":"html-keyboard-response","trial_index":114,"time_elapsed":247973,"internal_node_id":"0.0-114.0","response":"2nd","certainty":"high","char":"L","transposition":1,"order":["shifted","swapped"],"probe_pitches":[5,2,4,2,8,3,4,11],"shifted_pitches":[5,2,4,2,9,3,4,11],"swapped_pitches":[5,2,4,8,2,3,4,11],"shift_direction":1,"question_num":91,"has_decoy":false,"subject":"S1C0827","sona":"41706","block":1,"time":"2021-09-17T19:18:16.660Z"},{"rt":2096.2000000476837,"stimulus":"[A] option 1, [L] option 2, [G] neither","key_press":71,"name":"choice","trial_type":"html-keyboard-response","trial_index":125,"time_elapsed":265114,"internal_node_id":"0.0-125.0","response":"neither","certainty":"high","char":"G","transposition":-2,"order":["swapped","shifted"],"probe_pitches":[5,2,9,12,7,5,9,7],"shifted_pitches":[5,2,9,12,8,5,9,7],"swapped_pitches":[5,2,9,7,12,5,9,7],"shift_direction":1,"question_num":101,"has_decoy":false,"subject":"S1C0827","sona":"41706","block":1,"time":"2021-09-17T19:18:16.660Z"},{"rt":1216.7999999523163,"stimulus":"[A] option 1, [L] option 2, [G] neither","key_press":65,"name":"choice","trial_type":"html-keyboard-response","trial_index":136,"time_elapsed":282165,"internal_node_id":"0.0-136.0","response":"1st","certainty":"high","char":"A","transposition":3,"order":["shifted","swapped"],"probe_pitches":[6,4,5,11,10,5,11,10],"shifted_pitches":[6,4,5,12,10,5,11,10],"swapped_pitches":[6,4,5,10,11,5,11,10],"shift_direction":1,"question_num":111,"has_decoy":false,"subject":"S1C0827","sona":"41706","block":1,"time":"2021-09-17T19:18:16.660Z"},{"rt":723.8999999761581,"stimulus":"[A] option 1, [L] option 2, [G] neither","key_press":76,"name":"choice","trial_type":"html-keyboard-response","trial_index":147,"time_elapsed":298344,"internal_node_id":"0.0-147.0","response":"2nd","certainty":"high","char":"L","transposition":-1,"order":["swapped","shifted"],"probe_pitches":[2,4,0,2,7,12,9,4],"shifted_pitches":[2,4,0,1,7,12,9,4],"swapped_pitches":[2,4,0,7,2,12,9,4],"shift_direction":-1,"question_num":121,"has_decoy":false,"subject":"S1C0827","sona":"41706","block":1,"time":"2021-09-17T19:18:16.660Z"},{"rt":884.7000000476837,"stimulus":"[A] option 1, [L] option 2, [G] neither","key_press":76,"name":"choice","trial_type":"html-keyboard-response","trial_index":158,"time_elapsed":314942,"internal_node_id":"0.0-158.0","response":"2nd","certainty":"high","char":"L","transposition":-1,"order":["shifted","swapped"],"probe_pitches":[0,5,12,5,0,3,8,10],"shifted_pitches":[0,5,12,5,1,3,8,10],"swapped_pitches":[0,5,12,0,5,3,8,10],"shift_direction":1,"question_num":131,"has_decoy":false,"subject":"S1C0827","sona":"41706","block":1,"time":"2021-09-17T19:18:16.660Z"},{"rt":5350.899999976158,"stimulus":"[A] option 1, [L] option 2, [G] neither","key_press":65,"name":"choice","trial_type":"html-keyboard-response","trial_index":169,"time_elapsed":335323,"internal_node_id":"0.0-169.0","response":"1st","certainty":"high","char":"A","transposition":-1,"order":["swapped","shifted"],"probe_pitches":[12,9,11,5,2,12,3,7],"shifted_pitches":[12,9,11,6,2,12,3,7],"swapped_pitches":[12,9,11,2,5,12,3,7],"shift_direction":1,"question_num":141,"has_decoy":false,"subject":"S1C0827","sona":"41706","block":1,"time":"2021-09-17T19:18:16.660Z"},{"rt":1925.8999999761581,"stimulus":"[A] option 1, [L] option 2, [G] neither","key_press":71,"name":"choice","trial_type":"html-keyboard-response","trial_index":180,"time_elapsed":369225,"internal_node_id":"0.0-180.0","response":"neither","certainty":"high","char":"G","transposition":-3,"order":["swapped","shifted"],"probe_pitches":[4,5,10,13,9,6,10,9],"shifted_pitches":[4,5,10,13,8,6,10,9],"swapped_pitches":[4,5,10,9,13,6,10,9],"shift_direction":-1,"question_num":151,"has_decoy":false,"subject":"S1C0827","sona":"41706","block":1,"time":"2021-09-17T19:18:16.660Z"},{"rt":331.59999990463257,"stimulus":"[A] option 1, [L] option 2, [G] neither","key_press":76,"name":"choice","trial_type":"html-keyboard-response","trial_index":191,"time_elapsed":402446,"internal_node_id":"0.0-191.0","response":"2nd","certainty":"high","char":"L","transposition":-3,"order":["swapped","shifted"],"probe_pitches":[12,7,9,5,2,7,0,7],"shifted_pitches":[12,7,9,5,3,7,0,7],"swapped_pitches":[12,7,9,2,5,7,0,7],"shift_direction":1,"question_num":161,"has_decoy":false,"subject":"S1C0827","sona":"41706","block":1,"time":"2021-09-17T19:18:16.660Z"},{"rt":452.40000009536743,"stimulus":"[A] option 1, [L] option 2, [G] neither","key_press":76,"name":"choice","trial_type":"html-keyboard-response","trial_index":202,"time_elapsed":417927,"internal_node_id":"0.0-202.0","response":"2nd","certainty":"high","char":"L","transposition":2,"order":["shifted","swapped"],"probe_pitches":[5,2,7,2,10,12,5,0],"shifted_pitches":[5,2,7,1,10,12,5,0],"swapped_pitches":[5,2,7,10,2,12,5,0],"shift_direction":-1,"question_num":171,"has_decoy":false,"subject":"S1C0827","sona":"41706","block":1,"time":"2021-09-17T19:18:16.660Z"},{"rt":816.5,"stimulus":"[A] option 1, [L] option 2, [G] neither","key_press":76,"name":"choice","trial_type":"html-keyboard-response","trial_index":213,"time_elapsed":433923,"internal_node_id":"0.0-213.0","response":"2nd","certainty":"high","char":"L","transposition":-2,"order":["shifted","swapped"],"probe_pitches":[5,8,11,14,8,12,8,3],"shifted_pitches":[5,8,11,13,8,12,8,3],"swapped_pitches":[5,8,11,8,14,12,8,3],"shift_direction":-1,"question_num":181,"has_decoy":false,"subject":"S1C0827","sona":"41706","block":1,"time":"2021-09-17T19:18:16.660Z"},{"rt":1823.3000000715256,"stimulus":"[A] option 1, [L] option 2, [G] neither","key_press":76,"name":"choice","trial_type":"html-keyboard-response","trial_index":224,"time_elapsed":450338,"internal_node_id":"0.0-224.0","response":"2nd","certainty":"high","char":"L","transposition":0,"order":["swapped","shifted"],"probe_pitches":[10,5,7,3,5,10,12,10],"shifted_pitches":[10,5,7,2,5,10,12,10],"swapped_pitches":[10,5,7,5,3,10,12,10],"shift_direction":-1,"question_num":191,"has_decoy":false,"subject":"S1C0827","sona":"41706","block":1,"time":"2021-09-17T19:18:16.660Z"}]