[{"rt":372,"stimulus":"[A] option 1, [L] option 2, [G] neither","key_press":76,"name":"choice","trial_type":"html-keyboard-response","trial_index":10,"time_elapsed":16221,"internal_node_id":"0.0-10.0","subject":"S1C0827","sona":"41706","block":4,"time":"2021-09-17T19:38:43.626Z","response":"2nd","certainty":"high","char":"L","transposition":-2,"order":["swapped","shifted"],"probe_pitches":[13,9,10,5,3,4,13,9],"shifted_pitches":[13,9,10,6,3,4,13,9],"swapped_pitches":[13,9,10,3,5,4,13,9],"shift_direction":1,"question_num":1,"has_decoy":false},{"rt":470.60000002384186,"stimulus":"[A] option 1, [L] option 2, [G] neither","key_press":71,"name":"choice","trial_type":"html-keyboard-response","trial_index":21,"time_elapsed":31035,"internal_node_id":"0.0-21.0","subject":"S1C0827","sona":"41706","block":4,"time":"2021-09-17T19:38:43.626Z","response":"neither","certainty":"high","char":"G","transposition":-1,"order":["shifted","swapped"],"probe_pitches":[-3,0,2,4,7,9,2,4],"shifted_pitches":[-3,0,2,3,7,9,2,4],"swapped_pitches":[-3,0,2,7,4,9,2,4],"shift_direction":-1,"question_num":11,"has_decoy":false},{"rt":410.90000009536743,"stimulus":"[A] option 1, [L] option 2, [G] neither","key_press":65,"name":"choice","trial_type":"html-keyboard-response","trial_index":32,"time_elapsed":45721,"internal_node_id":"0.0-32.0","subject":"S1C0827","sona":"41706","block":4,"time":"2021-09-17T19:38:43.626Z","response":"1st","certainty":"high","char":"A","transposition":0,"order":["swapped","shifted"],"probe_pitches":[5,9,8,13,4,7,2,12],"shifted_pitches":[5,9,8,13,3,7,2,12],"swapped_pitches":[5,9,8,4,13,7,2,12],"shift_direction":-1,"question_num":21,"has_decoy":false},{"rt":510.3000000715256,"stimulus":"[A] option 1, [L] option 2, [G] neither","key_press":65,"name":"choice","trial_type":"html-keyboard-response","trial_index":43,"time_elapsed":63298,"internal_node_id":"0.0-43.0","subject":"S1C0827","sona":"41706","block":4,"time":"2021-09-17T19:38:43.626Z","response":"1st","certainty":"high","char":"A","transposition":2,"order":["shifted","swapped"],"probe_pitches":[3,2,9,8,11,2,13,1],"shifted_pitches":[3,2,9,8,10,2,13,1],"swapped_pitches":[3,2,9,11,8,2,13,1],"shift_direction":-1,"question_num":31,"has_decoy":false},{"rt":1488.9000000953674,"stimulus":"[A] option 1, [L] option 2, [G] neither","key_press":76,"name":"choice","trial_type":"html-keyboard-response","trial_index":54,"time_elapsed":79418,"internal_node_id":"0.0-54.0","subject":"S1C0827","sona":"41706","block":4,"time":"2021-09-17T19:38:43.626Z","response":"2nd","certainty":"high","char":"L","transposition":-2,"order":["shifted","swapped"],"probe_pitches":[-1,4,7,4,-3,2,-1,2],"shifted_pitches":[-1,4,7,4,-2,2,-1,2],"swapped_pitches":[-1,4,7,-3,4,2,-1,2],"shift_direction":1,"question_num":41,"has_decoy":false},{"rt":354.5,"stimulus":"[A] option 1, [L] option 2, [G] neither","key_press":71,"name":"choice","trial_type":"html-keyboard-response","trial_index":65,"time_elapsed":94535,"internal_node_id":"0.0-65.0","subject":"S1C0827","sona":"41706","block":4,"time":"2021-09-17T19:38:43.626Z","response":"neither","certainty":"high","char":"G","transposition":-1,"order":["swapped","shifted"],"probe_pitches":[1,6,5,10,12,13,7,3],"shifted_pitches":[1,6,5,11,12,13,7,3],"swapped_pitches":[1,6,5,12,10,13,7,3],"shift_direction":1,"question_num":51,"has_decoy":false},{"rt":705.1000000238419,"stimulus":"[A] option 1, [L] option 2, [G] neither","key_press":76,"name":"choice","trial_type":"html-keyboard-response","trial_index":76,"time_elapsed":109930,"internal_node_id":"0.0-76.0","subject":"S1C0827","sona":"41706","block":4,"time":"2021-09-17T19:38:43.626Z","response":"2nd","certainty":"high","char":"L","transposition":3,"order":["swapped","shifted"],"probe_pitches":[1,7,10,2,4,6,9,6],"shifted_pitches":[1,7,10,2,5,6,9,6],"swapped_pitches":[1,7,10,4,2,6,9,6],"shift_direction":1,"question_num":61,"has_decoy":false},{"rt":1057.2000000476837,"stimulus":"[A] option 1, [L] option 2, [G] neither","key_press":71,"name":"choice","trial_type":"html-keyboard-response","trial_index":87,"time_elapsed":129275,"internal_node_id":"0.0-87.0","subject":"S1C0827","sona":"41706","block":4,"time":"2021-09-17T19:38:43.626Z","response":"neither","certainty":"high","char":"G","transposition":-2,"order":["swapped","shifted"],"probe_pitches":[4,7,0,4,9,0,2,4],"shifted_pitches":[4,7,0,3,9,0,2,4],"swapped_pitches":[4,7,0,9,4,0,2,4],"shift_direction":-1,"question_num":71,"has_decoy":false},{"rt":309.2999999523163,"stimulus":"[A] option 1, [L] option 2, [G] neither","key_press":65,"name":"choice","trial_type":"html-keyboard-response","trial_index":98,"time_elapsed":145561,"internal_node_id":"0.0-98.0","subject":"S1C0827","sona":"41706","block":4,"time":"2021-09-17T19:38:43.626Z","response":"1st","certainty":"high","char":"A","transposition":1,"order":["shifted","swapped"],"probe_pitches":[6,1,4,-1,6,9,4,1],"shifted_pitches":[6,1,4,0,6,9,4,1],"swapped_pitches":[6,1,4,6,-1,9,4,1],"shift_direction":1,"question_num":81,"has_decoy":false},{"rt":320,"stimulus":"[A] option 1, [L] option 2, [G] neither","key_press":65,"name":"choice","trial_type":"html-keyboard-response","trial_index":109,"time_elapsed":160879,"internal_node_id":"0.0-109.0","subject":"S1C0827","sona":"41706","block":4,"time":"2021-09-17T19:38:43.626Z","response":"1st","certainty":"high","char":"A","transposition":-3,"order":["swapped","shifted"],"probe_pitches":[13,11,5,13,10,7,5,8],"shifted_pitches":[13,11,5,13,9,7,5,8],"swapped_pitches":[13,11,5,10,13,7,5,8],"shift_direction":-1,"question_num":91,"has_decoy":false},{"rt":2105.7000000476837,"stimulus":"[A] option 1, [L] option 2, [G] neither","key_press":76,"name":"choice","trial_type":"html-keyboard-response","trial_index":120,"time_elapsed":179198,"internal_node_id":"0.0-120.0","subject":"S1C0827","sona":"41706","block":4,"time":"2021-09-17T19:38:43.626Z","response":"2nd","certainty":"high","char":"L","transposition":-3,"order":["shifted","swapped"],"probe_pitches":[0,2,5,7,2,9,2,-3],"shifted_pitches":[0,2,5,7,3,9,2,-3],"swapped_pitches":[0,2,5,2,7,9,2,-3],"shift_direction":1,"question_num":101,"has_decoy":false},{"rt":384.60000002384186,"stimulus":"[A] option 1, [L] option 2, [G] neither","key_press":71,"name":"choice","trial_type":"html-keyboard-response","trial_index":131,"time_elapsed":194560,"internal_node_id":"0.0-131.0","subject":"S1C0827","sona":"41706","block":4,"time":"2021-09-17T19:38:43.626Z","response":"neither","certainty":"high","char":"G","transposition":-3,"order":["swapped","shifted"],"probe_pitches":[2,-3,0,-3,5,7,-3,5],"shifted_pitches":[2,-3,0,-2,5,7,-3,5],"swapped_pitches":[2,-3,0,5,-3,7,-3,5],"shift_direction":1,"question_num":111,"has_decoy":false},{"rt":275.5,"stimulus":"[A] option 1, [L] option 2, [G] neither","key_press":76,"name":"choice","trial_type":"html-keyboard-response","trial_index":142,"time_elapsed":212035,"internal_node_id":"0.0-142.0","subject":"S1C0827","sona":"41706","block":4,"time":"2021-09-17T19:38:43.626Z","response":"2nd","certainty":"high","char":"L","transposition":3,"order":["swapped","shifted"],"probe_pitches":[-1,-3,-1,4,9,2,-3,6],"shifted_pitches":[-1,-3,-1,4,8,2,-3,6],"swapped_pitches":[-1,-3,-1,9,4,2,-3,6],"shift_direction":-1,"question_num":121,"has_decoy":false},{"rt":438.89999997615814,"stimulus":"[A] option 1, [L] option 2, [G] neither","key_press":71,"name":"choice","trial_type":"html-keyboard-response","trial_index":153,"time_elapsed":229425,"internal_node_id":"0.0-153.0","subject":"S1C0827","sona":"41706","block":4,"time":"2021-09-17T19:38:43.626Z","response":"neither","certainty":"high","char":"G","transposition":-1,"order":["swapped","shifted"],"probe_pitches":[4,-1,4,7,9,2,4,-3],"shifted_pitches":[4,-1,4,6,9,2,4,-3],"swapped_pitches":[4,-1,4,9,7,2,4,-3],"shift_direction":-1,"question_num":131,"has_decoy":false},{"rt":143.60000002384186,"stimulus":"[A] option 1, [L] option 2, [G] neither","key_press":76,"name":"choice","trial_type":"html-keyboard-response","trial_index":164,"time_elapsed":244367,"internal_node_id":"0.0-164.0","subject":"S1C0827","sona":"41706","block":4,"time":"2021-09-17T19:38:43.626Z","response":"2nd","certainty":"high","char":"L","transposition":-3,"order":["shifted","swapped"],"probe_pitches":[3,7,11,9,10,11,9,1],"shifted_pitches":[3,7,11,8,10,11,9,1],"swapped_pitches":[3,7,11,10,9,11,9,1],"shift_direction":-1,"question_num":141,"has_decoy":false},{"rt":1144.3999999761581,"stimulus":"[A] option 1, [L] option 2, [G] neither","key_press":65,"name":"choice","trial_type":"html-keyboard-response","trial_index":175,"time_elapsed":259826,"internal_node_id":"0.0-175.0","subject":"S1C0827","sona":"41706","block":4,"time":"2021-09-17T19:38:43.626Z","response":"1st","certainty":"high","char":"A","transposition":1,"order":["shifted","swapped"],"probe_pitches":[13,8,11,3,9,5,13,2],"shifted_pitches":[13,8,11,4,9,5,13,2],"swapped_pitches":[13,8,11,9,3,5,13,2],"shift_direction":1,"question_num":151,"has_decoy":false},{"rt":442.10000002384186,"stimulus":"[A] option 1, [L] option 2, [G] neither","key_press":71,"name":"choice","trial_type":"html-keyboard-response","trial_index":186,"time_elapsed":276532,"internal_node_id":"0.0-186.0","subject":"S1C0827","sona":"41706","block":4,"time":"2021-09-17T19:38:43.626Z","response":"neither","certainty":"high","char":"G","transposition":-1,"order":["shifted","swapped"],"probe_pitches":[13,8,13,11,10,8,2,1],"shifted_pitches":[13,8,13,12,10,8,2,1],"swapped_pitches":[13,8,13,10,11,8,2,1],"shift_direction":1,"question_num":161,"has_decoy":false},{"rt":2689.399999976158,"stimulus":"[A] option 1, [L] option 2, [G] neither","key_press":71,"name":"choice","trial_type":"html-keyboard-response","trial_index":197,"time_elapsed":294534,"internal_node_id":"0.0-197.0","subject":"S1C0827","sona":"41706","block":4,"time":"2021-09-17T19:38:43.626Z","response":"neither","certainty":"high","char":"G","transposition":-2,"order":["shifted","swapped"],"probe_pitches":[4,10,11,3,8,1,8,12],"shifted_pitches":[4,10,11,3,7,1,8,12],"swapped_pitches":[4,10,11,8,3,1,8,12],"shift_direction":-1,"question_num":171,"has_decoy":false},{"rt":366.7000000476837,"stimulus":"[A] option 1, [L] option 2, [G] neither","key_press":76,"name":"choice","trial_type":"html-keyboard-response","trial_index":208,"time_elapsed":309721,"internal_node_id":"0.0-208.0","subject":"S1C0827","sona":"41706","block":4,"time":"2021-09-17T19:38:43.626Z","response":"2nd","certainty":"high","char":"L","transposition":2,"order":["shifted","swapped"],"probe_pitches":[1,6,-1,6,4,1,9,-3],"shifted_pitches":[1,6,-1,6,3,1,9,-3],"swapped_pitches":[1,6,-1,4,6,1,9,-3],"shift_direction":-1,"question_num":181,"has_decoy":false},{"rt":359.10000002384186,"stimulus":"[A] option 1, [L] option 2, [G] neither","key_press":65,"name":"choice","trial_type":"html-keyboard-response","trial_index":219,"time_elapsed":325100,"internal_node_id":"0.0-219.0","subject":"S1C0827","sona":"41706","block":4,"time":"2021-09-17T19:38:43.626Z","response":"1st","certainty":"high","char":"A","transposition":0,"order":["swapped","shifted"],"probe_pitches":[4,-1,2,4,9,6,9,6],"shifted_pitches":[4,-1,2,4,10,6,9,6],"swapped_pitches":[4,-1,2,9,4,6,9,6],"shift_direction":1,"question_num":191,"has_decoy":false}]