[{"rt":1907.3000000715256,"stimulus":"[A] option 1, [L] option 2, [G] neither","key_press":71,"name":"choice","trial_type":"html-keyboard-response","trial_index":10,"time_elapsed":20079,"internal_node_id":"0.0-10.0","subject":"S1C0827","sona":"41706","block":2,"time":"2021-09-17T19:26:03.815Z","response":"neither","certainty":"high","char":"G","transposition":3,"order":["shifted","swapped"],"probe_pitches":[1,4,8,1,6,11,4,11],"shifted_pitches":[1,4,8,1,7,11,4,11],"swapped_pitches":[1,4,8,6,1,11,4,11],"shift_direction":1,"question_num":1,"has_decoy":false},{"rt":7085.5,"stimulus":"[A] option 1, [L] option 2, [G] neither","key_press":76,"name":"choice","trial_type":"html-keyboard-response","trial_index":21,"time_elapsed":43833,"internal_node_id":"0.0-21.0","subject":"S1C0827","sona":"41706","block":2,"time":"2021-09-17T19:26:03.815Z","response":"2nd","certainty":"high","char":"L","transposition":-3,"order":["swapped","shifted"],"probe_pitches":[6,1,6,8,3,1,11,8],"shifted_pitches":[6,1,6,9,3,1,11,8],"swapped_pitches":[6,1,6,3,8,1,11,8],"shift_direction":1,"question_num":11,"has_decoy":false},{"rt":645.5,"stimulus":"[A] option 1, [L] option 2, [G] neither","key_press":65,"name":"choice","trial_type":"html-keyboard-response","trial_index":32,"time_elapsed":71814,"internal_node_id":"0.0-32.0","subject":"S1C0827","sona":"41706","block":2,"time":"2021-09-17T19:26:03.815Z","response":"1st","certainty":"high","char":"A","transposition":-1,"order":["shifted","swapped"],"probe_pitches":[5,0,4,9,6,5,7,4],"shifted_pitches":[5,0,4,10,6,5,7,4],"swapped_pitches":[5,0,4,6,9,5,7,4],"shift_direction":1,"question_num":21,"has_decoy":false},{"rt":2615.600000023842,"stimulus":"[A] option 1, [L] option 2, [G] neither","key_press":71,"name":"choice","trial_type":"html-keyboard-response","trial_index":43,"time_elapsed":92973,"internal_node_id":"0.0-43.0","subject":"S1C0827","sona":"41706","block":2,"time":"2021-09-17T19:26:03.815Z","response":"neither","certainty":"high","char":"G","transposition":-2,"order":["shifted","swapped"],"probe_pitches":[1,4,6,-1,4,9,4,-1],"shifted_pitches":[1,4,6,-1,5,9,4,-1],"swapped_pitches":[1,4,6,4,-1,9,4,-1],"shift_direction":1,"question_num":31,"has_decoy":false},{"rt":26336.700000047684,"stimulus":"[A] option 1, [L] option 2, [G] neither","key_press":71,"name":"choice","trial_type":"html-keyboard-response","trial_index":54,"time_elapsed":138811,"internal_node_id":"0.0-54.0","subject":"S1C0827","sona":"41706","block":2,"time":"2021-09-17T19:26:03.815Z","response":"neither","certainty":"high","char":"G","transposition":-2,"order":["swapped","shifted"],"probe_pitches":[-1,4,9,2,7,-1,7,9],"shifted_pitches":[-1,4,9,1,7,-1,7,9],"swapped_pitches":[-1,4,9,7,2,-1,7,9],"shift_direction":-1,"question_num":41,"has_decoy":false},{"rt":1753.6999999284744,"stimulus":"[A] option 1, [L] option 2, [G] neither","key_press":65,"name":"choice","trial_type":"html-keyboard-response","trial_index":65,"time_elapsed":175462,"internal_node_id":"0.0-65.0","subject":"S1C0827","sona":"41706","block":2,"time":"2021-09-17T19:26:03.815Z","response":"1st","certainty":"high","char":"A","transposition":-3,"order":["swapped","shifted"],"probe_pitches":[12,6,12,8,5,10,11,12],"shifted_pitches":[12,6,12,8,4,10,11,12],"swapped_pitches":[12,6,12,5,8,10,11,12],"shift_direction":-1,"question_num":51,"has_decoy":false},{"rt":272.7999999523163,"stimulus":"[A] option 1, [L] option 2, [G] neither","key_press":76,"name":"choice","trial_type":"html-keyboard-response","trial_index":76,"time_elapsed":203889,"internal_node_id":"0.0-76.0","subject":"S1C0827","sona":"41706","block":2,"time":"2021-09-17T19:26:03.815Z","response":"2nd","certainty":"high","char":"L","transposition":0,"order":["swapped","shifted"],"probe_pitches":[-1,4,6,9,4,2,11,-1],"shifted_pitches":[-1,4,6,9,3,2,11,-1],"swapped_pitches":[-1,4,6,4,9,2,11,-1],"shift_direction":-1,"question_num":61,"has_decoy":false},{"rt":791.1999999284744,"stimulus":"[A] option 1, [L] option 2, [G] neither","key_press":76,"name":"choice","trial_type":"html-keyboard-response","trial_index":87,"time_elapsed":219395,"internal_node_id":"0.0-87.0","subject":"S1C0827","sona":"41706","block":2,"time":"2021-09-17T19:26:03.815Z","response":"2nd","certainty":"high","char":"L","transposition":2,"order":["swapped","shifted"],"probe_pitches":[4,6,1,9,4,-1,6,11],"shifted_pitches":[4,6,1,10,4,-1,6,11],"swapped_pitches":[4,6,1,4,9,-1,6,11],"shift_direction":1,"question_num":71,"has_decoy":false},{"rt":4100.599999904633,"stimulus":"[A] option 1, [L] option 2, [G] neither","key_press":65,"name":"choice","trial_type":"html-keyboard-response","trial_index":98,"time_elapsed":237562,"internal_node_id":"0.0-98.0","subject":"S1C0827","sona":"41706","block":2,"time":"2021-09-17T19:26:03.815Z","response":"1st","certainty":"high","char":"A","transposition":1,"order":["swapped","shifted"],"probe_pitches":[11,9,2,4,-1,2,7,11],"shifted_pitches":[11,9,2,3,-1,2,7,11],"swapped_pitches":[11,9,2,-1,4,2,7,11],"shift_direction":-1,"question_num":81,"has_decoy":false},{"rt":367.5,"stimulus":"[A] option 1, [L] option 2, [G] neither","key_press":76,"name":"choice","trial_type":"html-keyboard-response","trial_index":109,"time_elapsed":253152,"internal_node_id":"0.0-109.0","subject":"S1C0827","sona":"41706","block":2,"time":"2021-09-17T19:26:03.815Z","response":"2nd","certainty":"high","char":"L","transposition":-2,"order":["shifted","swapped"],"probe_pitches":[11,8,10,4,11,10,8,10],"shifted_pitches":[11,8,10,3,11,10,8,10],"swapped_pitches":[11,8,10,11,4,10,8,10],"shift_direction":-1,"question_num":91,"has_decoy":false},{"rt":919.6999999284744,"stimulus":"[A] option 1, [L] option 2, [G] neither","key_press":65,"name":"choice","trial_type":"html-keyboard-response","trial_index":120,"time_elapsed":279182,"internal_node_id":"0.0-120.0","subject":"S1C0827","sona":"41706","block":2,"time":"2021-09-17T19:26:03.815Z","response":"1st","certainty":"high","char":"A","transposition":1,"order":["shifted","swapped"],"probe_pitches":[0,1,5,6,2,5,1,3],"shifted_pitches":[0,1,5,7,2,5,1,3],"swapped_pitches":[0,1,5,2,6,5,1,3],"shift_direction":1,"question_num":101,"has_decoy":false},{"rt":1019.3999999761581,"stimulus":"[A] option 1, [L] option 2, [G] neither","key_press":71,"name":"choice","trial_type":"html-keyboard-response","trial_index":131,"time_elapsed":295393,"internal_node_id":"0.0-131.0","subject":"S1C0827","sona":"41706","block":2,"time":"2021-09-17T19:26:03.815Z","response":"neither","certainty":"high","char":"G","transposition":-1,"order":["shifted","swapped"],"probe_pitches":[-1,2,4,9,2,6,2,6],"shifted_pitches":[-1,2,4,9,1,6,2,6],"swapped_pitches":[-1,2,4,2,9,6,2,6],"shift_direction":-1,"question_num":111,"has_decoy":false},{"rt":1045.3000000715256,"stimulus":"[A] option 1, [L] option 2, [G] neither","key_press":76,"name":"choice","trial_type":"html-keyboard-response","trial_index":142,"time_elapsed":311616,"internal_node_id":"0.0-142.0","subject":"S1C0827","sona":"41706","block":2,"time":"2021-09-17T19:26:03.815Z","response":"2nd","certainty":"high","char":"L","transposition":2,"order":["shifted","swapped"],"probe_pitches":[9,3,8,12,10,9,4,5],"shifted_pitches":[9,3,8,12,11,9,4,5],"swapped_pitches":[9,3,8,10,12,9,4,5],"shift_direction":1,"question_num":121,"has_decoy":false},{"rt":341.10000002384186,"stimulus":"[A] option 1, [L] option 2, [G] neither","key_press":65,"name":"choice","trial_type":"html-keyboard-response","trial_index":153,"time_elapsed":327739,"internal_node_id":"0.0-153.0","subject":"S1C0827","sona":"41706","block":2,"time":"2021-09-17T19:26:03.815Z","response":"1st","certainty":"high","char":"A","transposition":3,"order":["swapped","shifted"],"probe_pitches":[9,12,7,11,9,2,6,11],"shifted_pitches":[9,12,7,11,8,2,6,11],"swapped_pitches":[9,12,7,9,11,2,6,11],"shift_direction":-1,"question_num":131,"has_decoy":false},{"rt":1416.6999999284744,"stimulus":"[A] option 1, [L] option 2, [G] neither","key_press":65,"name":"choice","trial_type":"html-keyboard-response","trial_index":164,"time_elapsed":349556,"internal_node_id":"0.0-164.0","subject":"S1C0827","sona":"41706","block":2,"time":"2021-09-17T19:26:03.815Z","response":"1st","certainty":"high","char":"A","transposition":-1,"order":["shifted","swapped"],"probe_pitches":[1,4,8,6,4,11,6,-1],"shifted_pitches":[1,4,8,7,4,11,6,-1],"swapped_pitches":[1,4,8,4,6,11,6,-1],"shift_direction":1,"question_num":141,"has_decoy":false},{"rt":3364.100000023842,"stimulus":"[A] option 1, [L] option 2, [G] neither","key_press":71,"name":"choice","trial_type":"html-keyboard-response","trial_index":175,"time_elapsed":374773,"internal_node_id":"0.0-175.0","subject":"S1C0827","sona":"41706","block":2,"time":"2021-09-17T19:26:03.815Z","response":"neither","certainty":"high","char":"G","transposition":0,"order":["swapped","shifted"],"probe_pitches":[0,2,4,7,1,4,7,2],"shifted_pitches":[0,2,4,6,1,4,7,2],"swapped_pitches":[0,2,4,1,7,4,7,2],"shift_direction":-1,"question_num":151,"has_decoy":false},{"rt":2266.5,"stimulus":"[A] option 1, [L] option 2, [G] neither","key_press":71,"name":"choice","trial_type":"html-keyboard-response","trial_index":186,"time_elapsed":394902,"internal_node_id":"0.0-186.0","subject":"S1C0827","sona":"41706","block":2,"time":"2021-09-17T19:26:03.815Z","response":"neither","certainty":"high","char":"G","transposition":-1,"order":["swapped","shifted"],"probe_pitches":[4,9,11,6,4,12,3,11],"shifted_pitches":[4,9,11,6,5,12,3,11],"swapped_pitches":[4,9,11,4,6,12,3,11],"shift_direction":1,"question_num":161,"has_decoy":false},{"rt":404.2000000476837,"stimulus":"[A] option 1, [L] option 2, [G] neither","key_press":65,"name":"choice","trial_type":"html-keyboard-response","trial_index":197,"time_elapsed":424896,"internal_node_id":"0.0-197.0","subject":"S1C0827","sona":"41706","block":2,"time":"2021-09-17T19:26:03.815Z","response":"1st","certainty":"high","char":"A","transposition":-3,"order":["shifted","swapped"],"probe_pitches":[1,3,-1,1,8,6,8,11],"shifted_pitches":[1,3,-1,1,7,6,8,11],"swapped_pitches":[1,3,-1,8,1,6,8,11],"shift_direction":-1,"question_num":171,"has_decoy":false},{"rt":335.5,"stimulus":"[A] option 1, [L] option 2, [G] neither","key_press":76,"name":"choice","trial_type":"html-keyboard-response","trial_index":208,"time_elapsed":441035,"internal_node_id":"0.0-208.0","subject":"S1C0827","sona":"41706","block":2,"time":"2021-09-17T19:26:03.815Z","response":"2nd","certainty":"high","char":"L","transposition":-3,"order":["swapped","shifted"],"probe_pitches":[4,3,4,2,10,5,1,7],"shifted_pitches":[4,3,4,2,9,5,1,7],"swapped_pitches":[4,3,4,10,2,5,1,7],"shift_direction":-1,"question_num":181,"has_decoy":false},{"rt":2319.3000000715256,"stimulus":"[A] option 1, [L] option 2, [G] neither","key_press":65,"name":"choice","trial_type":"html-keyboard-response","trial_index":219,"time_elapsed":459552,"internal_node_id":"0.0-219.0","subject":"S1C0827","sona":"41706","block":2,"time":"2021-09-17T19:26:03.815Z","response":"1st","certainty":"high","char":"A","transposition":-2,"order":["shifted","swapped"],"probe_pitches":[5,11,6,1,10,5,12,11],"shifted_pitches":[5,11,6,2,10,5,12,11],"swapped_pitches":[5,11,6,10,1,5,12,11],"shift_direction":1,"question_num":191,"has_decoy":false}]