[{"rt":1761.5,"stimulus":"[A] option 1, [L] option 2, [G] neither","key_press":65,"name":"choice","trial_type":"html-keyboard-response","trial_index":10,"time_elapsed":25286,"internal_node_id":"0.0-10.0","subject":"S1C1628","sona":"41522","block":4,"time":"2021-09-17T21:09:16.553Z","response":"1st","certainty":"high","char":"A","transposition":-3,"order":["shifted","swapped"],"probe_pitches":[9,4,11,9,2,9,4,7,11,4,2,9,11,4,2,4],"shifted_pitches":[9,4,11,9,2,9,4,6,11,4,2,9,11,4,2,4],"swapped_pitches":[9,4,11,9,2,9,4,11,7,4,2,9,11,4,2,4],"shift_direction":-1,"question_num":1,"has_decoy":false},{"rt":1422.3999999761581,"stimulus":"[A] option 1, [L] option 2, [G] neither","key_press":65,"name":"choice","trial_type":"html-keyboard-response","trial_index":21,"time_elapsed":61787,"internal_node_id":"0.0-21.0","subject":"S1C1628","sona":"41522","block":4,"time":"2021-09-17T21:09:16.553Z","response":"1st","certainty":"high","char":"A","transposition":-1,"order":["shifted","swapped"],"probe_pitches":[12,10,8,4,3,1,8,10,0,5,3,8,0,4,8,6],"shifted_pitches":[12,10,8,4,3,1,8,10,-1,5,3,8,0,4,8,6],"swapped_pitches":[12,10,8,4,3,1,8,0,10,5,3,8,0,4,8,6],"shift_direction":-1,"question_num":11,"has_decoy":false},{"rt":463,"stimulus":"[A] option 1, [L] option 2, [G] neither","key_press":76,"name":"choice","trial_type":"html-keyboard-response","trial_index":32,"time_elapsed":88404,"internal_node_id":"0.0-32.0","subject":"S1C1628","sona":"41522","block":4,"time":"2021-09-17T21:09:16.553Z","response":"2nd","certainty":"high","char":"L","transposition":-2,"order":["swapped","shifted"],"probe_pitches":[7,8,10,2,7,12,1,7,5,1,10,0,4,7,4,0],"shifted_pitches":[7,8,10,2,7,12,1,7,6,1,10,0,4,7,4,0],"swapped_pitches":[7,8,10,2,7,12,1,5,7,1,10,0,4,7,4,0],"shift_direction":1,"question_num":21,"has_decoy":false},{"rt":1798.5,"stimulus":"[A] option 1, [L] option 2, [G] neither","key_press":71,"name":"choice","trial_type":"html-keyboard-response","trial_index":43,"time_elapsed":113610,"internal_node_id":"0.0-43.0","subject":"S1C1628","sona":"41522","block":4,"time":"2021-09-17T21:09:16.553Z","response":"neither","certainty":"high","char":"G","transposition":-3,"order":["swapped","shifted"],"probe_pitches":[-1,2,7,11,2,-1,2,-1,7,9,2,7,2,9,4,11],"shifted_pitches":[-1,2,7,11,2,-1,2,-1,6,9,2,7,2,9,4,11],"swapped_pitches":[-1,2,7,11,2,-1,2,7,-1,9,2,7,2,9,4,11],"shift_direction":-1,"question_num":31,"has_decoy":false},{"rt":1448.3000000715256,"stimulus":"[A] option 1, [L] option 2, [G] neither","key_press":76,"name":"choice","trial_type":"html-keyboard-response","trial_index":54,"time_elapsed":137290,"internal_node_id":"0.0-54.0","subject":"S1C1628","sona":"41522","block":4,"time":"2021-09-17T21:09:16.553Z","response":"2nd","certainty":"high","char":"L","transposition":-3,"order":["shifted","swapped"],"probe_pitches":[0,3,2,6,9,7,3,6,7,0,7,5,1,10,0,6],"shifted_pitches":[0,3,2,6,9,7,3,6,8,0,7,5,1,10,0,6],"swapped_pitches":[0,3,2,6,9,7,3,7,6,0,7,5,1,10,0,6],"shift_direction":1,"question_num":41,"has_decoy":false},{"rt":2326.2999999523163,"stimulus":"[A] option 1, [L] option 2, [G] neither","key_press":71,"name":"choice","trial_type":"html-keyboard-response","trial_index":65,"time_elapsed":162582,"internal_node_id":"0.0-65.0","subject":"S1C1628","sona":"41522","block":4,"time":"2021-09-17T21:09:16.553Z","response":"neither","certainty":"high","char":"G","transposition":2,"order":["swapped","shifted"],"probe_pitches":[1,-1,3,11,3,8,1,3,11,1,-1,8,3,8,11,6],"shifted_pitches":[1,-1,3,11,3,8,1,4,11,1,-1,8,3,8,11,6],"swapped_pitches":[1,-1,3,11,3,8,1,11,3,1,-1,8,3,8,11,6],"shift_direction":1,"question_num":51,"has_decoy":false},{"rt":1054.9000000953674,"stimulus":"[A] option 1, [L] option 2, [G] neither","key_press":76,"name":"choice","trial_type":"html-keyboard-response","trial_index":76,"time_elapsed":186136,"internal_node_id":"0.0-76.0","subject":"S1C1628","sona":"41522","block":4,"time":"2021-09-17T21:09:16.553Z","response":"2nd","certainty":"high","char":"L","transposition":1,"order":["shifted","swapped"],"probe_pitches":[1,-1,6,4,11,9,6,11,1,6,4,-1,9,4,9,6],"shifted_pitches":[1,-1,6,4,11,9,6,11,2,6,4,-1,9,4,9,6],"swapped_pitches":[1,-1,6,4,11,9,6,1,11,6,4,-1,9,4,9,6],"shift_direction":1,"question_num":61,"has_decoy":false},{"rt":4150.700000047684,"stimulus":"[A] option 1, [L] option 2, [G] neither","key_press":65,"name":"choice","trial_type":"html-keyboard-response","trial_index":87,"time_elapsed":212563,"internal_node_id":"0.0-87.0","subject":"S1C1628","sona":"41522","block":4,"time":"2021-09-17T21:09:16.553Z","response":"1st","certainty":"high","char":"A","transposition":1,"order":["shifted","swapped"],"probe_pitches":[6,0,7,0,5,1,3,11,12,6,3,12,2,11,12,8],"shifted_pitches":[6,0,7,0,5,1,3,10,12,6,3,12,2,11,12,8],"swapped_pitches":[6,0,7,0,5,1,3,12,11,6,3,12,2,11,12,8],"shift_direction":-1,"question_num":71,"has_decoy":false},{"rt":5009,"stimulus":"[A] option 1, [L] option 2, [G] neither","key_press":71,"name":"choice","trial_type":"html-keyboard-response","trial_index":98,"time_elapsed":242048,"internal_node_id":"0.0-98.0","subject":"S1C1628","sona":"41522","block":4,"time":"2021-09-17T21:09:16.553Z","response":"neither","certainty":"high","char":"G","transposition":-1,"order":["swapped","shifted"],"probe_pitches":[-1,4,1,6,4,-1,1,-1,4,1,6,4,8,1,11,8],"shifted_pitches":[-1,4,1,6,4,-1,1,-2,4,1,6,4,8,1,11,8],"swapped_pitches":[-1,4,1,6,4,-1,1,4,-1,1,6,4,8,1,11,8],"shift_direction":-1,"question_num":81,"has_decoy":false},{"rt":482.1999999284744,"stimulus":"[A] option 1, [L] option 2, [G] neither","key_press":65,"name":"choice","trial_type":"html-keyboard-response","trial_index":109,"time_elapsed":264880,"internal_node_id":"0.0-109.0","subject":"S1C1628","sona":"41522","block":4,"time":"2021-09-17T21:09:16.553Z","response":"1st","certainty":"high","char":"A","transposition":-2,"order":["shifted","swapped"],"probe_pitches":[1,3,8,11,3,8,3,1,11,6,8,6,8,-1,3,11],"shifted_pitches":[1,3,8,11,3,8,3,1,10,6,8,6,8,-1,3,11],"swapped_pitches":[1,3,8,11,3,8,3,11,1,6,8,6,8,-1,3,11],"shift_direction":-1,"question_num":91,"has_decoy":false},{"rt":11690,"stimulus":"[A] option 1, [L] option 2, [G] neither","key_press":71,"name":"choice","trial_type":"html-keyboard-response","trial_index":120,"time_elapsed":298934,"internal_node_id":"0.0-120.0","subject":"S1C1628","sona":"41522","block":4,"time":"2021-09-17T21:09:16.553Z","response":"neither","certainty":"high","char":"G","transposition":0,"order":["shifted","swapped"],"probe_pitches":[2,5,6,12,5,3,10,5,3,0,9,8,1,0,9,3],"shifted_pitches":[2,5,6,12,5,3,10,4,3,0,9,8,1,0,9,3],"swapped_pitches":[2,5,6,12,5,3,10,3,5,0,9,8,1,0,9,3],"shift_direction":-1,"question_num":101,"has_decoy":false},{"rt":2147.5,"stimulus":"[A] option 1, [L] option 2, [G] neither","key_press":76,"name":"choice","trial_type":"html-keyboard-response","trial_index":131,"time_elapsed":323565,"internal_node_id":"0.0-131.0","subject":"S1C1628","sona":"41522","block":4,"time":"2021-09-17T21:09:16.553Z","response":"2nd","certainty":"high","char":"L","transposition":-1,"order":["swapped","shifted"],"probe_pitches":[8,6,11,3,0,4,3,4,2,7,12,4,10,1,9,1],"shifted_pitches":[8,6,11,3,0,4,3,5,2,7,12,4,10,1,9,1],"swapped_pitches":[8,6,11,3,0,4,3,2,4,7,12,4,10,1,9,1],"shift_direction":1,"question_num":111,"has_decoy":false},{"rt":1323.5999999046326,"stimulus":"[A] option 1, [L] option 2, [G] neither","key_press":71,"name":"choice","trial_type":"html-keyboard-response","trial_index":142,"time_elapsed":347219,"internal_node_id":"0.0-142.0","subject":"S1C1628","sona":"41522","block":4,"time":"2021-09-17T21:09:16.553Z","response":"neither","certainty":"high","char":"G","transposition":3,"order":["shifted","swapped"],"probe_pitches":[1,6,11,4,1,-1,8,1,-1,6,-1,4,11,-1,4,6],"shifted_pitches":[1,6,11,4,1,-1,8,1,0,6,-1,4,11,-1,4,6],"swapped_pitches":[1,6,11,4,1,-1,8,-1,1,6,-1,4,11,-1,4,6],"shift_direction":1,"question_num":121,"has_decoy":false},{"rt":2772.5,"stimulus":"[A] option 1, [L] option 2, [G] neither","key_press":65,"name":"choice","trial_type":"html-keyboard-response","trial_index":153,"time_elapsed":372773,"internal_node_id":"0.0-153.0","subject":"S1C1628","sona":"41522","block":4,"time":"2021-09-17T21:09:16.553Z","response":"1st","certainty":"high","char":"A","transposition":-1,"order":["swapped","shifted"],"probe_pitches":[-1,4,1,-1,6,11,9,-1,6,1,-1,1,11,4,9,4],"shifted_pitches":[-1,4,1,-1,6,11,9,0,6,1,-1,1,11,4,9,4],"swapped_pitches":[-1,4,1,-1,6,11,9,6,-1,1,-1,1,11,4,9,4],"shift_direction":1,"question_num":131,"has_decoy":false},{"rt":1432.7999999523163,"stimulus":"[A] option 1, [L] option 2, [G] neither","key_press":76,"name":"choice","trial_type":"html-keyboard-response","trial_index":164,"time_elapsed":396520,"internal_node_id":"0.0-164.0","subject":"S1C1628","sona":"41522","block":4,"time":"2021-09-17T21:09:16.553Z","response":"2nd","certainty":"high","char":"L","transposition":-2,"order":["shifted","swapped"],"probe_pitches":[4,6,8,9,12,4,9,3,11,1,11,5,1,4,11,6],"shifted_pitches":[4,6,8,9,12,4,9,2,11,1,11,5,1,4,11,6],"swapped_pitches":[4,6,8,9,12,4,9,11,3,1,11,5,1,4,11,6],"shift_direction":-1,"question_num":141,"has_decoy":false},{"rt":2440.2999999523163,"stimulus":"[A] option 1, [L] option 2, [G] neither","key_press":65,"name":"choice","trial_type":"html-keyboard-response","trial_index":175,"time_elapsed":421259,"internal_node_id":"0.0-175.0","subject":"S1C1628","sona":"41522","block":4,"time":"2021-09-17T21:09:16.553Z","response":"1st","certainty":"high","char":"A","transposition":0,"order":["swapped","shifted"],"probe_pitches":[6,4,-1,6,-1,4,2,4,9,-1,11,2,-1,9,6,4],"shifted_pitches":[6,4,-1,6,-1,4,2,5,9,-1,11,2,-1,9,6,4],"swapped_pitches":[6,4,-1,6,-1,4,2,9,4,-1,11,2,-1,9,6,4],"shift_direction":1,"question_num":151,"has_decoy":false},{"rt":1646,"stimulus":"[A] option 1, [L] option 2, [G] neither","key_press":76,"name":"choice","trial_type":"html-keyboard-response","trial_index":186,"time_elapsed":449870,"internal_node_id":"0.0-186.0","subject":"S1C1628","sona":"41522","block":4,"time":"2021-09-17T21:09:16.553Z","response":"2nd","certainty":"high","char":"L","transposition":2,"order":["swapped","shifted"],"probe_pitches":[0,3,9,5,12,3,6,5,8,2,6,11,4,3,1,11],"shifted_pitches":[0,3,9,5,12,3,6,5,7,2,6,11,4,3,1,11],"swapped_pitches":[0,3,9,5,12,3,6,8,5,2,6,11,4,3,1,11],"shift_direction":-1,"question_num":161,"has_decoy":false},{"rt":2222.399999976158,"stimulus":"[A] option 1, [L] option 2, [G] neither","key_press":71,"name":"choice","trial_type":"html-keyboard-response","trial_index":197,"time_elapsed":474232,"internal_node_id":"0.0-197.0","subject":"S1C1628","sona":"41522","block":4,"time":"2021-09-17T21:09:16.553Z","response":"neither","certainty":"high","char":"G","transposition":-3,"order":["swapped","shifted"],"probe_pitches":[4,8,4,8,10,7,6,1,8,7,11,12,11,10,3,11],"shifted_pitches":[4,8,4,8,10,7,6,1,9,7,11,12,11,10,3,11],"swapped_pitches":[4,8,4,8,10,7,6,8,1,7,11,12,11,10,3,11],"shift_direction":1,"question_num":171,"has_decoy":false},{"rt":1472.3999999761581,"stimulus":"[A] option 1, [L] option 2, [G] neither","key_press":76,"name":"choice","trial_type":"html-keyboard-response","trial_index":208,"time_elapsed":499757,"internal_node_id":"0.0-208.0","subject":"S1C1628","sona":"41522","block":4,"time":"2021-09-17T21:09:16.553Z","response":"2nd","certainty":"high","char":"L","transposition":-2,"order":["shifted","swapped"],"probe_pitches":[-1,4,2,9,2,4,2,9,11,2,4,2,11,6,2,6],"shifted_pitches":[-1,4,2,9,2,4,2,9,10,2,4,2,11,6,2,6],"swapped_pitches":[-1,4,2,9,2,4,2,11,9,2,4,2,11,6,2,6],"shift_direction":-1,"question_num":181,"has_decoy":false},{"rt":1803,"stimulus":"[A] option 1, [L] option 2, [G] neither","key_press":71,"name":"choice","trial_type":"html-keyboard-response","trial_index":219,"time_elapsed":524769,"internal_node_id":"0.0-219.0","subject":"S1C1628","sona":"41522","block":4,"time":"2021-09-17T21:09:16.553Z","response":"neither","certainty":"high","char":"G","transposition":3,"order":["swapped","shifted"],"probe_pitches":[5,1,5,2,0,7,8,2,6,9,11,2,11,9,12,10],"shifted_pitches":[5,1,5,2,0,7,8,3,6,9,11,2,11,9,12,10],"swapped_pitches":[5,1,5,2,0,7,8,6,2,9,11,2,11,9,12,10],"shift_direction":1,"question_num":191,"has_decoy":false}]