[{"rt":7404.399999976158,"stimulus":"[A] option 1, [L] option 2, [G] neither","key_press":65,"name":"choice","trial_type":"html-keyboard-response","trial_index":15,"time_elapsed":106361,"internal_node_id":"0.0-15.0","response":"1st","certainty":"high","char":"A","transposition":2,"order":["shifted","swapped"],"probe_pitches":[10,12,7,10,14,7,5,2,10,12,7,12,5,12,7,2],"shifted_pitches":[10,12,7,10,14,7,5,2,11,12,7,12,5,12,7,2],"swapped_pitches":[10,12,7,10,14,7,5,10,2,12,7,12,5,12,7,2],"shift_direction":1,"question_num":1,"has_decoy":false,"subject":"S1C1628","sona":"41522","block":1,"time":"2021-09-17T20:06:29.402Z"},{"rt":3037.4000000953674,"stimulus":"[A] option 1, [L] option 2, [G] neither","key_press":65,"name":"choice","trial_type":"html-keyboard-response","trial_index":26,"time_elapsed":134462,"internal_node_id":"0.0-26.0","response":"1st","certainty":"high","char":"A","transposition":-2,"order":["shifted","swapped"],"probe_pitches":[6,2,9,4,11,14,4,9,6,14,2,9,14,9,14,4],"shifted_pitches":[6,2,9,4,11,14,4,10,6,14,2,9,14,9,14,4],"swapped_pitches":[6,2,9,4,11,14,4,6,9,14,2,9,14,9,14,4],"shift_direction":1,"question_num":11,"has_decoy":false,"subject":"S1C1628","sona":"41522","block":1,"time":"2021-09-17T20:06:29.402Z"},{"rt":1131.2999999523163,"stimulus":"[A] option 1, [L] option 2, [G] neither","key_press":76,"name":"choice","trial_type":"html-keyboard-response","trial_index":37,"time_elapsed":159182,"internal_node_id":"0.0-37.0","response":"2nd","certainty":"high","char":"L","transposition":3,"order":["swapped","shifted"],"probe_pitches":[6,5,-1,3,5,-1,7,2,3,6,7,3,0,1,-2,3],"shifted_pitches":[6,5,-1,3,5,-1,7,2,4,6,7,3,0,1,-2,3],"swapped_pitches":[6,5,-1,3,5,-1,7,3,2,6,7,3,0,1,-2,3],"shift_direction":1,"question_num":21,"has_decoy":false,"subject":"S1C1628","sona":"41522","block":1,"time":"2021-09-17T20:06:29.402Z"},{"rt":2131.5,"stimulus":"[A] option 1, [L] option 2, [G] neither","key_press":76,"name":"choice","trial_type":"html-keyboard-response","trial_index":48,"time_elapsed":185078,"internal_node_id":"0.0-48.0","response":"2nd","certainty":"high","char":"L","transposition":-1,"order":["shifted","swapped"],"probe_pitches":[7,1,-2,5,1,-2,9,-3,5,3,1,-1,9,0,-2,1],"shifted_pitches":[7,1,-2,5,1,-2,9,-4,5,3,1,-1,9,0,-2,1],"swapped_pitches":[7,1,-2,5,1,-2,9,5,-3,3,1,-1,9,0,-2,1],"shift_direction":-1,"question_num":31,"has_decoy":false,"subject":"S1C1628","sona":"41522","block":1,"time":"2021-09-17T20:06:29.402Z"},{"rt":1247.3000000715256,"stimulus":"[A] option 1, [L] option 2, [G] neither","key_press":76,"name":"choice","trial_type":"html-keyboard-response","trial_index":59,"time_elapsed":210427,"internal_node_id":"0.0-59.0","response":"2nd","certainty":"high","char":"L","transposition":-3,"order":["swapped","shifted"],"probe_pitches":[4,7,4,7,12,14,12,4,14,7,14,9,7,4,12,4],"shifted_pitches":[4,7,4,7,12,14,12,5,14,7,14,9,7,4,12,4],"swapped_pitches":[4,7,4,7,12,14,12,14,4,7,14,9,7,4,12,4],"shift_direction":1,"question_num":41,"has_decoy":false,"subject":"S1C1628","sona":"41522","block":1,"time":"2021-09-17T20:06:29.402Z"},{"rt":1528.9000000953674,"stimulus":"[A] option 1, [L] option 2, [G] neither","key_press":65,"name":"choice","trial_type":"html-keyboard-response","trial_index":70,"time_elapsed":236240,"internal_node_id":"0.0-70.0","response":"1st","certainty":"high","char":"A","transposition":3,"order":["shifted","swapped"],"probe_pitches":[11,14,7,9,4,2,11,7,4,11,7,14,4,11,9,14],"shifted_pitches":[11,14,7,9,4,2,11,6,4,11,7,14,4,11,9,14],"swapped_pitches":[11,14,7,9,4,2,11,4,7,11,7,14,4,11,9,14],"shift_direction":-1,"question_num":51,"has_decoy":false,"subject":"S1C1628","sona":"41522","block":1,"time":"2021-09-17T20:06:29.402Z"},{"rt":2579.2999999523163,"stimulus":"[A] option 1, [L] option 2, [G] neither","key_press":76,"name":"choice","trial_type":"html-keyboard-response","trial_index":81,"time_elapsed":261841,"internal_node_id":"0.0-81.0","response":"2nd","certainty":"high","char":"L","transposition":-2,"order":["swapped","shifted"],"probe_pitches":[14,12,10,5,14,10,2,10,14,7,10,12,10,7,5,10],"shifted_pitches":[14,12,10,5,14,10,2,10,13,7,10,12,10,7,5,10],"swapped_pitches":[14,12,10,5,14,10,2,14,10,7,10,12,10,7,5,10],"shift_direction":-1,"question_num":61,"has_decoy":false,"subject":"S1C1628","sona":"41522","block":1,"time":"2021-09-17T20:06:29.402Z"},{"rt":1756.1000000238419,"stimulus":"[A] option 1, [L] option 2, [G] neither","key_press":65,"name":"choice","trial_type":"html-keyboard-response","trial_index":92,"time_elapsed":286590,"internal_node_id":"0.0-92.0","response":"1st","certainty":"high","char":"A","transposition":-1,"order":["swapped","shifted"],"probe_pitches":[14,12,14,9,5,2,9,2,5,12,7,14,9,14,9,2],"shifted_pitches":[14,12,14,9,5,2,9,2,6,12,7,14,9,14,9,2],"swapped_pitches":[14,12,14,9,5,2,9,5,2,12,7,14,9,14,9,2],"shift_direction":1,"question_num":71,"has_decoy":false,"subject":"S1C1628","sona":"41522","block":1,"time":"2021-09-17T20:06:29.402Z"},{"rt":1068.8999999761581,"stimulus":"[A] option 1, [L] option 2, [G] neither","key_press":76,"name":"choice","trial_type":"html-keyboard-response","trial_index":103,"time_elapsed":311249,"internal_node_id":"0.0-103.0","response":"2nd","certainty":"high","char":"L","transposition":-1,"order":["shifted","swapped"],"probe_pitches":[-1,2,6,5,-3,2,1,5,-1,8,-2,1,-2,4,8,2],"shifted_pitches":[-1,2,6,5,-3,2,1,5,0,8,-2,1,-2,4,8,2],"swapped_pitches":[-1,2,6,5,-3,2,1,-1,5,8,-2,1,-2,4,8,2],"shift_direction":1,"question_num":81,"has_decoy":false,"subject":"S1C1628","sona":"41522","block":1,"time":"2021-09-17T20:06:29.402Z"},{"rt":5042.600000023842,"stimulus":"[A] option 1, [L] option 2, [G] neither","key_press":71,"name":"choice","trial_type":"html-keyboard-response","trial_index":114,"time_elapsed":339468,"internal_node_id":"0.0-114.0","response":"neither","certainty":"high","char":"G","transposition":-1,"order":["swapped","shifted"],"probe_pitches":[9,12,9,14,12,4,7,2,9,4,14,9,2,7,12,4],"shifted_pitches":[9,12,9,14,12,4,7,2,8,4,14,9,2,7,12,4],"swapped_pitches":[9,12,9,14,12,4,7,9,2,4,14,9,2,7,12,4],"shift_direction":-1,"question_num":91,"has_decoy":false,"subject":"S1C1628","sona":"41522","block":1,"time":"2021-09-17T20:06:29.402Z"},{"rt":1413.5,"stimulus":"[A] option 1, [L] option 2, [G] neither","key_press":76,"name":"choice","trial_type":"html-keyboard-response","trial_index":125,"time_elapsed":364456,"internal_node_id":"0.0-125.0","response":"2nd","certainty":"high","char":"L","transposition":-3,"order":["swapped","shifted"],"probe_pitches":[7,3,1,9,7,9,8,1,9,4,-3,-1,9,1,-2,0],"shifted_pitches":[7,3,1,9,7,9,8,2,9,4,-3,-1,9,1,-2,0],"swapped_pitches":[7,3,1,9,7,9,8,9,1,4,-3,-1,9,1,-2,0],"shift_direction":1,"question_num":101,"has_decoy":false,"subject":"S1C1628","sona":"41522","block":1,"time":"2021-09-17T20:06:29.402Z"},{"rt":4162.600000023842,"stimulus":"[A] option 1, [L] option 2, [G] neither","key_press":71,"name":"choice","trial_type":"html-keyboard-response","trial_index":136,"time_elapsed":392787,"internal_node_id":"0.0-136.0","response":"neither","certainty":"high","char":"G","transposition":1,"order":["shifted","swapped"],"probe_pitches":[14,11,7,4,2,4,2,14,4,9,4,2,11,9,2,9],"shifted_pitches":[14,11,7,4,2,4,2,15,4,9,4,2,11,9,2,9],"swapped_pitches":[14,11,7,4,2,4,2,4,14,9,4,2,11,9,2,9],"shift_direction":1,"question_num":111,"has_decoy":false,"subject":"S1C1628","sona":"41522","block":1,"time":"2021-09-17T20:06:29.402Z"},{"rt":828.3000000715256,"stimulus":"[A] option 1, [L] option 2, [G] neither","key_press":65,"name":"choice","trial_type":"html-keyboard-response","trial_index":147,"time_elapsed":418827,"internal_node_id":"0.0-147.0","response":"1st","certainty":"high","char":"A","transposition":-2,"order":["shifted","swapped"],"probe_pitches":[3,0,5,8,0,-2,4,3,0,6,5,7,9,2,-1,9],"shifted_pitches":[3,0,5,8,0,-2,4,3,1,6,5,7,9,2,-1,9],"swapped_pitches":[3,0,5,8,0,-2,4,0,3,6,5,7,9,2,-1,9],"shift_direction":1,"question_num":121,"has_decoy":false,"subject":"S1C1628","sona":"41522","block":1,"time":"2021-09-17T20:06:29.402Z"},{"rt":1962.1999999284744,"stimulus":"[A] option 1, [L] option 2, [G] neither","key_press":65,"name":"choice","trial_type":"html-keyboard-response","trial_index":158,"time_elapsed":444805,"internal_node_id":"0.0-158.0","response":"1st","certainty":"high","char":"A","transposition":-2,"order":["swapped","shifted"],"probe_pitches":[1,0,3,5,-3,4,1,7,-3,4,-1,1,0,8,9,1],"shifted_pitches":[1,0,3,5,-3,4,1,6,-3,4,-1,1,0,8,9,1],"swapped_pitches":[1,0,3,5,-3,4,1,-3,7,4,-1,1,0,8,9,1],"shift_direction":-1,"question_num":131,"has_decoy":false,"subject":"S1C1628","sona":"41522","block":1,"time":"2021-09-17T20:06:29.402Z"},{"rt":1268,"stimulus":"[A] option 1, [L] option 2, [G] neither","key_press":65,"name":"choice","trial_type":"html-keyboard-response","trial_index":169,"time_elapsed":470783,"internal_node_id":"0.0-169.0","response":"1st","certainty":"high","char":"A","transposition":0,"order":["swapped","shifted"],"probe_pitches":[12,14,7,12,5,12,14,12,5,2,9,14,2,12,2,5],"shifted_pitches":[12,14,7,12,5,12,14,12,4,2,9,14,2,12,2,5],"swapped_pitches":[12,14,7,12,5,12,14,5,12,2,9,14,2,12,2,5],"shift_direction":-1,"question_num":141,"has_decoy":false,"subject":"S1C1628","sona":"41522","block":1,"time":"2021-09-17T20:06:29.402Z"},{"rt":1614.5,"stimulus":"[A] option 1, [L] option 2, [G] neither","key_press":65,"name":"choice","trial_type":"html-keyboard-response","trial_index":180,"time_elapsed":495720,"internal_node_id":"0.0-180.0","response":"1st","certainty":"high","char":"A","transposition":1,"order":["swapped","shifted"],"probe_pitches":[8,9,3,4,8,4,2,3,0,7,0,2,7,5,0,-2],"shifted_pitches":[8,9,3,4,8,4,2,3,-1,7,0,2,7,5,0,-2],"swapped_pitches":[8,9,3,4,8,4,2,0,3,7,0,2,7,5,0,-2],"shift_direction":-1,"question_num":151,"has_decoy":false,"subject":"S1C1628","sona":"41522","block":1,"time":"2021-09-17T20:06:29.402Z"},{"rt":1760.2000000476837,"stimulus":"[A] option 1, [L] option 2, [G] neither","key_press":76,"name":"choice","trial_type":"html-keyboard-response","trial_index":191,"time_elapsed":520991,"internal_node_id":"0.0-191.0","response":"2nd","certainty":"high","char":"L","transposition":0,"order":["shifted","swapped"],"probe_pitches":[1,-1,1,6,8,-2,-3,4,6,-3,-2,5,-3,5,8,-3],"shifted_pitches":[1,-1,1,6,8,-2,-3,4,7,-3,-2,5,-3,5,8,-3],"swapped_pitches":[1,-1,1,6,8,-2,-3,6,4,-3,-2,5,-3,5,8,-3],"shift_direction":1,"question_num":161,"has_decoy":false,"subject":"S1C1628","sona":"41522","block":1,"time":"2021-09-17T20:06:29.402Z"},{"rt":2687,"stimulus":"[A] option 1, [L] option 2, [G] neither","key_press":65,"name":"choice","trial_type":"html-keyboard-response","trial_index":202,"time_elapsed":548092,"internal_node_id":"0.0-202.0","response":"1st","certainty":"high","char":"A","transposition":-3,"order":["shifted","swapped"],"probe_pitches":[4,9,2,9,11,14,11,6,2,9,11,9,14,11,14,9],"shifted_pitches":[4,9,2,9,11,14,11,5,2,9,11,9,14,11,14,9],"swapped_pitches":[4,9,2,9,11,14,11,2,6,9,11,9,14,11,14,9],"shift_direction":-1,"question_num":171,"has_decoy":false,"subject":"S1C1628","sona":"41522","block":1,"time":"2021-09-17T20:06:29.402Z"},{"rt":1486.6000000238419,"stimulus":"[A] option 1, [L] option 2, [G] neither","key_press":76,"name":"choice","trial_type":"html-keyboard-response","trial_index":213,"time_elapsed":572917,"internal_node_id":"0.0-213.0","response":"2nd","certainty":"high","char":"L","transposition":2,"order":["shifted","swapped"],"probe_pitches":[5,6,7,4,1,8,-1,4,-2,-1,4,7,2,4,0,5],"shifted_pitches":[5,6,7,4,1,8,-1,3,-2,-1,4,7,2,4,0,5],"swapped_pitches":[5,6,7,4,1,8,-1,-2,4,-1,4,7,2,4,0,5],"shift_direction":-1,"question_num":181,"has_decoy":false,"subject":"S1C1628","sona":"41522","block":1,"time":"2021-09-17T20:06:29.402Z"},{"rt":2353.7999999523163,"stimulus":"[A] option 1, [L] option 2, [G] neither","key_press":76,"name":"choice","trial_type":"html-keyboard-response","trial_index":224,"time_elapsed":603761,"internal_node_id":"0.0-224.0","response":"2nd","certainty":"high","char":"L","transposition":-3,"order":["swapped","shifted"],"probe_pitches":[-1,2,1,-2,0,-3,8,6,1,0,1,-3,2,1,-2,1],"shifted_pitches":[-1,2,1,-2,0,-3,8,5,1,0,1,-3,2,1,-2,1],"swapped_pitches":[-1,2,1,-2,0,-3,8,1,6,0,1,-3,2,1,-2,1],"shift_direction":-1,"question_num":191,"has_decoy":false,"subject":"S1C1628","sona":"41522","block":1,"time":"2021-09-17T20:06:29.402Z"}]