[{"rt":9840,"stimulus":"[A] option 1, [L] option 2, [G] neither","key_press":76,"name":"choice","trial_type":"html-keyboard-response","trial_index":10,"time_elapsed":33877,"internal_node_id":"0.0-10.0","subject":"S1C1628","sona":"41522","block":3,"time":"2021-09-17T21:00:27.639Z","response":"2nd","certainty":"high","char":"L","transposition":-1,"order":["shifted","swapped"],"probe_pitches":[7,8,9,6,3,-3,6,2,9,8,-1,6,5,4,-1,8],"shifted_pitches":[7,8,9,6,3,-3,6,1,9,8,-1,6,5,4,-1,8],"swapped_pitches":[7,8,9,6,3,-3,6,9,2,8,-1,6,5,4,-1,8],"shift_direction":-1,"question_num":1,"has_decoy":false},{"rt":6684,"stimulus":"[A] option 1, [L] option 2, [G] neither","key_press":76,"name":"choice","trial_type":"html-keyboard-response","trial_index":21,"time_elapsed":63514,"internal_node_id":"0.0-21.0","subject":"S1C1628","sona":"41522","block":3,"time":"2021-09-17T21:00:27.639Z","response":"2nd","certainty":"high","char":"L","transposition":-3,"order":["swapped","shifted"],"probe_pitches":[5,8,6,1,-3,4,2,6,4,9,-3,3,5,-3,2,6],"shifted_pitches":[5,8,6,1,-3,4,2,7,4,9,-3,3,5,-3,2,6],"swapped_pitches":[5,8,6,1,-3,4,2,4,6,9,-3,3,5,-3,2,6],"shift_direction":1,"question_num":11,"has_decoy":false},{"rt":2440.0999999046326,"stimulus":"[A] option 1, [L] option 2, [G] neither","key_press":76,"name":"choice","trial_type":"html-keyboard-response","trial_index":32,"time_elapsed":92189,"internal_node_id":"0.0-32.0","subject":"S1C1628","sona":"41522","block":3,"time":"2021-09-17T21:00:27.639Z","response":"2nd","certainty":"high","char":"L","transposition":-2,"order":["swapped","shifted"],"probe_pitches":[1,-1,2,4,2,7,9,6,1,-1,3,-3,5,2,-2,2],"shifted_pitches":[1,-1,2,4,2,7,9,6,0,-1,3,-3,5,2,-2,2],"swapped_pitches":[1,-1,2,4,2,7,9,1,6,-1,3,-3,5,2,-2,2],"shift_direction":-1,"question_num":21,"has_decoy":false},{"rt":729.6000000238419,"stimulus":"[A] option 1, [L] option 2, [G] neither","key_press":65,"name":"choice","trial_type":"html-keyboard-response","trial_index":43,"time_elapsed":116450,"internal_node_id":"0.0-43.0","subject":"S1C1628","sona":"41522","block":3,"time":"2021-09-17T21:00:27.639Z","response":"1st","certainty":"high","char":"A","transposition":2,"order":["swapped","shifted"],"probe_pitches":[5,0,6,2,-3,4,-1,2,5,4,9,2,1,6,0,7],"shifted_pitches":[5,0,6,2,-3,4,-1,3,5,4,9,2,1,6,0,7],"swapped_pitches":[5,0,6,2,-3,4,-1,5,2,4,9,2,1,6,0,7],"shift_direction":1,"question_num":31,"has_decoy":false},{"rt":2765.899999976158,"stimulus":"[A] option 1, [L] option 2, [G] neither","key_press":65,"name":"choice","trial_type":"html-keyboard-response","trial_index":54,"time_elapsed":141528,"internal_node_id":"0.0-54.0","subject":"S1C1628","sona":"41522","block":3,"time":"2021-09-17T21:00:27.639Z","response":"1st","certainty":"high","char":"A","transposition":-2,"order":["swapped","shifted"],"probe_pitches":[0,2,5,10,7,0,10,2,0,10,0,12,5,10,2,0],"shifted_pitches":[0,2,5,10,7,0,10,1,0,10,0,12,5,10,2,0],"swapped_pitches":[0,2,5,10,7,0,10,0,2,10,0,12,5,10,2,0],"shift_direction":-1,"question_num":41,"has_decoy":false},{"rt":1100.1000000238419,"stimulus":"[A] option 1, [L] option 2, [G] neither","key_press":76,"name":"choice","trial_type":"html-keyboard-response","trial_index":65,"time_elapsed":165377,"internal_node_id":"0.0-65.0","subject":"S1C1628","sona":"41522","block":3,"time":"2021-09-17T21:00:27.639Z","response":"2nd","certainty":"high","char":"L","transposition":-1,"order":["shifted","swapped"],"probe_pitches":[0,3,8,10,5,8,5,0,12,8,10,5,12,0,10,0],"shifted_pitches":[0,3,8,10,5,8,5,0,13,8,10,5,12,0,10,0],"swapped_pitches":[0,3,8,10,5,8,5,12,0,8,10,5,12,0,10,0],"shift_direction":1,"question_num":51,"has_decoy":false},{"rt":5748.399999976158,"stimulus":"[A] option 1, [L] option 2, [G] neither","key_press":76,"name":"choice","trial_type":"html-keyboard-response","trial_index":76,"time_elapsed":201515,"internal_node_id":"0.0-76.0","subject":"S1C1628","sona":"41522","block":3,"time":"2021-09-17T21:00:27.639Z","response":"2nd","certainty":"high","char":"L","transposition":-3,"order":["swapped","shifted"],"probe_pitches":[2,4,0,7,4,12,4,12,9,7,12,0,12,7,4,7],"shifted_pitches":[2,4,0,7,4,12,4,12,10,7,12,0,12,7,4,7],"swapped_pitches":[2,4,0,7,4,12,4,9,12,7,12,0,12,7,4,7],"shift_direction":1,"question_num":61,"has_decoy":false},{"rt":2637.1999999284744,"stimulus":"[A] option 1, [L] option 2, [G] neither","key_press":65,"name":"choice","trial_type":"html-keyboard-response","trial_index":87,"time_elapsed":229436,"internal_node_id":"0.0-87.0","subject":"S1C1628","sona":"41522","block":3,"time":"2021-09-17T21:00:27.639Z","response":"1st","certainty":"high","char":"A","transposition":3,"order":["swapped","shifted"],"probe_pitches":[10,12,10,12,3,5,3,12,5,10,7,10,5,10,7,3],"shifted_pitches":[10,12,10,12,3,5,3,13,5,10,7,10,5,10,7,3],"swapped_pitches":[10,12,10,12,3,5,3,5,12,10,7,10,5,10,7,3],"shift_direction":1,"question_num":71,"has_decoy":false},{"rt":1521.3999999761581,"stimulus":"[A] option 1, [L] option 2, [G] neither","key_press":76,"name":"choice","trial_type":"html-keyboard-response","trial_index":98,"time_elapsed":253397,"internal_node_id":"0.0-98.0","subject":"S1C1628","sona":"41522","block":3,"time":"2021-09-17T21:00:27.639Z","response":"2nd","certainty":"high","char":"L","transposition":-2,"order":["swapped","shifted"],"probe_pitches":[3,6,2,1,-3,6,2,0,6,2,6,-1,2,1,7,1],"shifted_pitches":[3,6,2,1,-3,6,2,0,5,2,6,-1,2,1,7,1],"swapped_pitches":[3,6,2,1,-3,6,2,6,0,2,6,-1,2,1,7,1],"shift_direction":-1,"question_num":81,"has_decoy":false},{"rt":1356.6999999284744,"stimulus":"[A] option 1, [L] option 2, [G] neither","key_press":65,"name":"choice","trial_type":"html-keyboard-response","trial_index":109,"time_elapsed":279134,"internal_node_id":"0.0-109.0","subject":"S1C1628","sona":"41522","block":3,"time":"2021-09-17T21:00:27.639Z","response":"1st","certainty":"high","char":"A","transposition":3,"order":["shifted","swapped"],"probe_pitches":[-2,-1,-3,0,2,-1,9,3,-2,0,7,-1,9,-3,3,6],"shifted_pitches":[-2,-1,-3,0,2,-1,9,4,-2,0,7,-1,9,-3,3,6],"swapped_pitches":[-2,-1,-3,0,2,-1,9,-2,3,0,7,-1,9,-3,3,6],"shift_direction":1,"question_num":91,"has_decoy":false},{"rt":8205.700000047684,"stimulus":"[A] option 1, [L] option 2, [G] neither","key_press":76,"name":"choice","trial_type":"html-keyboard-response","trial_index":120,"time_elapsed":310862,"internal_node_id":"0.0-120.0","subject":"S1C1628","sona":"41522","block":3,"time":"2021-09-17T21:00:27.639Z","response":"2nd","certainty":"high","char":"L","transposition":0,"order":["shifted","swapped"],"probe_pitches":[9,4,8,2,1,3,0,8,5,0,3,-2,3,-1,-2,1],"shifted_pitches":[9,4,8,2,1,3,0,8,6,0,3,-2,3,-1,-2,1],"swapped_pitches":[9,4,8,2,1,3,0,5,8,0,3,-2,3,-1,-2,1],"shift_direction":1,"question_num":101,"has_decoy":false},{"rt":2210.399999976158,"stimulus":"[A] option 1, [L] option 2, [G] neither","key_press":76,"name":"choice","trial_type":"html-keyboard-response","trial_index":131,"time_elapsed":336209,"internal_node_id":"0.0-131.0","subject":"S1C1628","sona":"41522","block":3,"time":"2021-09-17T21:00:27.639Z","response":"2nd","certainty":"high","char":"L","transposition":2,"order":["shifted","swapped"],"probe_pitches":[9,5,9,5,12,5,7,5,2,12,9,7,5,9,5,7],"shifted_pitches":[9,5,9,5,12,5,7,5,1,12,9,7,5,9,5,7],"swapped_pitches":[9,5,9,5,12,5,7,2,5,12,9,7,5,9,5,7],"shift_direction":-1,"question_num":111,"has_decoy":false},{"rt":6755.899999976158,"stimulus":"[A] option 1, [L] option 2, [G] neither","key_press":65,"name":"choice","trial_type":"html-keyboard-response","trial_index":142,"time_elapsed":365301,"internal_node_id":"0.0-142.0","subject":"S1C1628","sona":"41522","block":3,"time":"2021-09-17T21:00:27.639Z","response":"1st","certainty":"high","char":"A","transposition":1,"order":["swapped","shifted"],"probe_pitches":[4,3,5,9,0,-3,1,-3,-2,2,8,5,-3,4,6,0],"shifted_pitches":[4,3,5,9,0,-3,1,-3,-1,2,8,5,-3,4,6,0],"swapped_pitches":[4,3,5,9,0,-3,1,-2,-3,2,8,5,-3,4,6,0],"shift_direction":1,"question_num":121,"has_decoy":false},{"rt":422.3000000715256,"stimulus":"[A] option 1, [L] option 2, [G] neither","key_press":76,"name":"choice","trial_type":"html-keyboard-response","trial_index":153,"time_elapsed":388065,"internal_node_id":"0.0-153.0","subject":"S1C1628","sona":"41522","block":3,"time":"2021-09-17T21:00:27.639Z","response":"2nd","certainty":"high","char":"L","transposition":-2,"order":["shifted","swapped"],"probe_pitches":[12,10,3,8,0,8,5,0,12,5,10,8,12,0,5,12],"shifted_pitches":[12,10,3,8,0,8,5,1,12,5,10,8,12,0,5,12],"swapped_pitches":[12,10,3,8,0,8,5,12,0,5,10,8,12,0,5,12],"shift_direction":1,"question_num":131,"has_decoy":false},{"rt":1198.8999999761581,"stimulus":"[A] option 1, [L] option 2, [G] neither","key_press":65,"name":"choice","trial_type":"html-keyboard-response","trial_index":164,"time_elapsed":411352,"internal_node_id":"0.0-164.0","subject":"S1C1628","sona":"41522","block":3,"time":"2021-09-17T21:00:27.639Z","response":"1st","certainty":"high","char":"A","transposition":-1,"order":["shifted","swapped"],"probe_pitches":[7,5,10,7,0,2,5,2,7,10,7,10,5,12,10,7],"shifted_pitches":[7,5,10,7,0,2,5,3,7,10,7,10,5,12,10,7],"swapped_pitches":[7,5,10,7,0,2,5,7,2,10,7,10,5,12,10,7],"shift_direction":1,"question_num":141,"has_decoy":false},{"rt":8544.699999928474,"stimulus":"[A] option 1, [L] option 2, [G] neither","key_press":71,"name":"choice","trial_type":"html-keyboard-response","trial_index":175,"time_elapsed":442866,"internal_node_id":"0.0-175.0","subject":"S1C1628","sona":"41522","block":3,"time":"2021-09-17T21:00:27.639Z","response":"neither","certainty":"high","char":"G","transposition":0,"order":["swapped","shifted"],"probe_pitches":[2,5,12,9,0,5,0,12,9,2,5,7,9,12,0,7],"shifted_pitches":[2,5,12,9,0,5,0,12,8,2,5,7,9,12,0,7],"swapped_pitches":[2,5,12,9,0,5,0,9,12,2,5,7,9,12,0,7],"shift_direction":-1,"question_num":151,"has_decoy":false},{"rt":1457.9000000953674,"stimulus":"[A] option 1, [L] option 2, [G] neither","key_press":76,"name":"choice","trial_type":"html-keyboard-response","trial_index":186,"time_elapsed":472588,"internal_node_id":"0.0-186.0","subject":"S1C1628","sona":"41522","block":3,"time":"2021-09-17T21:00:27.639Z","response":"2nd","certainty":"high","char":"L","transposition":-3,"order":["shifted","swapped"],"probe_pitches":[-3,-2,1,3,6,2,-1,7,-3,3,5,0,4,-2,4,7],"shifted_pitches":[-3,-2,1,3,6,2,-1,7,-4,3,5,0,4,-2,4,7],"swapped_pitches":[-3,-2,1,3,6,2,-1,-3,7,3,5,0,4,-2,4,7],"shift_direction":-1,"question_num":161,"has_decoy":false},{"rt":11012.100000023842,"stimulus":"[A] option 1, [L] option 2, [G] neither","key_press":65,"name":"choice","trial_type":"html-keyboard-response","trial_index":197,"time_elapsed":505884,"internal_node_id":"0.0-197.0","subject":"S1C1628","sona":"41522","block":3,"time":"2021-09-17T21:00:27.639Z","response":"1st","certainty":"high","char":"A","transposition":-1,"order":["shifted","swapped"],"probe_pitches":[9,7,3,5,1,8,5,3,0,1,8,0,1,-3,3,7],"shifted_pitches":[9,7,3,5,1,8,5,2,0,1,8,0,1,-3,3,7],"swapped_pitches":[9,7,3,5,1,8,5,0,3,1,8,0,1,-3,3,7],"shift_direction":-1,"question_num":171,"has_decoy":false},{"rt":3322.7999999523163,"stimulus":"[A] option 1, [L] option 2, [G] neither","key_press":71,"name":"choice","trial_type":"html-keyboard-response","trial_index":208,"time_elapsed":534662,"internal_node_id":"0.0-208.0","subject":"S1C1628","sona":"41522","block":3,"time":"2021-09-17T21:00:27.639Z","response":"neither","certainty":"high","char":"G","transposition":-3,"order":["shifted","swapped"],"probe_pitches":[2,4,9,2,0,7,9,7,2,0,2,0,4,9,2,7],"shifted_pitches":[2,4,9,2,0,7,9,6,2,0,2,0,4,9,2,7],"swapped_pitches":[2,4,9,2,0,7,9,2,7,0,2,0,4,9,2,7],"shift_direction":-1,"question_num":181,"has_decoy":false},{"rt":1474.6000000238419,"stimulus":"[A] option 1, [L] option 2, [G] neither","key_press":65,"name":"choice","trial_type":"html-keyboard-response","trial_index":219,"time_elapsed":559025,"internal_node_id":"0.0-219.0","subject":"S1C1628","sona":"41522","block":3,"time":"2021-09-17T21:00:27.639Z","response":"1st","certainty":"high","char":"A","transposition":1,"order":["swapped","shifted"],"probe_pitches":[3,0,3,7,0,3,5,10,3,7,0,10,12,5,3,7],"shifted_pitches":[3,0,3,7,0,3,5,10,2,7,0,10,12,5,3,7],"swapped_pitches":[3,0,3,7,0,3,5,3,10,7,0,10,12,5,3,7],"shift_direction":-1,"question_num":191,"has_decoy":false}]