[{"rt":1641.1999999284744,"stimulus":"[A] option 1, [L] option 2, [G] neither","key_press":65,"name":"choice","trial_type":"html-keyboard-response","trial_index":10,"time_elapsed":29478,"internal_node_id":"0.0-10.0","subject":"S1C1628","sona":"41522","block":2,"time":"2021-09-17T20:51:05.400Z","response":"1st","certainty":"high","char":"A","transposition":2,"order":["shifted","swapped"],"probe_pitches":[6,2,9,11,14,6,11,14,2,4,2,11,6,4,11,4],"shifted_pitches":[6,2,9,11,14,6,11,14,1,4,2,11,6,4,11,4],"swapped_pitches":[6,2,9,11,14,6,11,2,14,4,2,11,6,4,11,4],"shift_direction":-1,"question_num":1,"has_decoy":false},{"rt":4088.2999999523163,"stimulus":"[A] option 1, [L] option 2, [G] neither","key_press":71,"name":"choice","trial_type":"html-keyboard-response","trial_index":21,"time_elapsed":56612,"internal_node_id":"0.0-21.0","subject":"S1C1628","sona":"41522","block":2,"time":"2021-09-17T20:51:05.400Z","response":"neither","certainty":"high","char":"G","transposition":0,"order":["swapped","shifted"],"probe_pitches":[7,5,6,-1,0,4,0,10,11,2,-1,7,10,3,1,8],"shifted_pitches":[7,5,6,-1,0,4,0,9,11,2,-1,7,10,3,1,8],"swapped_pitches":[7,5,6,-1,0,4,0,11,10,2,-1,7,10,3,1,8],"shift_direction":-1,"question_num":11,"has_decoy":false},{"rt":1468.7000000476837,"stimulus":"[A] option 1, [L] option 2, [G] neither","key_press":76,"name":"choice","trial_type":"html-keyboard-response","trial_index":32,"time_elapsed":81143,"internal_node_id":"0.0-32.0","subject":"S1C1628","sona":"41522","block":2,"time":"2021-09-17T20:51:05.400Z","response":"2nd","certainty":"high","char":"L","transposition":-3,"order":["shifted","swapped"],"probe_pitches":[-1,0,2,5,4,3,8,3,7,2,8,-1,2,10,8,4],"shifted_pitches":[-1,0,2,5,4,3,8,3,6,2,8,-1,2,10,8,4],"swapped_pitches":[-1,0,2,5,4,3,8,7,3,2,8,-1,2,10,8,4],"shift_direction":-1,"question_num":21,"has_decoy":false},{"rt":1405.5,"stimulus":"[A] option 1, [L] option 2, [G] neither","key_press":76,"name":"choice","trial_type":"html-keyboard-response","trial_index":43,"time_elapsed":104668,"internal_node_id":"0.0-43.0","subject":"S1C1628","sona":"41522","block":2,"time":"2021-09-17T20:51:05.400Z","response":"2nd","certainty":"high","char":"L","transposition":1,"order":["swapped","shifted"],"probe_pitches":[2,7,11,4,7,11,14,7,9,11,7,14,11,2,11,4],"shifted_pitches":[2,7,11,4,7,11,14,8,9,11,7,14,11,2,11,4],"swapped_pitches":[2,7,11,4,7,11,14,9,7,11,7,14,11,2,11,4],"shift_direction":1,"question_num":31,"has_decoy":false},{"rt":1886.7000000476837,"stimulus":"[A] option 1, [L] option 2, [G] neither","key_press":65,"name":"choice","trial_type":"html-keyboard-response","trial_index":54,"time_elapsed":128577,"internal_node_id":"0.0-54.0","subject":"S1C1628","sona":"41522","block":2,"time":"2021-09-17T20:51:05.400Z","response":"1st","certainty":"high","char":"A","transposition":-1,"order":["swapped","shifted"],"probe_pitches":[14,12,7,9,12,5,12,7,5,14,12,7,12,14,12,14],"shifted_pitches":[14,12,7,9,12,5,12,8,5,14,12,7,12,14,12,14],"swapped_pitches":[14,12,7,9,12,5,12,5,7,14,12,7,12,14,12,14],"shift_direction":1,"question_num":41,"has_decoy":false},{"rt":1010.3999999761581,"stimulus":"[A] option 1, [L] option 2, [G] neither","key_press":76,"name":"choice","trial_type":"html-keyboard-response","trial_index":65,"time_elapsed":152390,"internal_node_id":"0.0-65.0","subject":"S1C1628","sona":"41522","block":2,"time":"2021-09-17T20:51:05.400Z","response":"2nd","certainty":"high","char":"L","transposition":3,"order":["shifted","swapped"],"probe_pitches":[14,12,7,14,7,2,4,7,9,14,7,4,12,9,12,9],"shifted_pitches":[14,12,7,14,7,2,4,7,8,14,7,4,12,9,12,9],"swapped_pitches":[14,12,7,14,7,2,4,9,7,14,7,4,12,9,12,9],"shift_direction":-1,"question_num":51,"has_decoy":false},{"rt":4241.100000023842,"stimulus":"[A] option 1, [L] option 2, [G] neither","key_press":65,"name":"choice","trial_type":"html-keyboard-response","trial_index":76,"time_elapsed":179622,"internal_node_id":"0.0-76.0","subject":"S1C1628","sona":"41522","block":2,"time":"2021-09-17T20:51:05.400Z","response":"1st","certainty":"high","char":"A","transposition":2,"order":["swapped","shifted"],"probe_pitches":[0,2,8,4,6,8,3,10,6,0,3,10,1,5,10,-1],"shifted_pitches":[0,2,8,4,6,8,3,10,7,0,3,10,1,5,10,-1],"swapped_pitches":[0,2,8,4,6,8,3,6,10,0,3,10,1,5,10,-1],"shift_direction":1,"question_num":61,"has_decoy":false},{"rt":809.1000000238419,"stimulus":"[A] option 1, [L] option 2, [G] neither","key_press":76,"name":"choice","trial_type":"html-keyboard-response","trial_index":87,"time_elapsed":203949,"internal_node_id":"0.0-87.0","subject":"S1C1628","sona":"41522","block":2,"time":"2021-09-17T20:51:05.400Z","response":"2nd","certainty":"high","char":"L","transposition":-2,"order":["swapped","shifted"],"probe_pitches":[7,4,1,5,9,4,0,2,9,4,-1,6,11,-1,0,9],"shifted_pitches":[7,4,1,5,9,4,0,3,9,4,-1,6,11,-1,0,9],"swapped_pitches":[7,4,1,5,9,4,0,9,2,4,-1,6,11,-1,0,9],"shift_direction":1,"question_num":71,"has_decoy":false},{"rt":1252.8000000715256,"stimulus":"[A] option 1, [L] option 2, [G] neither","key_press":65,"name":"choice","trial_type":"html-keyboard-response","trial_index":98,"time_elapsed":227783,"internal_node_id":"0.0-98.0","subject":"S1C1628","sona":"41522","block":2,"time":"2021-09-17T20:51:05.400Z","response":"1st","certainty":"high","char":"A","transposition":-1,"order":["shifted","swapped"],"probe_pitches":[2,7,14,12,10,14,12,5,14,2,10,12,10,12,10,5],"shifted_pitches":[2,7,14,12,10,14,12,5,13,2,10,12,10,12,10,5],"swapped_pitches":[2,7,14,12,10,14,12,14,5,2,10,12,10,12,10,5],"shift_direction":-1,"question_num":81,"has_decoy":false},{"rt":773.2000000476837,"stimulus":"[A] option 1, [L] option 2, [G] neither","key_press":76,"name":"choice","trial_type":"html-keyboard-response","trial_index":109,"time_elapsed":250913,"internal_node_id":"0.0-109.0","subject":"S1C1628","sona":"41522","block":2,"time":"2021-09-17T20:51:05.400Z","response":"2nd","certainty":"high","char":"L","transposition":-2,"order":["shifted","swapped"],"probe_pitches":[7,8,11,8,5,11,3,5,6,3,-1,5,2,7,10,5],"shifted_pitches":[7,8,11,8,5,11,3,4,6,3,-1,5,2,7,10,5],"swapped_pitches":[7,8,11,8,5,11,3,6,5,3,-1,5,2,7,10,5],"shift_direction":-1,"question_num":91,"has_decoy":false},{"rt":2274.5,"stimulus":"[A] option 1, [L] option 2, [G] neither","key_press":71,"name":"choice","trial_type":"html-keyboard-response","trial_index":120,"time_elapsed":275778,"internal_node_id":"0.0-120.0","subject":"S1C1628","sona":"41522","block":2,"time":"2021-09-17T20:51:05.400Z","response":"neither","certainty":"high","char":"G","transposition":-1,"order":["shifted","swapped"],"probe_pitches":[4,10,7,6,4,6,9,1,3,9,6,0,11,5,7,8],"shifted_pitches":[4,10,7,6,4,6,9,2,3,9,6,0,11,5,7,8],"swapped_pitches":[4,10,7,6,4,6,9,3,1,9,6,0,11,5,7,8],"shift_direction":1,"question_num":101,"has_decoy":false},{"rt":2510.5,"stimulus":"[A] option 1, [L] option 2, [G] neither","key_press":76,"name":"choice","trial_type":"html-keyboard-response","trial_index":131,"time_elapsed":300759,"internal_node_id":"0.0-131.0","subject":"S1C1628","sona":"41522","block":2,"time":"2021-09-17T20:51:05.400Z","response":"2nd","certainty":"high","char":"L","transposition":-3,"order":["swapped","shifted"],"probe_pitches":[4,9,12,9,2,7,2,14,7,2,14,7,4,7,4,12],"shifted_pitches":[4,9,12,9,2,7,2,15,7,2,14,7,4,7,4,12],"swapped_pitches":[4,9,12,9,2,7,2,7,14,2,14,7,4,7,4,12],"shift_direction":1,"question_num":111,"has_decoy":false},{"rt":4447.900000095367,"stimulus":"[A] option 1, [L] option 2, [G] neither","key_press":76,"name":"choice","trial_type":"html-keyboard-response","trial_index":142,"time_elapsed":328525,"internal_node_id":"0.0-142.0","subject":"S1C1628","sona":"41522","block":2,"time":"2021-09-17T20:51:05.400Z","response":"2nd","certainty":"high","char":"L","transposition":-3,"order":["shifted","swapped"],"probe_pitches":[6,9,11,3,11,8,11,4,10,-1,2,6,2,7,0,9],"shifted_pitches":[6,9,11,3,11,8,11,5,10,-1,2,6,2,7,0,9],"swapped_pitches":[6,9,11,3,11,8,11,10,4,-1,2,6,2,7,0,9],"shift_direction":1,"question_num":121,"has_decoy":false},{"rt":1005.5,"stimulus":"[A] option 1, [L] option 2, [G] neither","key_press":65,"name":"choice","trial_type":"html-keyboard-response","trial_index":153,"time_elapsed":352441,"internal_node_id":"0.0-153.0","subject":"S1C1628","sona":"41522","block":2,"time":"2021-09-17T20:51:05.400Z","response":"1st","certainty":"high","char":"A","transposition":1,"order":["swapped","shifted"],"probe_pitches":[7,6,10,9,1,5,7,10,9,3,7,2,0,9,2,4],"shifted_pitches":[7,6,10,9,1,5,7,10,8,3,7,2,0,9,2,4],"swapped_pitches":[7,6,10,9,1,5,7,9,10,3,7,2,0,9,2,4],"shift_direction":-1,"question_num":131,"has_decoy":false},{"rt":887.1000000238419,"stimulus":"[A] option 1, [L] option 2, [G] neither","key_press":76,"name":"choice","trial_type":"html-keyboard-response","trial_index":164,"time_elapsed":375772,"internal_node_id":"0.0-164.0","subject":"S1C1628","sona":"41522","block":2,"time":"2021-09-17T20:51:05.400Z","response":"2nd","certainty":"high","char":"L","transposition":0,"order":["swapped","shifted"],"probe_pitches":[12,9,5,9,12,9,14,9,5,2,7,12,5,12,9,12],"shifted_pitches":[12,9,5,9,12,9,14,10,5,2,7,12,5,12,9,12],"swapped_pitches":[12,9,5,9,12,9,14,5,9,2,7,12,5,12,9,12],"shift_direction":1,"question_num":141,"has_decoy":false},{"rt":2582.3000000715256,"stimulus":"[A] option 1, [L] option 2, [G] neither","key_press":76,"name":"choice","trial_type":"html-keyboard-response","trial_index":175,"time_elapsed":401119,"internal_node_id":"0.0-175.0","subject":"S1C1628","sona":"41522","block":2,"time":"2021-09-17T20:51:05.400Z","response":"2nd","certainty":"high","char":"L","transposition":-2,"order":["swapped","shifted"],"probe_pitches":[2,5,7,12,14,10,7,5,14,12,10,2,14,10,12,10],"shifted_pitches":[2,5,7,12,14,10,7,4,14,12,10,2,14,10,12,10],"swapped_pitches":[2,5,7,12,14,10,7,14,5,12,10,2,14,10,12,10],"shift_direction":-1,"question_num":151,"has_decoy":false},{"rt":546,"stimulus":"[A] option 1, [L] option 2, [G] neither","key_press":76,"name":"choice","trial_type":"html-keyboard-response","trial_index":186,"time_elapsed":424138,"internal_node_id":"0.0-186.0","subject":"S1C1628","sona":"41522","block":2,"time":"2021-09-17T20:51:05.400Z","response":"2nd","certainty":"high","char":"L","transposition":-3,"order":["shifted","swapped"],"probe_pitches":[4,7,2,4,9,7,4,9,11,7,4,14,9,14,2,4],"shifted_pitches":[4,7,2,4,9,7,4,9,12,7,4,14,9,14,2,4],"swapped_pitches":[4,7,2,4,9,7,4,11,9,7,4,14,9,14,2,4],"shift_direction":1,"question_num":161,"has_decoy":false},{"rt":1717.7000000476837,"stimulus":"[A] option 1, [L] option 2, [G] neither","key_press":76,"name":"choice","trial_type":"html-keyboard-response","trial_index":197,"time_elapsed":449292,"internal_node_id":"0.0-197.0","subject":"S1C1628","sona":"41522","block":2,"time":"2021-09-17T20:51:05.400Z","response":"2nd","certainty":"high","char":"L","transposition":-1,"order":["shifted","swapped"],"probe_pitches":[4,9,8,5,4,1,8,9,11,6,-1,6,2,9,6,2],"shifted_pitches":[4,9,8,5,4,1,8,9,10,6,-1,6,2,9,6,2],"swapped_pitches":[4,9,8,5,4,1,8,11,9,6,-1,6,2,9,6,2],"shift_direction":-1,"question_num":171,"has_decoy":false},{"rt":1198.6999999284744,"stimulus":"[A] option 1, [L] option 2, [G] neither","key_press":65,"name":"choice","trial_type":"html-keyboard-response","trial_index":208,"time_elapsed":473049,"internal_node_id":"0.0-208.0","subject":"S1C1628","sona":"41522","block":2,"time":"2021-09-17T20:51:05.400Z","response":"1st","certainty":"high","char":"A","transposition":3,"order":["swapped","shifted"],"probe_pitches":[10,9,2,0,5,3,-1,5,0,8,7,-1,5,10,3,6],"shifted_pitches":[10,9,2,0,5,3,-1,5,1,8,7,-1,5,10,3,6],"swapped_pitches":[10,9,2,0,5,3,-1,0,5,8,7,-1,5,10,3,6],"shift_direction":1,"question_num":181,"has_decoy":false},{"rt":843.7999999523163,"stimulus":"[A] option 1, [L] option 2, [G] neither","key_press":76,"name":"choice","trial_type":"html-keyboard-response","trial_index":219,"time_elapsed":497178,"internal_node_id":"0.0-219.0","subject":"S1C1628","sona":"41522","block":2,"time":"2021-09-17T20:51:05.400Z","response":"2nd","certainty":"high","char":"L","transposition":-2,"order":["shifted","swapped"],"probe_pitches":[2,4,6,9,14,11,2,9,11,14,11,4,6,2,14,2],"shifted_pitches":[2,4,6,9,14,11,2,9,10,14,11,4,6,2,14,2],"swapped_pitches":[2,4,6,9,14,11,2,11,9,14,11,4,6,2,14,2],"shift_direction":-1,"question_num":191,"has_decoy":false}]