[{"rt":2254.600000023842,"stimulus":"[A] option 1, [L] option 2, [G] neither","key_press":76,"name":"choice","trial_type":"html-keyboard-response","trial_index":10,"time_elapsed":25820,"internal_node_id":"0.0-10.0","subject":"S1C1628","sona":"41522","block":6,"time":"2021-09-17T21:27:10.294Z","response":"2nd","certainty":"high","char":"L","transposition":2,"order":["shifted","swapped"],"probe_pitches":[4,10,12,10,13,11,10,7,4,11,4,12,10,9,6,4],"shifted_pitches":[4,10,12,10,13,11,10,8,4,11,4,12,10,9,6,4],"swapped_pitches":[4,10,12,10,13,11,10,4,7,11,4,12,10,9,6,4],"shift_direction":1,"question_num":1,"has_decoy":false},{"rt":360.7999999523163,"stimulus":"[A] option 1, [L] option 2, [G] neither","key_press":65,"name":"choice","trial_type":"html-keyboard-response","trial_index":21,"time_elapsed":48506,"internal_node_id":"0.0-21.0","subject":"S1C1628","sona":"41522","block":6,"time":"2021-09-17T21:27:10.294Z","response":"1st","certainty":"high","char":"A","transposition":3,"order":["shifted","swapped"],"probe_pitches":[-2,3,8,5,10,8,3,0,10,8,10,-2,5,0,3,8],"shifted_pitches":[-2,3,8,5,10,8,3,1,10,8,10,-2,5,0,3,8],"swapped_pitches":[-2,3,8,5,10,8,3,10,0,8,10,-2,5,0,3,8],"shift_direction":1,"question_num":11,"has_decoy":false},{"rt":6828.200000047684,"stimulus":"[A] option 1, [L] option 2, [G] neither","key_press":71,"name":"choice","trial_type":"html-keyboard-response","trial_index":32,"time_elapsed":77430,"internal_node_id":"0.0-32.0","subject":"S1C1628","sona":"41522","block":6,"time":"2021-09-17T21:27:10.294Z","response":"neither","certainty":"high","char":"G","transposition":1,"order":["shifted","swapped"],"probe_pitches":[3,4,5,9,3,4,13,3,6,14,2,9,10,3,4,8],"shifted_pitches":[3,4,5,9,3,4,13,3,7,14,2,9,10,3,4,8],"swapped_pitches":[3,4,5,9,3,4,13,6,3,14,2,9,10,3,4,8],"shift_direction":1,"question_num":21,"has_decoy":false},{"rt":701.1999999284744,"stimulus":"[A] option 1, [L] option 2, [G] neither","key_press":76,"name":"choice","trial_type":"html-keyboard-response","trial_index":43,"time_elapsed":100544,"internal_node_id":"0.0-43.0","subject":"S1C1628","sona":"41522","block":6,"time":"2021-09-17T21:27:10.294Z","response":"2nd","certainty":"high","char":"L","transposition":-1,"order":["swapped","shifted"],"probe_pitches":[-2,0,2,5,10,5,2,7,10,-2,10,7,5,7,5,0],"shifted_pitches":[-2,0,2,5,10,5,2,7,9,-2,10,7,5,7,5,0],"swapped_pitches":[-2,0,2,5,10,5,2,10,7,-2,10,7,5,7,5,0],"shift_direction":-1,"question_num":31,"has_decoy":false},{"rt":2642.3000000715256,"stimulus":"[A] option 1, [L] option 2, [G] neither","key_press":65,"name":"choice","trial_type":"html-keyboard-response","trial_index":54,"time_elapsed":125774,"internal_node_id":"0.0-54.0","subject":"S1C1628","sona":"41522","block":6,"time":"2021-09-17T21:27:10.294Z","response":"1st","certainty":"high","char":"A","transposition":-3,"order":["swapped","shifted"],"probe_pitches":[4,2,6,4,3,9,12,6,9,14,4,7,4,12,6,14],"shifted_pitches":[4,2,6,4,3,9,12,5,9,14,4,7,4,12,6,14],"swapped_pitches":[4,2,6,4,3,9,12,9,6,14,4,7,4,12,6,14],"shift_direction":-1,"question_num":41,"has_decoy":false},{"rt":1617.7000000476837,"stimulus":"[A] option 1, [L] option 2, [G] neither","key_press":71,"name":"choice","trial_type":"html-keyboard-response","trial_index":65,"time_elapsed":149713,"internal_node_id":"0.0-65.0","subject":"S1C1628","sona":"41522","block":6,"time":"2021-09-17T21:27:10.294Z","response":"neither","certainty":"high","char":"G","transposition":-1,"order":["shifted","swapped"],"probe_pitches":[0,5,0,3,0,10,0,-2,3,5,0,8,-2,5,3,5],"shifted_pitches":[0,5,0,3,0,10,0,-2,2,5,0,8,-2,5,3,5],"swapped_pitches":[0,5,0,3,0,10,0,3,-2,5,0,8,-2,5,3,5],"shift_direction":-1,"question_num":51,"has_decoy":false},{"rt":5861.799999952316,"stimulus":"[A] option 1, [L] option 2, [G] neither","key_press":65,"name":"choice","trial_type":"html-keyboard-response","trial_index":76,"time_elapsed":177694,"internal_node_id":"0.0-76.0","subject":"S1C1628","sona":"41522","block":6,"time":"2021-09-17T21:27:10.294Z","response":"1st","certainty":"high","char":"A","transposition":2,"order":["shifted","swapped"],"probe_pitches":[1,-2,3,10,6,10,1,8,-2,10,8,-2,1,3,10,8],"shifted_pitches":[1,-2,3,10,6,10,1,8,-1,10,8,-2,1,3,10,8],"swapped_pitches":[1,-2,3,10,6,10,1,-2,8,10,8,-2,1,3,10,8],"shift_direction":1,"question_num":61,"has_decoy":false},{"rt":1605.5,"stimulus":"[A] option 1, [L] option 2, [G] neither","key_press":76,"name":"choice","trial_type":"html-keyboard-response","trial_index":87,"time_elapsed":201489,"internal_node_id":"0.0-87.0","subject":"S1C1628","sona":"41522","block":6,"time":"2021-09-17T21:27:10.294Z","response":"2nd","certainty":"high","char":"L","transposition":-3,"order":["swapped","shifted"],"probe_pitches":[12,7,14,9,6,9,11,3,12,14,2,3,13,6,13,7],"shifted_pitches":[12,7,14,9,6,9,11,4,12,14,2,3,13,6,13,7],"swapped_pitches":[12,7,14,9,6,9,11,12,3,14,2,3,13,6,13,7],"shift_direction":1,"question_num":71,"has_decoy":false},{"rt":389.7999999523163,"stimulus":"[A] option 1, [L] option 2, [G] neither","key_press":65,"name":"choice","trial_type":"html-keyboard-response","trial_index":98,"time_elapsed":224448,"internal_node_id":"0.0-98.0","subject":"S1C1628","sona":"41522","block":6,"time":"2021-09-17T21:27:10.294Z","response":"1st","certainty":"high","char":"A","transposition":1,"order":["swapped","shifted"],"probe_pitches":[-2,0,-2,3,7,10,3,5,7,0,-2,3,5,3,-2,5],"shifted_pitches":[-2,0,-2,3,7,10,3,6,7,0,-2,3,5,3,-2,5],"swapped_pitches":[-2,0,-2,3,7,10,3,7,5,0,-2,3,5,3,-2,5],"shift_direction":1,"question_num":81,"has_decoy":false},{"rt":2103.7999999523163,"stimulus":"[A] option 1, [L] option 2, [G] neither","key_press":71,"name":"choice","trial_type":"html-keyboard-response","trial_index":109,"time_elapsed":252826,"internal_node_id":"0.0-109.0","subject":"S1C1628","sona":"41522","block":6,"time":"2021-09-17T21:27:10.294Z","response":"neither","certainty":"high","char":"G","transposition":-2,"order":["swapped","shifted"],"probe_pitches":[5,8,1,8,5,10,8,5,3,1,5,1,3,5,1,3],"shifted_pitches":[5,8,1,8,5,10,8,5,2,1,5,1,3,5,1,3],"swapped_pitches":[5,8,1,8,5,10,8,3,5,1,5,1,3,5,1,3],"shift_direction":-1,"question_num":91,"has_decoy":false},{"rt":3684.7999999523163,"stimulus":"[A] option 1, [L] option 2, [G] neither","key_press":65,"name":"choice","trial_type":"html-keyboard-response","trial_index":120,"time_elapsed":278843,"internal_node_id":"0.0-120.0","subject":"S1C1628","sona":"41522","block":6,"time":"2021-09-17T21:27:10.294Z","response":"1st","certainty":"high","char":"A","transposition":-1,"order":["swapped","shifted"],"probe_pitches":[7,12,7,4,13,6,5,4,10,7,14,12,4,3,4,12],"shifted_pitches":[7,12,7,4,13,6,5,4,9,7,14,12,4,3,4,12],"swapped_pitches":[7,12,7,4,13,6,5,10,4,7,14,12,4,3,4,12],"shift_direction":-1,"question_num":101,"has_decoy":false},{"rt":2996.2999999523163,"stimulus":"[A] option 1, [L] option 2, [G] neither","key_press":76,"name":"choice","trial_type":"html-keyboard-response","trial_index":131,"time_elapsed":304195,"internal_node_id":"0.0-131.0","subject":"S1C1628","sona":"41522","block":6,"time":"2021-09-17T21:27:10.294Z","response":"2nd","certainty":"high","char":"L","transposition":0,"order":["swapped","shifted"],"probe_pitches":[-2,3,8,3,8,10,5,8,-2,10,3,8,1,8,10,5],"shifted_pitches":[-2,3,8,3,8,10,5,8,-1,10,3,8,1,8,10,5],"swapped_pitches":[-2,3,8,3,8,10,5,-2,8,10,3,8,1,8,10,5],"shift_direction":1,"question_num":111,"has_decoy":false},{"rt":352.89999997615814,"stimulus":"[A] option 1, [L] option 2, [G] neither","key_press":65,"name":"choice","trial_type":"html-keyboard-response","trial_index":142,"time_elapsed":336712,"internal_node_id":"0.0-142.0","subject":"S1C1628","sona":"41522","block":6,"time":"2021-09-17T21:27:10.294Z","response":"1st","certainty":"high","char":"A","transposition":-3,"order":["shifted","swapped"],"probe_pitches":[-2,0,7,3,10,0,7,0,10,7,10,5,10,3,5,-2],"shifted_pitches":[-2,0,7,3,10,0,7,-1,10,7,10,5,10,3,5,-2],"swapped_pitches":[-2,0,7,3,10,0,7,10,0,7,10,5,10,3,5,-2],"shift_direction":-1,"question_num":121,"has_decoy":false},{"rt":966,"stimulus":"[A] option 1, [L] option 2, [G] neither","key_press":65,"name":"choice","trial_type":"html-keyboard-response","trial_index":153,"time_elapsed":359974,"internal_node_id":"0.0-153.0","subject":"S1C1628","sona":"41522","block":6,"time":"2021-09-17T21:27:10.294Z","response":"1st","certainty":"high","char":"A","transposition":-2,"order":["swapped","shifted"],"probe_pitches":[11,9,4,5,8,7,5,14,12,7,12,14,3,14,3,6],"shifted_pitches":[11,9,4,5,8,7,5,14,13,7,12,14,3,14,3,6],"swapped_pitches":[11,9,4,5,8,7,5,12,14,7,12,14,3,14,3,6],"shift_direction":1,"question_num":131,"has_decoy":false},{"rt":3317.7999999523163,"stimulus":"[A] option 1, [L] option 2, [G] neither","key_press":65,"name":"choice","trial_type":"html-keyboard-response","trial_index":164,"time_elapsed":385561,"internal_node_id":"0.0-164.0","subject":"S1C1628","sona":"41522","block":6,"time":"2021-09-17T21:27:10.294Z","response":"1st","certainty":"high","char":"A","transposition":-2,"order":["shifted","swapped"],"probe_pitches":[5,2,3,9,12,5,6,11,12,7,4,11,13,11,3,4],"shifted_pitches":[5,2,3,9,12,5,6,10,12,7,4,11,13,11,3,4],"swapped_pitches":[5,2,3,9,12,5,6,12,11,7,4,11,13,11,3,4],"shift_direction":-1,"question_num":141,"has_decoy":false},{"rt":2289.5999999046326,"stimulus":"[A] option 1, [L] option 2, [G] neither","key_press":71,"name":"choice","trial_type":"html-keyboard-response","trial_index":175,"time_elapsed":410302,"internal_node_id":"0.0-175.0","subject":"S1C1628","sona":"41522","block":6,"time":"2021-09-17T21:27:10.294Z","response":"neither","certainty":"high","char":"G","transposition":-3,"order":["swapped","shifted"],"probe_pitches":[10,7,2,10,7,-2,0,10,5,7,10,0,5,10,0,-2],"shifted_pitches":[10,7,2,10,7,-2,0,11,5,7,10,0,5,10,0,-2],"swapped_pitches":[10,7,2,10,7,-2,0,5,10,7,10,0,5,10,0,-2],"shift_direction":1,"question_num":151,"has_decoy":false},{"rt":8937.100000023842,"stimulus":"[A] option 1, [L] option 2, [G] neither","key_press":71,"name":"choice","trial_type":"html-keyboard-response","trial_index":186,"time_elapsed":441640,"internal_node_id":"0.0-186.0","subject":"S1C1628","sona":"41522","block":6,"time":"2021-09-17T21:27:10.294Z","response":"neither","certainty":"high","char":"G","transposition":-1,"order":["shifted","swapped"],"probe_pitches":[4,10,3,8,9,13,8,7,9,11,5,7,11,14,3,11],"shifted_pitches":[4,10,3,8,9,13,8,6,9,11,5,7,11,14,3,11],"swapped_pitches":[4,10,3,8,9,13,8,9,7,11,5,7,11,14,3,11],"shift_direction":-1,"question_num":161,"has_decoy":false},{"rt":14719.799999952316,"stimulus":"[A] option 1, [L] option 2, [G] neither","key_press":76,"name":"choice","trial_type":"html-keyboard-response","trial_index":197,"time_elapsed":478914,"internal_node_id":"0.0-197.0","subject":"S1C1628","sona":"41522","block":6,"time":"2021-09-17T21:27:10.294Z","response":"2nd","certainty":"high","char":"L","transposition":0,"order":["shifted","swapped"],"probe_pitches":[9,4,5,4,9,5,12,4,10,5,2,9,8,5,10,2],"shifted_pitches":[9,4,5,4,9,5,12,4,11,5,2,9,8,5,10,2],"swapped_pitches":[9,4,5,4,9,5,12,10,4,5,2,9,8,5,10,2],"shift_direction":1,"question_num":171,"has_decoy":false},{"rt":990.7999999523163,"stimulus":"[A] option 1, [L] option 2, [G] neither","key_press":76,"name":"choice","trial_type":"html-keyboard-response","trial_index":208,"time_elapsed":502309,"internal_node_id":"0.0-208.0","subject":"S1C1628","sona":"41522","block":6,"time":"2021-09-17T21:27:10.294Z","response":"2nd","certainty":"high","char":"L","transposition":-2,"order":["shifted","swapped"],"probe_pitches":[3,1,-2,6,-2,3,6,8,10,6,3,1,-2,3,1,10],"shifted_pitches":[3,1,-2,6,-2,3,6,7,10,6,3,1,-2,3,1,10],"swapped_pitches":[3,1,-2,6,-2,3,6,10,8,6,3,1,-2,3,1,10],"shift_direction":-1,"question_num":181,"has_decoy":false},{"rt":3985.600000023842,"stimulus":"[A] option 1, [L] option 2, [G] neither","key_press":71,"name":"choice","trial_type":"html-keyboard-response","trial_index":219,"time_elapsed":529024,"internal_node_id":"0.0-219.0","subject":"S1C1628","sona":"41522","block":6,"time":"2021-09-17T21:27:10.294Z","response":"neither","certainty":"high","char":"G","transposition":3,"order":["swapped","shifted"],"probe_pitches":[7,10,8,13,10,9,6,3,13,4,7,2,9,14,4,5],"shifted_pitches":[7,10,8,13,10,9,6,3,12,4,7,2,9,14,4,5],"swapped_pitches":[7,10,8,13,10,9,6,13,3,4,7,2,9,14,4,5],"shift_direction":-1,"question_num":191,"has_decoy":false}]