[{"rt":616.3000000715256,"stimulus":"[A] option 1, [L] option 2, [G] neither","key_press":76,"name":"choice","trial_type":"html-keyboard-response","trial_index":10,"time_elapsed":23618,"internal_node_id":"0.0-10.0","subject":"S1C1628","sona":"41522","block":5,"time":"2021-09-17T21:18:17.493Z","response":"2nd","certainty":"high","char":"L","transposition":-2,"order":["shifted","swapped"],"probe_pitches":[5,4,2,10,13,9,6,9,5,12,11,10,3,7,4,10],"shifted_pitches":[5,4,2,10,13,9,6,8,5,12,11,10,3,7,4,10],"swapped_pitches":[5,4,2,10,13,9,6,5,9,12,11,10,3,7,4,10],"shift_direction":-1,"question_num":1,"has_decoy":false},{"rt":2194.600000023842,"stimulus":"[A] option 1, [L] option 2, [G] neither","key_press":71,"name":"choice","trial_type":"html-keyboard-response","trial_index":21,"time_elapsed":47856,"internal_node_id":"0.0-21.0","subject":"S1C1628","sona":"41522","block":5,"time":"2021-09-17T21:18:17.493Z","response":"neither","certainty":"high","char":"G","transposition":-3,"order":["swapped","shifted"],"probe_pitches":[10,8,12,10,3,4,5,3,7,5,12,11,1,8,2,5],"shifted_pitches":[10,8,12,10,3,4,5,3,6,5,12,11,1,8,2,5],"swapped_pitches":[10,8,12,10,3,4,5,7,3,5,12,11,1,8,2,5],"shift_direction":-1,"question_num":11,"has_decoy":false},{"rt":7968.5,"stimulus":"[A] option 1, [L] option 2, [G] neither","key_press":65,"name":"choice","trial_type":"html-keyboard-response","trial_index":32,"time_elapsed":79084,"internal_node_id":"0.0-32.0","subject":"S1C1628","sona":"41522","block":5,"time":"2021-09-17T21:18:17.493Z","response":"1st","certainty":"high","char":"A","transposition":-1,"order":["shifted","swapped"],"probe_pitches":[2,4,2,4,11,2,9,4,14,2,14,11,6,14,2,11],"shifted_pitches":[2,4,2,4,11,2,9,5,14,2,14,11,6,14,2,11],"swapped_pitches":[2,4,2,4,11,2,9,14,4,2,14,11,6,14,2,11],"shift_direction":1,"question_num":21,"has_decoy":false},{"rt":1212.1000000238419,"stimulus":"[A] option 1, [L] option 2, [G] neither","key_press":71,"name":"choice","trial_type":"html-keyboard-response","trial_index":43,"time_elapsed":103398,"internal_node_id":"0.0-43.0","subject":"S1C1628","sona":"41522","block":5,"time":"2021-09-17T21:18:17.493Z","response":"neither","certainty":"high","char":"G","transposition":-2,"order":["swapped","shifted"],"probe_pitches":[4,1,6,5,3,9,4,11,6,10,3,5,1,3,13,11],"shifted_pitches":[4,1,6,5,3,9,4,12,6,10,3,5,1,3,13,11],"swapped_pitches":[4,1,6,5,3,9,4,6,11,10,3,5,1,3,13,11],"shift_direction":1,"question_num":31,"has_decoy":false},{"rt":387.89999997615814,"stimulus":"[A] option 1, [L] option 2, [G] neither","key_press":76,"name":"choice","trial_type":"html-keyboard-response","trial_index":54,"time_elapsed":126076,"internal_node_id":"0.0-54.0","subject":"S1C1628","sona":"41522","block":5,"time":"2021-09-17T21:18:17.493Z","response":"2nd","certainty":"high","char":"L","transposition":3,"order":["swapped","shifted"],"probe_pitches":[7,9,2,7,2,4,2,12,9,4,7,12,14,2,14,12],"shifted_pitches":[7,9,2,7,2,4,2,11,9,4,7,12,14,2,14,12],"swapped_pitches":[7,9,2,7,2,4,2,9,12,4,7,12,14,2,14,12],"shift_direction":-1,"question_num":41,"has_decoy":false},{"rt":437.5,"stimulus":"[A] option 1, [L] option 2, [G] neither","key_press":65,"name":"choice","trial_type":"html-keyboard-response","trial_index":65,"time_elapsed":148833,"internal_node_id":"0.0-65.0","subject":"S1C1628","sona":"41522","block":5,"time":"2021-09-17T21:18:17.493Z","response":"1st","certainty":"high","char":"A","transposition":2,"order":["shifted","swapped"],"probe_pitches":[2,7,14,7,10,12,7,14,5,10,7,10,14,5,12,2],"shifted_pitches":[2,7,14,7,10,12,7,15,5,10,7,10,14,5,12,2],"swapped_pitches":[2,7,14,7,10,12,7,5,14,10,7,10,14,5,12,2],"shift_direction":1,"question_num":51,"has_decoy":false},{"rt":1496.6000000238419,"stimulus":"[A] option 1, [L] option 2, [G] neither","key_press":76,"name":"choice","trial_type":"html-keyboard-response","trial_index":76,"time_elapsed":172893,"internal_node_id":"0.0-76.0","subject":"S1C1628","sona":"41522","block":5,"time":"2021-09-17T21:18:17.493Z","response":"2nd","certainty":"high","char":"L","transposition":-3,"order":["swapped","shifted"],"probe_pitches":[1,4,6,13,7,9,8,5,10,7,12,7,2,3,13,12],"shifted_pitches":[1,4,6,13,7,9,8,5,11,7,12,7,2,3,13,12],"swapped_pitches":[1,4,6,13,7,9,8,10,5,7,12,7,2,3,13,12],"shift_direction":1,"question_num":61,"has_decoy":false},{"rt":2592.600000023842,"stimulus":"[A] option 1, [L] option 2, [G] neither","key_press":76,"name":"choice","trial_type":"html-keyboard-response","trial_index":87,"time_elapsed":197780,"internal_node_id":"0.0-87.0","subject":"S1C1628","sona":"41522","block":5,"time":"2021-09-17T21:18:17.493Z","response":"2nd","certainty":"high","char":"L","transposition":2,"order":["shifted","swapped"],"probe_pitches":[2,1,6,2,4,11,7,2,8,13,8,11,8,7,13,11],"shifted_pitches":[2,1,6,2,4,11,7,3,8,13,8,11,8,7,13,11],"swapped_pitches":[2,1,6,2,4,11,7,8,2,13,8,11,8,7,13,11],"shift_direction":1,"question_num":71,"has_decoy":false},{"rt":5981.699999928474,"stimulus":"[A] option 1, [L] option 2, [G] neither","key_press":71,"name":"choice","trial_type":"html-keyboard-response","trial_index":98,"time_elapsed":226414,"internal_node_id":"0.0-98.0","subject":"S1C1628","sona":"41522","block":5,"time":"2021-09-17T21:18:17.493Z","response":"neither","certainty":"high","char":"G","transposition":-2,"order":["swapped","shifted"],"probe_pitches":[2,7,2,9,4,9,2,14,4,2,4,9,4,2,9,11],"shifted_pitches":[2,7,2,9,4,9,2,14,3,2,4,9,4,2,9,11],"swapped_pitches":[2,7,2,9,4,9,2,4,14,2,4,9,4,2,9,11],"shift_direction":-1,"question_num":81,"has_decoy":false},{"rt":3902.899999976158,"stimulus":"[A] option 1, [L] option 2, [G] neither","key_press":71,"name":"choice","trial_type":"html-keyboard-response","trial_index":109,"time_elapsed":253011,"internal_node_id":"0.0-109.0","subject":"S1C1628","sona":"41522","block":5,"time":"2021-09-17T21:18:17.493Z","response":"neither","certainty":"high","char":"G","transposition":-1,"order":["shifted","swapped"],"probe_pitches":[2,7,4,7,8,7,6,9,4,12,10,2,11,4,11,1],"shifted_pitches":[2,7,4,7,8,7,6,9,5,12,10,2,11,4,11,1],"swapped_pitches":[2,7,4,7,8,7,6,4,9,12,10,2,11,4,11,1],"shift_direction":1,"question_num":91,"has_decoy":false},{"rt":1000,"stimulus":"[A] option 1, [L] option 2, [G] neither","key_press":76,"name":"choice","trial_type":"html-keyboard-response","trial_index":120,"time_elapsed":279605,"internal_node_id":"0.0-120.0","subject":"S1C1628","sona":"41522","block":5,"time":"2021-09-17T21:18:17.493Z","response":"2nd","certainty":"high","char":"L","transposition":1,"order":["swapped","shifted"],"probe_pitches":[9,12,14,7,9,14,9,2,5,7,2,7,5,7,12,2],"shifted_pitches":[9,12,14,7,9,14,9,2,4,7,2,7,5,7,12,2],"swapped_pitches":[9,12,14,7,9,14,9,5,2,7,2,7,5,7,12,2],"shift_direction":-1,"question_num":101,"has_decoy":false},{"rt":6225.100000023842,"stimulus":"[A] option 1, [L] option 2, [G] neither","key_press":71,"name":"choice","trial_type":"html-keyboard-response","trial_index":131,"time_elapsed":308124,"internal_node_id":"0.0-131.0","subject":"S1C1628","sona":"41522","block":5,"time":"2021-09-17T21:18:17.493Z","response":"neither","certainty":"high","char":"G","transposition":-1,"order":["shifted","swapped"],"probe_pitches":[4,9,11,9,4,11,7,14,4,7,4,14,9,4,11,2],"shifted_pitches":[4,9,11,9,4,11,7,14,5,7,4,14,9,4,11,2],"swapped_pitches":[4,9,11,9,4,11,7,4,14,7,4,14,9,4,11,2],"shift_direction":1,"question_num":111,"has_decoy":false},{"rt":2180.0999999046326,"stimulus":"[A] option 1, [L] option 2, [G] neither","key_press":76,"name":"choice","trial_type":"html-keyboard-response","trial_index":142,"time_elapsed":333090,"internal_node_id":"0.0-142.0","subject":"S1C1628","sona":"41522","block":5,"time":"2021-09-17T21:18:17.493Z","response":"2nd","certainty":"high","char":"L","transposition":3,"order":["swapped","shifted"],"probe_pitches":[9,12,13,7,6,9,13,5,7,9,5,10,8,11,3,6],"shifted_pitches":[9,12,13,7,6,9,13,4,7,9,5,10,8,11,3,6],"swapped_pitches":[9,12,13,7,6,9,13,7,5,9,5,10,8,11,3,6],"shift_direction":-1,"question_num":121,"has_decoy":false},{"rt":2668.399999976158,"stimulus":"[A] option 1, [L] option 2, [G] neither","key_press":71,"name":"choice","trial_type":"html-keyboard-response","trial_index":153,"time_elapsed":358132,"internal_node_id":"0.0-153.0","subject":"S1C1628","sona":"41522","block":5,"time":"2021-09-17T21:18:17.493Z","response":"neither","certainty":"high","char":"G","transposition":-2,"order":["shifted","swapped"],"probe_pitches":[4,2,7,4,12,9,2,4,7,14,9,2,14,12,7,14],"shifted_pitches":[4,2,7,4,12,9,2,4,8,14,9,2,14,12,7,14],"swapped_pitches":[4,2,7,4,12,9,2,7,4,14,9,2,14,12,7,14],"shift_direction":1,"question_num":131,"has_decoy":false},{"rt":2353.3000000715256,"stimulus":"[A] option 1, [L] option 2, [G] neither","key_press":76,"name":"choice","trial_type":"html-keyboard-response","trial_index":164,"time_elapsed":382817,"internal_node_id":"0.0-164.0","subject":"S1C1628","sona":"41522","block":5,"time":"2021-09-17T21:18:17.493Z","response":"2nd","certainty":"high","char":"L","transposition":-3,"order":["swapped","shifted"],"probe_pitches":[2,6,9,6,9,4,2,14,4,9,4,11,6,11,6,4],"shifted_pitches":[2,6,9,6,9,4,2,13,4,9,4,11,6,11,6,4],"swapped_pitches":[2,6,9,6,9,4,2,4,14,9,4,11,6,11,6,4],"shift_direction":-1,"question_num":141,"has_decoy":false},{"rt":570.5,"stimulus":"[A] option 1, [L] option 2, [G] neither","key_press":71,"name":"choice","trial_type":"html-keyboard-response","trial_index":175,"time_elapsed":405854,"internal_node_id":"0.0-175.0","subject":"S1C1628","sona":"41522","block":5,"time":"2021-09-17T21:18:17.493Z","response":"neither","certainty":"high","char":"G","transposition":0,"order":["swapped","shifted"],"probe_pitches":[14,9,7,9,7,9,7,2,5,14,5,14,12,14,12,14],"shifted_pitches":[14,9,7,9,7,9,7,2,6,14,5,14,12,14,12,14],"swapped_pitches":[14,9,7,9,7,9,7,5,2,14,5,14,12,14,12,14],"shift_direction":1,"question_num":151,"has_decoy":false},{"rt":10289.299999952316,"stimulus":"[A] option 1, [L] option 2, [G] neither","key_press":71,"name":"choice","trial_type":"html-keyboard-response","trial_index":186,"time_elapsed":460668,"internal_node_id":"0.0-186.0","subject":"S1C1628","sona":"41522","block":5,"time":"2021-09-17T21:18:17.493Z","response":"neither","certainty":"high","char":"G","transposition":-1,"order":["swapped","shifted"],"probe_pitches":[1,7,9,5,3,9,5,9,11,3,2,8,3,12,3,8],"shifted_pitches":[1,7,9,5,3,9,5,10,11,3,2,8,3,12,3,8],"swapped_pitches":[1,7,9,5,3,9,5,11,9,3,2,8,3,12,3,8],"shift_direction":1,"question_num":161,"has_decoy":false},{"rt":1022.1000000238419,"stimulus":"[A] option 1, [L] option 2, [G] neither","key_press":76,"name":"choice","trial_type":"html-keyboard-response","trial_index":197,"time_elapsed":484524,"internal_node_id":"0.0-197.0","subject":"S1C1628","sona":"41522","block":5,"time":"2021-09-17T21:18:17.493Z","response":"2nd","certainty":"high","char":"L","transposition":1,"order":["shifted","swapped"],"probe_pitches":[2,8,9,11,5,13,4,2,8,4,3,5,8,6,13,4],"shifted_pitches":[2,8,9,11,5,13,4,2,7,4,3,5,8,6,13,4],"swapped_pitches":[2,8,9,11,5,13,4,8,2,4,3,5,8,6,13,4],"shift_direction":-1,"question_num":171,"has_decoy":false},{"rt":3714.600000023842,"stimulus":"[A] option 1, [L] option 2, [G] neither","key_press":76,"name":"choice","trial_type":"html-keyboard-response","trial_index":208,"time_elapsed":513961,"internal_node_id":"0.0-208.0","subject":"S1C1628","sona":"41522","block":5,"time":"2021-09-17T21:18:17.493Z","response":"2nd","certainty":"high","char":"L","transposition":-3,"order":["shifted","swapped"],"probe_pitches":[10,5,12,5,12,7,10,2,7,14,7,14,2,5,12,5],"shifted_pitches":[10,5,12,5,12,7,10,1,7,14,7,14,2,5,12,5],"swapped_pitches":[10,5,12,5,12,7,10,7,2,14,7,14,2,5,12,5],"shift_direction":-1,"question_num":181,"has_decoy":false},{"rt":1554.3000000715256,"stimulus":"[A] option 1, [L] option 2, [G] neither","key_press":65,"name":"choice","trial_type":"html-keyboard-response","trial_index":219,"time_elapsed":537815,"internal_node_id":"0.0-219.0","subject":"S1C1628","sona":"41522","block":5,"time":"2021-09-17T21:18:17.493Z","response":"1st","certainty":"high","char":"A","transposition":0,"order":["shifted","swapped"],"probe_pitches":[4,6,2,8,2,3,8,12,10,8,12,13,5,10,4,6],"shifted_pitches":[4,6,2,8,2,3,8,12,9,8,12,13,5,10,4,6],"swapped_pitches":[4,6,2,8,2,3,8,10,12,8,12,13,5,10,4,6],"shift_direction":-1,"question_num":191,"has_decoy":false}]