[{"rt":511,"stimulus":"[A] option 1, [L] option 2, [G] neither","key_press":76,"name":"choice","trial_type":"html-keyboard-response","trial_index":10,"time_elapsed":20504,"internal_node_id":"0.0-10.0","subject":"S1C1218","sona":"41620","block":4,"time":"2021-09-16T01:23:46.484Z","response":"2nd","certainty":"high","char":"L","transposition":1,"order":["swapped","shifted"],"probe_pitches":[4,9,8,9,4,-2,5,8,2,-1,8,1],"shifted_pitches":[4,9,8,9,4,-2,6,8,2,-1,8,1],"swapped_pitches":[4,9,8,9,4,5,-2,8,2,-1,8,1],"shift_direction":1,"question_num":1,"has_decoy":false},{"rt":1083.8999999761581,"stimulus":"[A] option 1, [L] option 2, [G] neither","key_press":76,"name":"choice","trial_type":"html-keyboard-response","trial_index":21,"time_elapsed":39899,"internal_node_id":"0.0-21.0","subject":"S1C1218","sona":"41620","block":4,"time":"2021-09-16T01:23:46.484Z","response":"2nd","certainty":"high","char":"L","transposition":3,"order":["swapped","shifted"],"probe_pitches":[1,-2,3,-2,1,5,10,1,5,8,10,1],"shifted_pitches":[1,-2,3,-2,1,5,11,1,5,8,10,1],"swapped_pitches":[1,-2,3,-2,1,10,5,1,5,8,10,1],"shift_direction":1,"question_num":11,"has_decoy":false},{"rt":2597,"stimulus":"[A] option 1, [L] option 2, [G] neither","key_press":65,"name":"choice","trial_type":"html-keyboard-response","trial_index":32,"time_elapsed":60959,"internal_node_id":"0.0-32.0","subject":"S1C1218","sona":"41620","block":4,"time":"2021-09-16T01:23:46.484Z","response":"1st","certainty":"high","char":"A","transposition":-1,"order":["shifted","swapped"],"probe_pitches":[7,1,2,0,-1,-2,9,6,7,2,1,4],"shifted_pitches":[7,1,2,0,-1,-2,8,6,7,2,1,4],"swapped_pitches":[7,1,2,0,-1,9,-2,6,7,2,1,4],"shift_direction":-1,"question_num":21,"has_decoy":false},{"rt":400.5999999642372,"stimulus":"[A] option 1, [L] option 2, [G] neither","key_press":76,"name":"choice","trial_type":"html-keyboard-response","trial_index":43,"time_elapsed":110040,"internal_node_id":"0.0-43.0","subject":"S1C1218","sona":"41620","block":4,"time":"2021-09-16T01:23:46.484Z","response":"2nd","certainty":"high","char":"L","transposition":-1,"order":["swapped","shifted"],"probe_pitches":[8,10,8,3,10,8,0,5,3,5,-2,8],"shifted_pitches":[8,10,8,3,10,8,-1,5,3,5,-2,8],"swapped_pitches":[8,10,8,3,10,0,8,5,3,5,-2,8],"shift_direction":-1,"question_num":31,"has_decoy":false},{"rt":3620.199999988079,"stimulus":"[A] option 1, [L] option 2, [G] neither","key_press":65,"name":"choice","trial_type":"html-keyboard-response","trial_index":54,"time_elapsed":137782,"internal_node_id":"0.0-54.0","subject":"S1C1218","sona":"41620","block":4,"time":"2021-09-16T01:23:46.484Z","response":"1st","certainty":"high","char":"A","transposition":-2,"order":["swapped","shifted"],"probe_pitches":[6,4,0,1,7,4,5,-2,2,4,9,-2],"shifted_pitches":[6,4,0,1,7,3,5,-2,2,4,9,-2],"swapped_pitches":[6,4,0,1,7,5,4,-2,2,4,9,-2],"shift_direction":-1,"question_num":41,"has_decoy":false},{"rt":4778.5,"stimulus":"[A] option 1, [L] option 2, [G] neither","key_press":76,"name":"choice","trial_type":"html-keyboard-response","trial_index":65,"time_elapsed":166429,"internal_node_id":"0.0-65.0","subject":"S1C1218","sona":"41620","block":4,"time":"2021-09-16T01:23:46.484Z","response":"2nd","certainty":"high","char":"L","transposition":-3,"order":["shifted","swapped"],"probe_pitches":[8,6,10,5,3,0,6,7,9,-2,4,0],"shifted_pitches":[8,6,10,5,3,1,6,7,9,-2,4,0],"swapped_pitches":[8,6,10,5,3,6,0,7,9,-2,4,0],"shift_direction":1,"question_num":51,"has_decoy":false},{"rt":375.60000002384186,"stimulus":"[A] option 1, [L] option 2, [G] neither","key_press":65,"name":"choice","trial_type":"html-keyboard-response","trial_index":76,"time_elapsed":187995,"internal_node_id":"0.0-76.0","subject":"S1C1218","sona":"41620","block":4,"time":"2021-09-16T01:23:46.484Z","response":"1st","certainty":"high","char":"A","transposition":-2,"order":["swapped","shifted"],"probe_pitches":[-2,3,8,10,3,-2,8,6,3,8,10,1],"shifted_pitches":[-2,3,8,10,3,-1,8,6,3,8,10,1],"swapped_pitches":[-2,3,8,10,3,8,-2,6,3,8,10,1],"shift_direction":1,"question_num":61,"has_decoy":false},{"rt":1258.9000000357628,"stimulus":"[A] option 1, [L] option 2, [G] neither","key_press":65,"name":"choice","trial_type":"html-keyboard-response","trial_index":87,"time_elapsed":208399,"internal_node_id":"0.0-87.0","subject":"S1C1218","sona":"41620","block":4,"time":"2021-09-16T01:23:46.484Z","response":"1st","certainty":"high","char":"A","transposition":-2,"order":["shifted","swapped"],"probe_pitches":[3,7,5,0,7,5,3,10,0,-2,0,7],"shifted_pitches":[3,7,5,0,7,4,3,10,0,-2,0,7],"swapped_pitches":[3,7,5,0,7,3,5,10,0,-2,0,7],"shift_direction":-1,"question_num":71,"has_decoy":false},{"rt":12042.299999952316,"stimulus":"[A] option 1, [L] option 2, [G] neither","key_press":76,"name":"choice","trial_type":"html-keyboard-response","trial_index":98,"time_elapsed":239284,"internal_node_id":"0.0-98.0","subject":"S1C1218","sona":"41620","block":4,"time":"2021-09-16T01:23:46.484Z","response":"2nd","certainty":"high","char":"L","transposition":2,"order":["shifted","swapped"],"probe_pitches":[-2,1,8,1,3,6,-2,3,1,6,10,1],"shifted_pitches":[-2,1,8,1,3,5,-2,3,1,6,10,1],"swapped_pitches":[-2,1,8,1,3,-2,6,3,1,6,10,1],"shift_direction":-1,"question_num":81,"has_decoy":false},{"rt":4087.800000011921,"stimulus":"[A] option 1, [L] option 2, [G] neither","key_press":65,"name":"choice","trial_type":"html-keyboard-response","trial_index":109,"time_elapsed":261415,"internal_node_id":"0.0-109.0","subject":"S1C1218","sona":"41620","block":4,"time":"2021-09-16T01:23:46.484Z","response":"1st","certainty":"high","char":"A","transposition":-1,"order":["shifted","swapped"],"probe_pitches":[3,0,3,0,5,10,8,5,3,10,0,3],"shifted_pitches":[3,0,3,0,5,10,9,5,3,10,0,3],"swapped_pitches":[3,0,3,0,5,8,10,5,3,10,0,3],"shift_direction":1,"question_num":91,"has_decoy":false},{"rt":422.80000001192093,"stimulus":"[A] option 1, [L] option 2, [G] neither","key_press":76,"name":"choice","trial_type":"html-keyboard-response","trial_index":120,"time_elapsed":281148,"internal_node_id":"0.0-120.0","subject":"S1C1218","sona":"41620","block":4,"time":"2021-09-16T01:23:46.484Z","response":"2nd","certainty":"high","char":"L","transposition":0,"order":["swapped","shifted"],"probe_pitches":[6,1,6,1,10,4,8,-2,9,4,-1,7],"shifted_pitches":[6,1,6,1,10,5,8,-2,9,4,-1,7],"swapped_pitches":[6,1,6,1,10,8,4,-2,9,4,-1,7],"shift_direction":1,"question_num":101,"has_decoy":false},{"rt":3413.5,"stimulus":"[A] option 1, [L] option 2, [G] neither","key_press":76,"name":"choice","trial_type":"html-keyboard-response","trial_index":131,"time_elapsed":303120,"internal_node_id":"0.0-131.0","subject":"S1C1218","sona":"41620","block":4,"time":"2021-09-16T01:23:46.484Z","response":"2nd","certainty":"high","char":"L","transposition":-2,"order":["shifted","swapped"],"probe_pitches":[-2,-1,-2,0,9,0,3,9,2,-1,-2,0],"shifted_pitches":[-2,-1,-2,0,9,0,4,9,2,-1,-2,0],"swapped_pitches":[-2,-1,-2,0,9,3,0,9,2,-1,-2,0],"shift_direction":1,"question_num":111,"has_decoy":false},{"rt":4094,"stimulus":"[A] option 1, [L] option 2, [G] neither","key_press":65,"name":"choice","trial_type":"html-keyboard-response","trial_index":142,"time_elapsed":325513,"internal_node_id":"0.0-142.0","subject":"S1C1218","sona":"41620","block":4,"time":"2021-09-16T01:23:46.484Z","response":"1st","certainty":"high","char":"A","transposition":-3,"order":["shifted","swapped"],"probe_pitches":[6,5,3,7,8,6,3,4,-1,7,3,4],"shifted_pitches":[6,5,3,7,8,6,2,4,-1,7,3,4],"swapped_pitches":[6,5,3,7,8,3,6,4,-1,7,3,4],"shift_direction":-1,"question_num":121,"has_decoy":false},{"rt":898.8000000119209,"stimulus":"[A] option 1, [L] option 2, [G] neither","key_press":65,"name":"choice","trial_type":"html-keyboard-response","trial_index":153,"time_elapsed":346121,"internal_node_id":"0.0-153.0","subject":"S1C1218","sona":"41620","block":4,"time":"2021-09-16T01:23:46.484Z","response":"1st","certainty":"high","char":"A","transposition":3,"order":["swapped","shifted"],"probe_pitches":[-1,4,-2,-1,7,10,2,-1,-2,5,7,1],"shifted_pitches":[-1,4,-2,-1,7,9,2,-1,-2,5,7,1],"swapped_pitches":[-1,4,-2,-1,7,2,10,-1,-2,5,7,1],"shift_direction":-1,"question_num":131,"has_decoy":false},{"rt":516.1999999880791,"stimulus":"[A] option 1, [L] option 2, [G] neither","key_press":76,"name":"choice","trial_type":"html-keyboard-response","trial_index":164,"time_elapsed":367403,"internal_node_id":"0.0-164.0","subject":"S1C1218","sona":"41620","block":4,"time":"2021-09-16T01:23:46.484Z","response":"2nd","certainty":"high","char":"L","transposition":1,"order":["swapped","shifted"],"probe_pitches":[1,5,10,5,8,-2,3,10,8,5,3,8],"shifted_pitches":[1,5,10,5,8,-2,4,10,8,5,3,8],"swapped_pitches":[1,5,10,5,8,3,-2,10,8,5,3,8],"shift_direction":1,"question_num":141,"has_decoy":false},{"rt":1051.1000000238419,"stimulus":"[A] option 1, [L] option 2, [G] neither","key_press":65,"name":"choice","trial_type":"html-keyboard-response","trial_index":175,"time_elapsed":386860,"internal_node_id":"0.0-175.0","subject":"S1C1218","sona":"41620","block":4,"time":"2021-09-16T01:23:46.484Z","response":"1st","certainty":"high","char":"A","transposition":-3,"order":["swapped","shifted"],"probe_pitches":[-2,0,3,10,5,0,3,10,7,5,0,10],"shifted_pitches":[-2,0,3,10,5,-1,3,10,7,5,0,10],"swapped_pitches":[-2,0,3,10,5,3,0,10,7,5,0,10],"shift_direction":-1,"question_num":151,"has_decoy":false},{"rt":505.39999997615814,"stimulus":"[A] option 1, [L] option 2, [G] neither","key_press":65,"name":"choice","trial_type":"html-keyboard-response","trial_index":186,"time_elapsed":407617,"internal_node_id":"0.0-186.0","subject":"S1C1218","sona":"41620","block":4,"time":"2021-09-16T01:23:46.484Z","response":"1st","certainty":"high","char":"A","transposition":-1,"order":["swapped","shifted"],"probe_pitches":[-1,5,3,10,9,5,8,9,3,10,3,5],"shifted_pitches":[-1,5,3,10,9,5,7,9,3,10,3,5],"swapped_pitches":[-1,5,3,10,9,8,5,9,3,10,3,5],"shift_direction":-1,"question_num":161,"has_decoy":false},{"rt":538.8000000119209,"stimulus":"[A] option 1, [L] option 2, [G] neither","key_press":65,"name":"choice","trial_type":"html-keyboard-response","trial_index":197,"time_elapsed":426584,"internal_node_id":"0.0-197.0","subject":"S1C1218","sona":"41620","block":4,"time":"2021-09-16T01:23:46.484Z","response":"1st","certainty":"high","char":"A","transposition":2,"order":["shifted","swapped"],"probe_pitches":[10,7,4,8,6,-1,1,4,1,6,-2,7],"shifted_pitches":[10,7,4,8,6,0,1,4,1,6,-2,7],"swapped_pitches":[10,7,4,8,6,1,-1,4,1,6,-2,7],"shift_direction":1,"question_num":171,"has_decoy":false},{"rt":3536.100000023842,"stimulus":"[A] option 1, [L] option 2, [G] neither","key_press":76,"name":"choice","trial_type":"html-keyboard-response","trial_index":208,"time_elapsed":448558,"internal_node_id":"0.0-208.0","subject":"S1C1218","sona":"41620","block":4,"time":"2021-09-16T01:23:46.484Z","response":"2nd","certainty":"high","char":"L","transposition":-3,"order":["shifted","swapped"],"probe_pitches":[-2,2,7,2,-2,5,0,7,10,5,0,7],"shifted_pitches":[-2,2,7,2,-2,6,0,7,10,5,0,7],"swapped_pitches":[-2,2,7,2,-2,0,5,7,10,5,0,7],"shift_direction":1,"question_num":181,"has_decoy":false},{"rt":8615.599999964237,"stimulus":"[A] option 1, [L] option 2, [G] neither","key_press":76,"name":"choice","trial_type":"html-keyboard-response","trial_index":219,"time_elapsed":480936,"internal_node_id":"0.0-219.0","subject":"S1C1218","sona":"41620","block":4,"time":"2021-09-16T01:23:46.484Z","response":"2nd","certainty":"high","char":"L","transposition":0,"order":["shifted","swapped"],"probe_pitches":[5,2,5,0,7,2,-2,5,0,2,5,-2],"shifted_pitches":[5,2,5,0,7,2,-3,5,0,2,5,-2],"swapped_pitches":[5,2,5,0,7,-2,2,5,0,2,5,-2],"shift_direction":-1,"question_num":191,"has_decoy":false}]