[{"rt":4665.099999964237,"stimulus":"[A] option 1, [L] option 2, [G] neither","key_press":71,"name":"choice","trial_type":"html-keyboard-response","trial_index":10,"time_elapsed":23703,"internal_node_id":"0.0-10.0","subject":"S1C1218","sona":"41620","block":5,"time":"2021-09-16T01:31:51.511Z","response":"neither","certainty":"high","char":"G","transposition":-2,"order":["shifted","swapped"],"probe_pitches":[11,5,4,9,8,6,4,11,13,12,6,2],"shifted_pitches":[11,5,4,9,8,7,4,11,13,12,6,2],"swapped_pitches":[11,5,4,9,8,4,6,11,13,12,6,2],"shift_direction":1,"question_num":1,"has_decoy":false},{"rt":992.3000000119209,"stimulus":"[A] option 1, [L] option 2, [G] neither","key_press":76,"name":"choice","trial_type":"html-keyboard-response","trial_index":21,"time_elapsed":43840,"internal_node_id":"0.0-21.0","subject":"S1C1218","sona":"41620","block":5,"time":"2021-09-16T01:31:51.511Z","response":"2nd","certainty":"high","char":"L","transposition":1,"order":["shifted","swapped"],"probe_pitches":[10,8,10,13,11,13,2,10,8,5,9,3],"shifted_pitches":[10,8,10,13,11,12,2,10,8,5,9,3],"swapped_pitches":[10,8,10,13,11,2,13,10,8,5,9,3],"shift_direction":-1,"question_num":11,"has_decoy":false},{"rt":496,"stimulus":"[A] option 1, [L] option 2, [G] neither","key_press":65,"name":"choice","trial_type":"html-keyboard-response","trial_index":32,"time_elapsed":62968,"internal_node_id":"0.0-32.0","subject":"S1C1218","sona":"41620","block":5,"time":"2021-09-16T01:31:51.511Z","response":"1st","certainty":"high","char":"A","transposition":-3,"order":["swapped","shifted"],"probe_pitches":[5,9,5,3,9,3,7,12,9,11,7,4],"shifted_pitches":[5,9,5,3,9,3,6,12,9,11,7,4],"swapped_pitches":[5,9,5,3,9,7,3,12,9,11,7,4],"shift_direction":-1,"question_num":21,"has_decoy":false},{"rt":15298.600000023842,"stimulus":"[A] option 1, [L] option 2, [G] neither","key_press":76,"name":"choice","trial_type":"html-keyboard-response","trial_index":43,"time_elapsed":96555,"internal_node_id":"0.0-43.0","subject":"S1C1218","sona":"41620","block":5,"time":"2021-09-16T01:31:51.511Z","response":"2nd","certainty":"high","char":"L","transposition":-2,"order":["swapped","shifted"],"probe_pitches":[6,2,4,2,4,-3,-1,4,-3,-1,2,4],"shifted_pitches":[6,2,4,2,4,-3,0,4,-3,-1,2,4],"swapped_pitches":[6,2,4,2,4,-1,-3,4,-3,-1,2,4],"shift_direction":1,"question_num":31,"has_decoy":false},{"rt":2077.199999988079,"stimulus":"[A] option 1, [L] option 2, [G] neither","key_press":65,"name":"choice","trial_type":"html-keyboard-response","trial_index":54,"time_elapsed":125334,"internal_node_id":"0.0-54.0","subject":"S1C1218","sona":"41620","block":5,"time":"2021-09-16T01:31:51.511Z","response":"1st","certainty":"high","char":"A","transposition":2,"order":["shifted","swapped"],"probe_pitches":[-3,1,4,9,4,-1,6,9,1,-3,4,-3],"shifted_pitches":[-3,1,4,9,4,-2,6,9,1,-3,4,-3],"swapped_pitches":[-3,1,4,9,4,6,-1,9,1,-3,4,-3],"shift_direction":-1,"question_num":41,"has_decoy":false},{"rt":899.5,"stimulus":"[A] option 1, [L] option 2, [G] neither","key_press":65,"name":"choice","trial_type":"html-keyboard-response","trial_index":65,"time_elapsed":144517,"internal_node_id":"0.0-65.0","subject":"S1C1218","sona":"41620","block":5,"time":"2021-09-16T01:31:51.511Z","response":"1st","certainty":"high","char":"A","transposition":0,"order":["swapped","shifted"],"probe_pitches":[0,-3,2,0,2,5,7,0,5,2,5,2],"shifted_pitches":[0,-3,2,0,2,4,7,0,5,2,5,2],"swapped_pitches":[0,-3,2,0,2,7,5,0,5,2,5,2],"shift_direction":-1,"question_num":51,"has_decoy":false},{"rt":2683,"stimulus":"[A] option 1, [L] option 2, [G] neither","key_press":65,"name":"choice","trial_type":"html-keyboard-response","trial_index":76,"time_elapsed":165725,"internal_node_id":"0.0-76.0","subject":"S1C1218","sona":"41620","block":5,"time":"2021-09-16T01:31:51.511Z","response":"1st","certainty":"high","char":"A","transposition":2,"order":["shifted","swapped"],"probe_pitches":[11,7,14,7,11,5,8,11,4,12,5,8],"shifted_pitches":[11,7,14,7,11,5,9,11,4,12,5,8],"swapped_pitches":[11,7,14,7,11,8,5,11,4,12,5,8],"shift_direction":1,"question_num":61,"has_decoy":false},{"rt":15634.600000023842,"stimulus":"[A] option 1, [L] option 2, [G] neither","key_press":76,"name":"choice","trial_type":"html-keyboard-response","trial_index":87,"time_elapsed":200013,"internal_node_id":"0.0-87.0","subject":"S1C1218","sona":"41620","block":5,"time":"2021-09-16T01:31:51.511Z","response":"2nd","certainty":"high","char":"L","transposition":3,"order":["swapped","shifted"],"probe_pitches":[2,4,-1,2,4,2,9,4,7,9,4,-3],"shifted_pitches":[2,4,-1,2,4,2,10,4,7,9,4,-3],"swapped_pitches":[2,4,-1,2,4,9,2,4,7,9,4,-3],"shift_direction":1,"question_num":71,"has_decoy":false},{"rt":7718.099999964237,"stimulus":"[A] option 1, [L] option 2, [G] neither","key_press":65,"name":"choice","trial_type":"html-keyboard-response","trial_index":98,"time_elapsed":230472,"internal_node_id":"0.0-98.0","subject":"S1C1218","sona":"41620","block":5,"time":"2021-09-16T01:31:51.511Z","response":"1st","certainty":"high","char":"A","transposition":1,"order":["shifted","swapped"],"probe_pitches":[-3,-1,2,-1,4,-1,6,9,-1,4,6,2],"shifted_pitches":[-3,-1,2,-1,4,-2,6,9,-1,4,6,2],"swapped_pitches":[-3,-1,2,-1,4,6,-1,9,-1,4,6,2],"shift_direction":-1,"question_num":81,"has_decoy":false},{"rt":608.8999999761581,"stimulus":"[A] option 1, [L] option 2, [G] neither","key_press":65,"name":"choice","trial_type":"html-keyboard-response","trial_index":109,"time_elapsed":251003,"internal_node_id":"0.0-109.0","subject":"S1C1218","sona":"41620","block":5,"time":"2021-09-16T01:31:51.511Z","response":"1st","certainty":"high","char":"A","transposition":-1,"order":["shifted","swapped"],"probe_pitches":[9,4,9,4,-1,9,2,7,9,-3,9,-1],"shifted_pitches":[9,4,9,4,-1,9,1,7,9,-3,9,-1],"swapped_pitches":[9,4,9,4,-1,2,9,7,9,-3,9,-1],"shift_direction":-1,"question_num":91,"has_decoy":false},{"rt":916.1000000238419,"stimulus":"[A] option 1, [L] option 2, [G] neither","key_press":65,"name":"choice","trial_type":"html-keyboard-response","trial_index":120,"time_elapsed":270375,"internal_node_id":"0.0-120.0","subject":"S1C1218","sona":"41620","block":5,"time":"2021-09-16T01:31:51.511Z","response":"1st","certainty":"high","char":"A","transposition":-2,"order":["swapped","shifted"],"probe_pitches":[5,3,5,7,9,6,7,4,2,14,3,10],"shifted_pitches":[5,3,5,7,9,6,8,4,2,14,3,10],"swapped_pitches":[5,3,5,7,9,7,6,4,2,14,3,10],"shift_direction":1,"question_num":101,"has_decoy":false},{"rt":10854.699999988079,"stimulus":"[A] option 1, [L] option 2, [G] neither","key_press":76,"name":"choice","trial_type":"html-keyboard-response","trial_index":131,"time_elapsed":304874,"internal_node_id":"0.0-131.0","subject":"S1C1218","sona":"41620","block":5,"time":"2021-09-16T01:31:51.511Z","response":"2nd","certainty":"high","char":"L","transposition":-3,"order":["shifted","swapped"],"probe_pitches":[4,2,0,4,-3,2,7,-3,9,4,0,4],"shifted_pitches":[4,2,0,4,-3,1,7,-3,9,4,0,4],"swapped_pitches":[4,2,0,4,-3,7,2,-3,9,4,0,4],"shift_direction":-1,"question_num":111,"has_decoy":false},{"rt":1957.0999999642372,"stimulus":"[A] option 1, [L] option 2, [G] neither","key_press":65,"name":"choice","trial_type":"html-keyboard-response","trial_index":142,"time_elapsed":324856,"internal_node_id":"0.0-142.0","subject":"S1C1218","sona":"41620","block":5,"time":"2021-09-16T01:31:51.511Z","response":"1st","certainty":"high","char":"A","transposition":0,"order":["swapped","shifted"],"probe_pitches":[4,8,4,3,7,4,9,10,11,3,11,13],"shifted_pitches":[4,8,4,3,7,5,9,10,11,3,11,13],"swapped_pitches":[4,8,4,3,7,9,4,10,11,3,11,13],"shift_direction":1,"question_num":121,"has_decoy":false},{"rt":401.30000001192093,"stimulus":"[A] option 1, [L] option 2, [G] neither","key_press":65,"name":"choice","trial_type":"html-keyboard-response","trial_index":153,"time_elapsed":351485,"internal_node_id":"0.0-153.0","subject":"S1C1218","sona":"41620","block":5,"time":"2021-09-16T01:31:51.511Z","response":"1st","certainty":"high","char":"A","transposition":-1,"order":["shifted","swapped"],"probe_pitches":[6,1,6,-1,-3,6,-1,9,-1,6,1,4],"shifted_pitches":[6,1,6,-1,-3,6,0,9,-1,6,1,4],"swapped_pitches":[6,1,6,-1,-3,-1,6,9,-1,6,1,4],"shift_direction":1,"question_num":131,"has_decoy":false},{"rt":2302.600000023842,"stimulus":"[A] option 1, [L] option 2, [G] neither","key_press":65,"name":"choice","trial_type":"html-keyboard-response","trial_index":164,"time_elapsed":378371,"internal_node_id":"0.0-164.0","subject":"S1C1218","sona":"41620","block":5,"time":"2021-09-16T01:31:51.511Z","response":"1st","certainty":"high","char":"A","transposition":-2,"order":["swapped","shifted"],"probe_pitches":[5,2,7,0,2,0,9,2,0,-3,0,-3],"shifted_pitches":[5,2,7,0,2,0,10,2,0,-3,0,-3],"swapped_pitches":[5,2,7,0,2,9,0,2,0,-3,0,-3],"shift_direction":1,"question_num":141,"has_decoy":false},{"rt":1486.800000011921,"stimulus":"[A] option 1, [L] option 2, [G] neither","key_press":65,"name":"choice","trial_type":"html-keyboard-response","trial_index":175,"time_elapsed":398419,"internal_node_id":"0.0-175.0","subject":"S1C1218","sona":"41620","block":5,"time":"2021-09-16T01:31:51.511Z","response":"1st","certainty":"high","char":"A","transposition":3,"order":["swapped","shifted"],"probe_pitches":[12,8,12,5,3,12,14,2,10,9,8,4],"shifted_pitches":[12,8,12,5,3,12,13,2,10,9,8,4],"swapped_pitches":[12,8,12,5,3,14,12,2,10,9,8,4],"shift_direction":-1,"question_num":151,"has_decoy":false},{"rt":468.80000001192093,"stimulus":"[A] option 1, [L] option 2, [G] neither","key_press":76,"name":"choice","trial_type":"html-keyboard-response","trial_index":186,"time_elapsed":419857,"internal_node_id":"0.0-186.0","subject":"S1C1218","sona":"41620","block":5,"time":"2021-09-16T01:31:51.511Z","response":"2nd","certainty":"high","char":"L","transposition":-3,"order":["shifted","swapped"],"probe_pitches":[2,6,9,14,7,12,5,8,2,13,8,11],"shifted_pitches":[2,6,9,14,7,12,4,8,2,13,8,11],"swapped_pitches":[2,6,9,14,7,5,12,8,2,13,8,11],"shift_direction":-1,"question_num":161,"has_decoy":false},{"rt":743.2999999523163,"stimulus":"[A] option 1, [L] option 2, [G] neither","key_press":65,"name":"choice","trial_type":"html-keyboard-response","trial_index":197,"time_elapsed":439924,"internal_node_id":"0.0-197.0","subject":"S1C1218","sona":"41620","block":5,"time":"2021-09-16T01:31:51.511Z","response":"1st","certainty":"high","char":"A","transposition":-3,"order":["swapped","shifted"],"probe_pitches":[9,4,-3,2,4,9,2,-3,7,9,0,4],"shifted_pitches":[9,4,-3,2,4,10,2,-3,7,9,0,4],"swapped_pitches":[9,4,-3,2,4,2,9,-3,7,9,0,4],"shift_direction":1,"question_num":171,"has_decoy":false},{"rt":4592.899999976158,"stimulus":"[A] option 1, [L] option 2, [G] neither","key_press":65,"name":"choice","trial_type":"html-keyboard-response","trial_index":208,"time_elapsed":462694,"internal_node_id":"0.0-208.0","subject":"S1C1218","sona":"41620","block":5,"time":"2021-09-16T01:31:51.511Z","response":"1st","certainty":"high","char":"A","transposition":-1,"order":["shifted","swapped"],"probe_pitches":[10,12,5,6,5,10,7,14,12,3,6,12],"shifted_pitches":[10,12,5,6,5,11,7,14,12,3,6,12],"swapped_pitches":[10,12,5,6,5,7,10,14,12,3,6,12],"shift_direction":1,"question_num":181,"has_decoy":false},{"rt":523,"stimulus":"[A] option 1, [L] option 2, [G] neither","key_press":76,"name":"choice","trial_type":"html-keyboard-response","trial_index":219,"time_elapsed":481664,"internal_node_id":"0.0-219.0","subject":"S1C1218","sona":"41620","block":5,"time":"2021-09-16T01:31:51.511Z","response":"2nd","certainty":"high","char":"L","transposition":-1,"order":["swapped","shifted"],"probe_pitches":[3,5,3,11,2,11,4,6,12,8,12,14],"shifted_pitches":[3,5,3,11,2,10,4,6,12,8,12,14],"swapped_pitches":[3,5,3,11,2,4,11,6,12,8,12,14],"shift_direction":-1,"question_num":191,"has_decoy":false}]