[{"rt":1400.5,"stimulus":"[A] option 1, [L] option 2, [G] neither","key_press":76,"name":"choice","trial_type":"html-keyboard-response","trial_index":10,"time_elapsed":25932,"internal_node_id":"0.0-10.0","subject":"S1C1218","sona":"41620","block":6,"time":"2021-09-16T01:38:49.093Z","response":"2nd","certainty":"high","char":"L","transposition":-3,"order":["swapped","shifted"],"probe_pitches":[2,0,5,10,7,12,2,5,0,2,7,2],"shifted_pitches":[2,0,5,10,7,12,1,5,0,2,7,2],"swapped_pitches":[2,0,5,10,7,2,12,5,0,2,7,2],"shift_direction":-1,"question_num":1,"has_decoy":false},{"rt":2471.2999999523163,"stimulus":"[A] option 1, [L] option 2, [G] neither","key_press":65,"name":"choice","trial_type":"html-keyboard-response","trial_index":21,"time_elapsed":49819,"internal_node_id":"0.0-21.0","subject":"S1C1218","sona":"41620","block":6,"time":"2021-09-16T01:38:49.093Z","response":"1st","certainty":"high","char":"A","transposition":-1,"order":["swapped","shifted"],"probe_pitches":[4,9,7,9,7,2,4,0,9,0,12,0],"shifted_pitches":[4,9,7,9,7,2,5,0,9,0,12,0],"swapped_pitches":[4,9,7,9,7,4,2,0,9,0,12,0],"shift_direction":1,"question_num":11,"has_decoy":false},{"rt":1335.199999988079,"stimulus":"[A] option 1, [L] option 2, [G] neither","key_press":65,"name":"choice","trial_type":"html-keyboard-response","trial_index":32,"time_elapsed":69515,"internal_node_id":"0.0-32.0","subject":"S1C1218","sona":"41620","block":6,"time":"2021-09-16T01:38:49.093Z","response":"1st","certainty":"high","char":"A","transposition":1,"order":["shifted","swapped"],"probe_pitches":[10,8,5,3,12,10,8,12,8,10,3,5],"shifted_pitches":[10,8,5,3,12,9,8,12,8,10,3,5],"swapped_pitches":[10,8,5,3,12,8,10,12,8,10,3,5],"shift_direction":-1,"question_num":21,"has_decoy":false},{"rt":2302.5,"stimulus":"[A] option 1, [L] option 2, [G] neither","key_press":76,"name":"choice","trial_type":"html-keyboard-response","trial_index":43,"time_elapsed":90379,"internal_node_id":"0.0-43.0","subject":"S1C1218","sona":"41620","block":6,"time":"2021-09-16T01:38:49.093Z","response":"2nd","certainty":"high","char":"L","transposition":-3,"order":["shifted","swapped"],"probe_pitches":[12,7,0,5,7,0,3,7,0,3,10,3],"shifted_pitches":[12,7,0,5,7,-1,3,7,0,3,10,3],"swapped_pitches":[12,7,0,5,7,3,0,7,0,3,10,3],"shift_direction":-1,"question_num":31,"has_decoy":false},{"rt":1979.0999999642372,"stimulus":"[A] option 1, [L] option 2, [G] neither","key_press":76,"name":"choice","trial_type":"html-keyboard-response","trial_index":54,"time_elapsed":111207,"internal_node_id":"0.0-54.0","subject":"S1C1218","sona":"41620","block":6,"time":"2021-09-16T01:38:49.093Z","response":"2nd","certainty":"high","char":"L","transposition":-1,"order":["swapped","shifted"],"probe_pitches":[4,7,5,10,3,4,9,-1,0,1,7,1],"shifted_pitches":[4,7,5,10,3,4,8,-1,0,1,7,1],"swapped_pitches":[4,7,5,10,3,9,4,-1,0,1,7,1],"shift_direction":-1,"question_num":41,"has_decoy":false},{"rt":498.89999997615814,"stimulus":"[A] option 1, [L] option 2, [G] neither","key_press":76,"name":"choice","trial_type":"html-keyboard-response","trial_index":65,"time_elapsed":129991,"internal_node_id":"0.0-65.0","subject":"S1C1218","sona":"41620","block":6,"time":"2021-09-16T01:38:49.093Z","response":"2nd","certainty":"high","char":"L","transposition":-2,"order":["swapped","shifted"],"probe_pitches":[0,2,9,7,0,9,5,2,12,5,0,5],"shifted_pitches":[0,2,9,7,0,8,5,2,12,5,0,5],"swapped_pitches":[0,2,9,7,0,5,9,2,12,5,0,5],"shift_direction":-1,"question_num":51,"has_decoy":false},{"rt":3877.5,"stimulus":"[A] option 1, [L] option 2, [G] neither","key_press":65,"name":"choice","trial_type":"html-keyboard-response","trial_index":76,"time_elapsed":152178,"internal_node_id":"0.0-76.0","subject":"S1C1218","sona":"41620","block":6,"time":"2021-09-16T01:38:49.093Z","response":"1st","certainty":"high","char":"A","transposition":-3,"order":["swapped","shifted"],"probe_pitches":[10,6,0,7,9,3,7,0,1,5,-2,7],"shifted_pitches":[10,6,0,7,9,4,7,0,1,5,-2,7],"swapped_pitches":[10,6,0,7,9,7,3,0,1,5,-2,7],"shift_direction":1,"question_num":61,"has_decoy":false},{"rt":2975.100000023842,"stimulus":"[A] option 1, [L] option 2, [G] neither","key_press":65,"name":"choice","trial_type":"html-keyboard-response","trial_index":87,"time_elapsed":178572,"internal_node_id":"0.0-87.0","subject":"S1C1218","sona":"41620","block":6,"time":"2021-09-16T01:38:49.093Z","response":"1st","certainty":"high","char":"A","transposition":0,"order":["shifted","swapped"],"probe_pitches":[0,2,5,0,2,10,12,7,12,2,12,10],"shifted_pitches":[0,2,5,0,2,10,13,7,12,2,12,10],"swapped_pitches":[0,2,5,0,2,12,10,7,12,2,12,10],"shift_direction":1,"question_num":71,"has_decoy":false},{"rt":423.69999998807907,"stimulus":"[A] option 1, [L] option 2, [G] neither","key_press":76,"name":"choice","trial_type":"html-keyboard-response","trial_index":98,"time_elapsed":197477,"internal_node_id":"0.0-98.0","subject":"S1C1218","sona":"41620","block":6,"time":"2021-09-16T01:38:49.093Z","response":"2nd","certainty":"high","char":"L","transposition":3,"order":["swapped","shifted"],"probe_pitches":[4,7,9,12,9,7,12,2,4,2,4,12],"shifted_pitches":[4,7,9,12,9,6,12,2,4,2,4,12],"swapped_pitches":[4,7,9,12,9,12,7,2,4,2,4,12],"shift_direction":-1,"question_num":81,"has_decoy":false},{"rt":409,"stimulus":"[A] option 1, [L] option 2, [G] neither","key_press":65,"name":"choice","trial_type":"html-keyboard-response","trial_index":109,"time_elapsed":217431,"internal_node_id":"0.0-109.0","subject":"S1C1218","sona":"41620","block":6,"time":"2021-09-16T01:38:49.093Z","response":"1st","certainty":"high","char":"A","transposition":-1,"order":["swapped","shifted"],"probe_pitches":[4,7,8,4,9,3,7,5,-2,-1,10,2],"shifted_pitches":[4,7,8,4,9,3,6,5,-2,-1,10,2],"swapped_pitches":[4,7,8,4,9,7,3,5,-2,-1,10,2],"shift_direction":-1,"question_num":91,"has_decoy":false},{"rt":361.7999999523163,"stimulus":"[A] option 1, [L] option 2, [G] neither","key_press":65,"name":"choice","trial_type":"html-keyboard-response","trial_index":120,"time_elapsed":236360,"internal_node_id":"0.0-120.0","subject":"S1C1218","sona":"41620","block":6,"time":"2021-09-16T01:38:49.093Z","response":"1st","certainty":"high","char":"A","transposition":2,"order":["swapped","shifted"],"probe_pitches":[2,-2,3,5,7,-2,5,10,5,4,3,-1],"shifted_pitches":[2,-2,3,5,7,-3,5,10,5,4,3,-1],"swapped_pitches":[2,-2,3,5,7,5,-2,10,5,4,3,-1],"shift_direction":-1,"question_num":101,"has_decoy":false},{"rt":1772,"stimulus":"[A] option 1, [L] option 2, [G] neither","key_press":65,"name":"choice","trial_type":"html-keyboard-response","trial_index":131,"time_elapsed":256434,"internal_node_id":"0.0-131.0","subject":"S1C1218","sona":"41620","block":6,"time":"2021-09-16T01:38:49.093Z","response":"1st","certainty":"high","char":"A","transposition":-2,"order":["shifted","swapped"],"probe_pitches":[10,4,2,-1,0,4,6,8,2,4,3,10],"shifted_pitches":[10,4,2,-1,0,5,6,8,2,4,3,10],"swapped_pitches":[10,4,2,-1,0,6,4,8,2,4,3,10],"shift_direction":1,"question_num":111,"has_decoy":false},{"rt":2063.399999976158,"stimulus":"[A] option 1, [L] option 2, [G] neither","key_press":65,"name":"choice","trial_type":"html-keyboard-response","trial_index":142,"time_elapsed":276822,"internal_node_id":"0.0-142.0","subject":"S1C1218","sona":"41620","block":6,"time":"2021-09-16T01:38:49.093Z","response":"1st","certainty":"high","char":"A","transposition":2,"order":["shifted","swapped"],"probe_pitches":[12,8,5,12,5,0,8,5,3,0,10,8],"shifted_pitches":[12,8,5,12,5,0,9,5,3,0,10,8],"swapped_pitches":[12,8,5,12,5,8,0,5,3,0,10,8],"shift_direction":1,"question_num":121,"has_decoy":false},{"rt":698.1000000238419,"stimulus":"[A] option 1, [L] option 2, [G] neither","key_press":65,"name":"choice","trial_type":"html-keyboard-response","trial_index":153,"time_elapsed":295904,"internal_node_id":"0.0-153.0","subject":"S1C1218","sona":"41620","block":6,"time":"2021-09-16T01:38:49.093Z","response":"1st","certainty":"high","char":"A","transposition":-1,"order":["shifted","swapped"],"probe_pitches":[9,12,9,5,9,7,0,5,2,7,5,12],"shifted_pitches":[9,12,9,5,9,8,0,5,2,7,5,12],"swapped_pitches":[9,12,9,5,9,0,7,5,2,7,5,12],"shift_direction":1,"question_num":131,"has_decoy":false},{"rt":838,"stimulus":"[A] option 1, [L] option 2, [G] neither","key_press":76,"name":"choice","trial_type":"html-keyboard-response","trial_index":164,"time_elapsed":315104,"internal_node_id":"0.0-164.0","subject":"S1C1218","sona":"41620","block":6,"time":"2021-09-16T01:38:49.093Z","response":"2nd","certainty":"high","char":"L","transposition":0,"order":["shifted","swapped"],"probe_pitches":[-2,-1,6,7,1,6,2,-1,-2,-1,10,7],"shifted_pitches":[-2,-1,6,7,1,6,3,-1,-2,-1,10,7],"swapped_pitches":[-2,-1,6,7,1,2,6,-1,-2,-1,10,7],"shift_direction":1,"question_num":141,"has_decoy":false},{"rt":476.69999998807907,"stimulus":"[A] option 1, [L] option 2, [G] neither","key_press":76,"name":"choice","trial_type":"html-keyboard-response","trial_index":175,"time_elapsed":334044,"internal_node_id":"0.0-175.0","subject":"S1C1218","sona":"41620","block":6,"time":"2021-09-16T01:38:49.093Z","response":"2nd","certainty":"high","char":"L","transposition":3,"order":["swapped","shifted"],"probe_pitches":[10,6,3,6,10,5,-1,6,9,-1,8,7],"shifted_pitches":[10,6,3,6,10,5,0,6,9,-1,8,7],"swapped_pitches":[10,6,3,6,10,-1,5,6,9,-1,8,7],"shift_direction":1,"question_num":151,"has_decoy":false},{"rt":5512.800000011921,"stimulus":"[A] option 1, [L] option 2, [G] neither","key_press":65,"name":"choice","trial_type":"html-keyboard-response","trial_index":186,"time_elapsed":357864,"internal_node_id":"0.0-186.0","subject":"S1C1218","sona":"41620","block":6,"time":"2021-09-16T01:38:49.093Z","response":"1st","certainty":"high","char":"A","transposition":-3,"order":["shifted","swapped"],"probe_pitches":[10,9,2,6,8,3,2,-2,6,7,8,3],"shifted_pitches":[10,9,2,6,8,3,1,-2,6,7,8,3],"swapped_pitches":[10,9,2,6,8,2,3,-2,6,7,8,3],"shift_direction":-1,"question_num":161,"has_decoy":false},{"rt":373.7000000476837,"stimulus":"[A] option 1, [L] option 2, [G] neither","key_press":65,"name":"choice","trial_type":"html-keyboard-response","trial_index":197,"time_elapsed":376533,"internal_node_id":"0.0-197.0","subject":"S1C1218","sona":"41620","block":6,"time":"2021-09-16T01:38:49.093Z","response":"1st","certainty":"high","char":"A","transposition":1,"order":["shifted","swapped"],"probe_pitches":[3,1,6,2,-2,8,4,3,5,4,-2,0],"shifted_pitches":[3,1,6,2,-2,7,4,3,5,4,-2,0],"swapped_pitches":[3,1,6,2,-2,4,8,3,5,4,-2,0],"shift_direction":-1,"question_num":171,"has_decoy":false},{"rt":399.9000000357628,"stimulus":"[A] option 1, [L] option 2, [G] neither","key_press":76,"name":"choice","trial_type":"html-keyboard-response","trial_index":208,"time_elapsed":395266,"internal_node_id":"0.0-208.0","subject":"S1C1218","sona":"41620","block":6,"time":"2021-09-16T01:38:49.093Z","response":"2nd","certainty":"high","char":"L","transposition":-2,"order":["swapped","shifted"],"probe_pitches":[0,3,5,10,3,5,0,3,5,3,7,0],"shifted_pitches":[0,3,5,10,3,5,1,3,5,3,7,0],"swapped_pitches":[0,3,5,10,3,0,5,3,5,3,7,0],"shift_direction":1,"question_num":181,"has_decoy":false},{"rt":496.80000001192093,"stimulus":"[A] option 1, [L] option 2, [G] neither","key_press":76,"name":"choice","trial_type":"html-keyboard-response","trial_index":219,"time_elapsed":414187,"internal_node_id":"0.0-219.0","subject":"S1C1218","sona":"41620","block":6,"time":"2021-09-16T01:38:49.093Z","response":"2nd","certainty":"high","char":"L","transposition":-2,"order":["shifted","swapped"],"probe_pitches":[5,0,1,6,9,1,-2,0,-2,10,3,10],"shifted_pitches":[5,0,1,6,9,2,-2,0,-2,10,3,10],"swapped_pitches":[5,0,1,6,9,-2,1,0,-2,10,3,10],"shift_direction":1,"question_num":191,"has_decoy":false}]