[{"rt":1354.9000000357628,"stimulus":"[A] option 1, [L] option 2, [G] neither","key_press":65,"name":"choice","trial_type":"html-keyboard-response","trial_index":10,"time_elapsed":22517,"internal_node_id":"0.0-10.0","subject":"S1C1218","sona":"41620","block":3,"time":"2021-09-16T00:52:53.229Z","response":"1st","certainty":"high","char":"A","transposition":1,"order":["shifted","swapped"],"probe_pitches":[13,10,3,8,13,15,5,10,8,15,5,3],"shifted_pitches":[13,10,3,8,13,16,5,10,8,15,5,3],"swapped_pitches":[13,10,3,8,13,5,15,10,8,15,5,3],"shift_direction":1,"question_num":1,"has_decoy":false},{"rt":1982.9000000357628,"stimulus":"[A] option 1, [L] option 2, [G] neither","key_press":76,"name":"choice","trial_type":"html-keyboard-response","trial_index":21,"time_elapsed":43566,"internal_node_id":"0.0-21.0","subject":"S1C1218","sona":"41620","block":3,"time":"2021-09-16T00:52:53.229Z","response":"2nd","certainty":"high","char":"L","transposition":-1,"order":["swapped","shifted"],"probe_pitches":[8,9,13,11,3,5,11,7,3,15,8,11],"shifted_pitches":[8,9,13,11,3,5,10,7,3,15,8,11],"swapped_pitches":[8,9,13,11,3,11,5,7,3,15,8,11],"shift_direction":-1,"question_num":11,"has_decoy":false},{"rt":1461.6000000238419,"stimulus":"[A] option 1, [L] option 2, [G] neither","key_press":65,"name":"choice","trial_type":"html-keyboard-response","trial_index":32,"time_elapsed":63520,"internal_node_id":"0.0-32.0","subject":"S1C1218","sona":"41620","block":3,"time":"2021-09-16T00:52:53.229Z","response":"1st","certainty":"high","char":"A","transposition":-2,"order":["swapped","shifted"],"probe_pitches":[7,3,7,3,5,3,7,15,7,15,12,10],"shifted_pitches":[7,3,7,3,5,3,8,15,7,15,12,10],"swapped_pitches":[7,3,7,3,5,7,3,15,7,15,12,10],"shift_direction":1,"question_num":21,"has_decoy":false},{"rt":3020.100000023842,"stimulus":"[A] option 1, [L] option 2, [G] neither","key_press":65,"name":"choice","trial_type":"html-keyboard-response","trial_index":43,"time_elapsed":84599,"internal_node_id":"0.0-43.0","subject":"S1C1218","sona":"41620","block":3,"time":"2021-09-16T00:52:53.229Z","response":"1st","certainty":"high","char":"A","transposition":0,"order":["swapped","shifted"],"probe_pitches":[8,13,10,8,10,6,3,8,13,10,13,3],"shifted_pitches":[8,13,10,8,10,5,3,8,13,10,13,3],"swapped_pitches":[8,13,10,8,10,3,6,8,13,10,13,3],"shift_direction":-1,"question_num":31,"has_decoy":false},{"rt":1447.5,"stimulus":"[A] option 1, [L] option 2, [G] neither","key_press":65,"name":"choice","trial_type":"html-keyboard-response","trial_index":54,"time_elapsed":105155,"internal_node_id":"0.0-54.0","subject":"S1C1218","sona":"41620","block":3,"time":"2021-09-16T00:52:53.229Z","response":"1st","certainty":"high","char":"A","transposition":2,"order":["shifted","swapped"],"probe_pitches":[6,10,3,10,6,15,10,3,13,8,10,8],"shifted_pitches":[6,10,3,10,6,15,9,3,13,8,10,8],"swapped_pitches":[6,10,3,10,6,10,15,3,13,8,10,8],"shift_direction":-1,"question_num":41,"has_decoy":false},{"rt":2545.199999988079,"stimulus":"[A] option 1, [L] option 2, [G] neither","key_press":65,"name":"choice","trial_type":"html-keyboard-response","trial_index":65,"time_elapsed":128274,"internal_node_id":"0.0-65.0","subject":"S1C1218","sona":"41620","block":3,"time":"2021-09-16T00:52:53.229Z","response":"1st","certainty":"high","char":"A","transposition":0,"order":["shifted","swapped"],"probe_pitches":[9,10,4,5,4,11,5,10,8,11,3,7],"shifted_pitches":[9,10,4,5,4,12,5,10,8,11,3,7],"swapped_pitches":[9,10,4,5,4,5,11,10,8,11,3,7],"shift_direction":1,"question_num":51,"has_decoy":false},{"rt":3247.800000011921,"stimulus":"[A] option 1, [L] option 2, [G] neither","key_press":71,"name":"choice","trial_type":"html-keyboard-response","trial_index":76,"time_elapsed":150402,"internal_node_id":"0.0-76.0","subject":"S1C1218","sona":"41620","block":3,"time":"2021-09-16T00:52:53.229Z","response":"neither","certainty":"high","char":"G","transposition":-3,"order":["swapped","shifted"],"probe_pitches":[14,15,13,15,6,8,5,6,8,10,12,14],"shifted_pitches":[14,15,13,15,6,9,5,6,8,10,12,14],"swapped_pitches":[14,15,13,15,6,5,8,6,8,10,12,14],"shift_direction":1,"question_num":61,"has_decoy":false},{"rt":2074.099999964237,"stimulus":"[A] option 1, [L] option 2, [G] neither","key_press":65,"name":"choice","trial_type":"html-keyboard-response","trial_index":87,"time_elapsed":171479,"internal_node_id":"0.0-87.0","subject":"S1C1218","sona":"41620","block":3,"time":"2021-09-16T00:52:53.229Z","response":"1st","certainty":"high","char":"A","transposition":3,"order":["swapped","shifted"],"probe_pitches":[8,3,9,7,11,7,12,13,11,5,4,8],"shifted_pitches":[8,3,9,7,11,6,12,13,11,5,4,8],"swapped_pitches":[8,3,9,7,11,12,7,13,11,5,4,8],"shift_direction":-1,"question_num":71,"has_decoy":false},{"rt":1651.5,"stimulus":"[A] option 1, [L] option 2, [G] neither","key_press":65,"name":"choice","trial_type":"html-keyboard-response","trial_index":98,"time_elapsed":191803,"internal_node_id":"0.0-98.0","subject":"S1C1218","sona":"41620","block":3,"time":"2021-09-16T00:52:53.229Z","response":"1st","certainty":"high","char":"A","transposition":-3,"order":["swapped","shifted"],"probe_pitches":[3,5,11,8,10,12,6,3,12,13,9,10],"shifted_pitches":[3,5,11,8,10,12,7,3,12,13,9,10],"swapped_pitches":[3,5,11,8,10,6,12,3,12,13,9,10],"shift_direction":1,"question_num":81,"has_decoy":false},{"rt":722.6000000238419,"stimulus":"[A] option 1, [L] option 2, [G] neither","key_press":76,"name":"choice","trial_type":"html-keyboard-response","trial_index":109,"time_elapsed":212544,"internal_node_id":"0.0-109.0","subject":"S1C1218","sona":"41620","block":3,"time":"2021-09-16T00:52:53.229Z","response":"2nd","certainty":"high","char":"L","transposition":-3,"order":["swapped","shifted"],"probe_pitches":[8,11,8,15,13,6,15,13,8,15,8,6],"shifted_pitches":[8,11,8,15,13,6,16,13,8,15,8,6],"swapped_pitches":[8,11,8,15,13,15,6,13,8,15,8,6],"shift_direction":1,"question_num":91,"has_decoy":false},{"rt":2570.300000011921,"stimulus":"[A] option 1, [L] option 2, [G] neither","key_press":65,"name":"choice","trial_type":"html-keyboard-response","trial_index":120,"time_elapsed":233592,"internal_node_id":"0.0-120.0","subject":"S1C1218","sona":"41620","block":3,"time":"2021-09-16T00:52:53.229Z","response":"1st","certainty":"high","char":"A","transposition":2,"order":["shifted","swapped"],"probe_pitches":[7,3,4,3,11,6,14,13,7,14,8,9],"shifted_pitches":[7,3,4,3,11,5,14,13,7,14,8,9],"swapped_pitches":[7,3,4,3,11,14,6,13,7,14,8,9],"shift_direction":-1,"question_num":101,"has_decoy":false},{"rt":3051.699999988079,"stimulus":"[A] option 1, [L] option 2, [G] neither","key_press":65,"name":"choice","trial_type":"html-keyboard-response","trial_index":131,"time_elapsed":255049,"internal_node_id":"0.0-131.0","subject":"S1C1218","sona":"41620","block":3,"time":"2021-09-16T00:52:53.229Z","response":"1st","certainty":"high","char":"A","transposition":-3,"order":["shifted","swapped"],"probe_pitches":[10,15,13,5,8,5,3,8,15,8,10,5],"shifted_pitches":[10,15,13,5,8,4,3,8,15,8,10,5],"swapped_pitches":[10,15,13,5,8,3,5,8,15,8,10,5],"shift_direction":-1,"question_num":111,"has_decoy":false},{"rt":1178.699999988079,"stimulus":"[A] option 1, [L] option 2, [G] neither","key_press":76,"name":"choice","trial_type":"html-keyboard-response","trial_index":142,"time_elapsed":274826,"internal_node_id":"0.0-142.0","subject":"S1C1218","sona":"41620","block":3,"time":"2021-09-16T00:52:53.229Z","response":"2nd","certainty":"high","char":"L","transposition":-2,"order":["shifted","swapped"],"probe_pitches":[3,5,12,10,6,13,10,14,4,5,3,10],"shifted_pitches":[3,5,12,10,6,13,11,14,4,5,3,10],"swapped_pitches":[3,5,12,10,6,10,13,14,4,5,3,10],"shift_direction":1,"question_num":121,"has_decoy":false},{"rt":923,"stimulus":"[A] option 1, [L] option 2, [G] neither","key_press":65,"name":"choice","trial_type":"html-keyboard-response","trial_index":153,"time_elapsed":293994,"internal_node_id":"0.0-153.0","subject":"S1C1218","sona":"41620","block":3,"time":"2021-09-16T00:52:53.229Z","response":"1st","certainty":"high","char":"A","transposition":3,"order":["shifted","swapped"],"probe_pitches":[13,8,6,13,15,11,3,13,3,15,11,8],"shifted_pitches":[13,8,6,13,15,12,3,13,3,15,11,8],"swapped_pitches":[13,8,6,13,15,3,11,13,3,15,11,8],"shift_direction":1,"question_num":131,"has_decoy":false},{"rt":1713.5999999642372,"stimulus":"[A] option 1, [L] option 2, [G] neither","key_press":76,"name":"choice","trial_type":"html-keyboard-response","trial_index":164,"time_elapsed":314390,"internal_node_id":"0.0-164.0","subject":"S1C1218","sona":"41620","block":3,"time":"2021-09-16T00:52:53.229Z","response":"2nd","certainty":"high","char":"L","transposition":-1,"order":["swapped","shifted"],"probe_pitches":[3,8,5,8,5,12,15,5,3,15,10,12],"shifted_pitches":[3,8,5,8,5,12,16,5,3,15,10,12],"swapped_pitches":[3,8,5,8,5,15,12,5,3,15,10,12],"shift_direction":1,"question_num":141,"has_decoy":false},{"rt":692.0999999642372,"stimulus":"[A] option 1, [L] option 2, [G] neither","key_press":76,"name":"choice","trial_type":"html-keyboard-response","trial_index":175,"time_elapsed":335278,"internal_node_id":"0.0-175.0","subject":"S1C1218","sona":"41620","block":3,"time":"2021-09-16T00:52:53.229Z","response":"2nd","certainty":"high","char":"L","transposition":1,"order":["shifted","swapped"],"probe_pitches":[3,4,5,7,12,13,7,12,5,8,10,9],"shifted_pitches":[3,4,5,7,12,14,7,12,5,8,10,9],"swapped_pitches":[3,4,5,7,12,7,13,12,5,8,10,9],"shift_direction":1,"question_num":151,"has_decoy":false},{"rt":3549.100000023842,"stimulus":"[A] option 1, [L] option 2, [G] neither","key_press":65,"name":"choice","trial_type":"html-keyboard-response","trial_index":186,"time_elapsed":361662,"internal_node_id":"0.0-186.0","subject":"S1C1218","sona":"41620","block":3,"time":"2021-09-16T00:52:53.229Z","response":"1st","certainty":"high","char":"A","transposition":-2,"order":["swapped","shifted"],"probe_pitches":[9,10,14,7,3,10,9,4,13,11,3,6],"shifted_pitches":[9,10,14,7,3,10,8,4,13,11,3,6],"swapped_pitches":[9,10,14,7,3,9,10,4,13,11,3,6],"shift_direction":-1,"question_num":161,"has_decoy":false},{"rt":1950.300000011921,"stimulus":"[A] option 1, [L] option 2, [G] neither","key_press":65,"name":"choice","trial_type":"html-keyboard-response","trial_index":197,"time_elapsed":382030,"internal_node_id":"0.0-197.0","subject":"S1C1218","sona":"41620","block":3,"time":"2021-09-16T00:52:53.229Z","response":"1st","certainty":"high","char":"A","transposition":-1,"order":["shifted","swapped"],"probe_pitches":[7,5,7,3,5,10,3,15,12,7,3,5],"shifted_pitches":[7,5,7,3,5,9,3,15,12,7,3,5],"swapped_pitches":[7,5,7,3,5,3,10,15,12,7,3,5],"shift_direction":-1,"question_num":171,"has_decoy":false},{"rt":1443.300000011921,"stimulus":"[A] option 1, [L] option 2, [G] neither","key_press":76,"name":"choice","trial_type":"html-keyboard-response","trial_index":208,"time_elapsed":406485,"internal_node_id":"0.0-208.0","subject":"S1C1218","sona":"41620","block":3,"time":"2021-09-16T00:52:53.229Z","response":"2nd","certainty":"high","char":"L","transposition":-2,"order":["swapped","shifted"],"probe_pitches":[3,5,12,10,12,3,8,15,10,15,5,8],"shifted_pitches":[3,5,12,10,12,3,7,15,10,15,5,8],"swapped_pitches":[3,5,12,10,12,8,3,15,10,15,5,8],"shift_direction":-1,"question_num":181,"has_decoy":false},{"rt":483.4000000357628,"stimulus":"[A] option 1, [L] option 2, [G] neither","key_press":76,"name":"choice","trial_type":"html-keyboard-response","trial_index":219,"time_elapsed":425968,"internal_node_id":"0.0-219.0","subject":"S1C1218","sona":"41620","block":3,"time":"2021-09-16T00:52:53.229Z","response":"2nd","certainty":"high","char":"L","transposition":-1,"order":["shifted","swapped"],"probe_pitches":[6,12,6,3,8,9,14,3,15,4,15,12],"shifted_pitches":[6,12,6,3,8,9,13,3,15,4,15,12],"swapped_pitches":[6,12,6,3,8,14,9,3,15,4,15,12],"shift_direction":-1,"question_num":191,"has_decoy":false}]