[{"rt":730.6000000238419,"stimulus":"[A] option 1, [L] option 2, [G] neither","key_press":76,"name":"choice","trial_type":"html-keyboard-response","trial_index":10,"time_elapsed":22184,"internal_node_id":"0.0-10.0","subject":"S1C1218","sona":"41620","block":2,"time":"2021-09-16T00:42:30.307Z","response":"2nd","certainty":"high","char":"L","transposition":0,"order":["swapped","shifted"],"probe_pitches":[5,6,9,5,3,4,9,13,2,13,11,1],"shifted_pitches":[5,6,9,5,3,4,8,13,2,13,11,1],"swapped_pitches":[5,6,9,5,3,9,4,13,2,13,11,1],"shift_direction":-1,"question_num":1,"has_decoy":false},{"rt":4949.800000011921,"stimulus":"[A] option 1, [L] option 2, [G] neither","key_press":76,"name":"choice","trial_type":"html-keyboard-response","trial_index":21,"time_elapsed":48100,"internal_node_id":"0.0-21.0","subject":"S1C1218","sona":"41620","block":2,"time":"2021-09-16T00:42:30.307Z","response":"2nd","certainty":"high","char":"L","transposition":-2,"order":["shifted","swapped"],"probe_pitches":[12,6,7,5,7,12,3,8,13,9,6,7],"shifted_pitches":[12,6,7,5,7,12,4,8,13,9,6,7],"swapped_pitches":[12,6,7,5,7,3,12,8,13,9,6,7],"shift_direction":1,"question_num":11,"has_decoy":false},{"rt":2164.399999976158,"stimulus":"[A] option 1, [L] option 2, [G] neither","key_press":65,"name":"choice","trial_type":"html-keyboard-response","trial_index":32,"time_elapsed":72090,"internal_node_id":"0.0-32.0","subject":"S1C1218","sona":"41620","block":2,"time":"2021-09-16T00:42:30.307Z","response":"1st","certainty":"high","char":"A","transposition":-3,"order":["shifted","swapped"],"probe_pitches":[5,3,8,12,5,8,15,10,12,15,5,3],"shifted_pitches":[5,3,8,12,5,8,16,10,12,15,5,3],"swapped_pitches":[5,3,8,12,5,15,8,10,12,15,5,3],"shift_direction":1,"question_num":21,"has_decoy":false},{"rt":593.5999999642372,"stimulus":"[A] option 1, [L] option 2, [G] neither","key_press":76,"name":"choice","trial_type":"html-keyboard-response","trial_index":43,"time_elapsed":96072,"internal_node_id":"0.0-43.0","subject":"S1C1218","sona":"41620","block":2,"time":"2021-09-16T00:42:30.307Z","response":"2nd","certainty":"high","char":"L","transposition":1,"order":["swapped","shifted"],"probe_pitches":[3,8,10,3,8,6,13,10,6,10,8,15],"shifted_pitches":[3,8,10,3,8,7,13,10,6,10,8,15],"swapped_pitches":[3,8,10,3,8,13,6,10,6,10,8,15],"shift_direction":1,"question_num":31,"has_decoy":false},{"rt":1575.699999988079,"stimulus":"[A] option 1, [L] option 2, [G] neither","key_press":76,"name":"choice","trial_type":"html-keyboard-response","trial_index":54,"time_elapsed":116532,"internal_node_id":"0.0-54.0","subject":"S1C1218","sona":"41620","block":2,"time":"2021-09-16T00:42:30.307Z","response":"2nd","certainty":"high","char":"L","transposition":-1,"order":["shifted","swapped"],"probe_pitches":[3,8,13,15,8,3,11,6,11,15,6,3],"shifted_pitches":[3,8,13,15,8,2,11,6,11,15,6,3],"swapped_pitches":[3,8,13,15,8,11,3,6,11,15,6,3],"shift_direction":-1,"question_num":41,"has_decoy":false},{"rt":4022.400000035763,"stimulus":"[A] option 1, [L] option 2, [G] neither","key_press":65,"name":"choice","trial_type":"html-keyboard-response","trial_index":65,"time_elapsed":138954,"internal_node_id":"0.0-65.0","subject":"S1C1218","sona":"41620","block":2,"time":"2021-09-16T00:42:30.307Z","response":"1st","certainty":"high","char":"A","transposition":-2,"order":["swapped","shifted"],"probe_pitches":[10,8,4,6,9,10,3,7,13,10,3,6],"shifted_pitches":[10,8,4,6,9,11,3,7,13,10,3,6],"swapped_pitches":[10,8,4,6,9,3,10,7,13,10,3,6],"shift_direction":1,"question_num":51,"has_decoy":false},{"rt":666.1999999880791,"stimulus":"[A] option 1, [L] option 2, [G] neither","key_press":76,"name":"choice","trial_type":"html-keyboard-response","trial_index":76,"time_elapsed":160263,"internal_node_id":"0.0-76.0","subject":"S1C1218","sona":"41620","block":2,"time":"2021-09-16T00:42:30.307Z","response":"2nd","certainty":"high","char":"L","transposition":0,"order":["swapped","shifted"],"probe_pitches":[8,11,15,11,6,11,8,6,3,13,3,13],"shifted_pitches":[8,11,15,11,6,12,8,6,3,13,3,13],"swapped_pitches":[8,11,15,11,6,8,11,6,3,13,3,13],"shift_direction":1,"question_num":61,"has_decoy":false},{"rt":1279.0999999642372,"stimulus":"[A] option 1, [L] option 2, [G] neither","key_press":76,"name":"choice","trial_type":"html-keyboard-response","trial_index":87,"time_elapsed":183063,"internal_node_id":"0.0-87.0","subject":"S1C1218","sona":"41620","block":2,"time":"2021-09-16T00:42:30.307Z","response":"2nd","certainty":"high","char":"L","transposition":3,"order":["swapped","shifted"],"probe_pitches":[12,8,5,8,5,8,15,3,10,3,8,5],"shifted_pitches":[12,8,5,8,5,8,14,3,10,3,8,5],"swapped_pitches":[12,8,5,8,5,15,8,3,10,3,8,5],"shift_direction":-1,"question_num":71,"has_decoy":false},{"rt":1160.5999999642372,"stimulus":"[A] option 1, [L] option 2, [G] neither","key_press":65,"name":"choice","trial_type":"html-keyboard-response","trial_index":98,"time_elapsed":206310,"internal_node_id":"0.0-98.0","subject":"S1C1218","sona":"41620","block":2,"time":"2021-09-16T00:42:30.307Z","response":"1st","certainty":"high","char":"A","transposition":-3,"order":["shifted","swapped"],"probe_pitches":[8,3,6,8,10,13,8,10,6,10,8,3],"shifted_pitches":[8,3,6,8,10,12,8,10,6,10,8,3],"swapped_pitches":[8,3,6,8,10,8,13,10,6,10,8,3],"shift_direction":-1,"question_num":81,"has_decoy":false},{"rt":1326.199999988079,"stimulus":"[A] option 1, [L] option 2, [G] neither","key_press":76,"name":"choice","trial_type":"html-keyboard-response","trial_index":109,"time_elapsed":226663,"internal_node_id":"0.0-109.0","subject":"S1C1218","sona":"41620","block":2,"time":"2021-09-16T00:42:30.307Z","response":"2nd","certainty":"high","char":"L","transposition":-1,"order":["shifted","swapped"],"probe_pitches":[2,8,2,7,9,4,2,8,1,12,6,8],"shifted_pitches":[2,8,2,7,9,3,2,8,1,12,6,8],"swapped_pitches":[2,8,2,7,9,2,4,8,1,12,6,8],"shift_direction":-1,"question_num":91,"has_decoy":false},{"rt":4995.599999964237,"stimulus":"[A] option 1, [L] option 2, [G] neither","key_press":65,"name":"choice","trial_type":"html-keyboard-response","trial_index":120,"time_elapsed":250813,"internal_node_id":"0.0-120.0","subject":"S1C1218","sona":"41620","block":2,"time":"2021-09-16T00:42:30.307Z","response":"1st","certainty":"high","char":"A","transposition":-2,"order":["shifted","swapped"],"probe_pitches":[3,5,3,10,3,5,7,3,7,10,12,5],"shifted_pitches":[3,5,3,10,3,6,7,3,7,10,12,5],"swapped_pitches":[3,5,3,10,3,7,5,3,7,10,12,5],"shift_direction":1,"question_num":101,"has_decoy":false},{"rt":1459.5,"stimulus":"[A] option 1, [L] option 2, [G] neither","key_press":65,"name":"choice","trial_type":"html-keyboard-response","trial_index":131,"time_elapsed":271288,"internal_node_id":"0.0-131.0","subject":"S1C1218","sona":"41620","block":2,"time":"2021-09-16T00:42:30.307Z","response":"1st","certainty":"high","char":"A","transposition":-3,"order":["shifted","swapped"],"probe_pitches":[13,7,8,9,1,6,4,9,13,2,12,8],"shifted_pitches":[13,7,8,9,1,5,4,9,13,2,12,8],"swapped_pitches":[13,7,8,9,1,4,6,9,13,2,12,8],"shift_direction":-1,"question_num":111,"has_decoy":false},{"rt":1456.6000000238419,"stimulus":"[A] option 1, [L] option 2, [G] neither","key_press":76,"name":"choice","trial_type":"html-keyboard-response","trial_index":142,"time_elapsed":292560,"internal_node_id":"0.0-142.0","subject":"S1C1218","sona":"41620","block":2,"time":"2021-09-16T00:42:30.307Z","response":"2nd","certainty":"high","char":"L","transposition":3,"order":["swapped","shifted"],"probe_pitches":[6,3,6,7,5,2,1,3,2,3,2,1],"shifted_pitches":[6,3,6,7,5,2,0,3,2,3,2,1],"swapped_pitches":[6,3,6,7,5,1,2,3,2,3,2,1],"shift_direction":-1,"question_num":121,"has_decoy":false},{"rt":1625.5,"stimulus":"[A] option 1, [L] option 2, [G] neither","key_press":65,"name":"choice","trial_type":"html-keyboard-response","trial_index":153,"time_elapsed":312484,"internal_node_id":"0.0-153.0","subject":"S1C1218","sona":"41620","block":2,"time":"2021-09-16T00:42:30.307Z","response":"1st","certainty":"high","char":"A","transposition":-1,"order":["swapped","shifted"],"probe_pitches":[12,10,5,1,3,8,11,2,13,7,6,2],"shifted_pitches":[12,10,5,1,3,9,11,2,13,7,6,2],"swapped_pitches":[12,10,5,1,3,11,8,2,13,7,6,2],"shift_direction":1,"question_num":131,"has_decoy":false},{"rt":1337.699999988079,"stimulus":"[A] option 1, [L] option 2, [G] neither","key_press":76,"name":"choice","trial_type":"html-keyboard-response","trial_index":164,"time_elapsed":334842,"internal_node_id":"0.0-164.0","subject":"S1C1218","sona":"41620","block":2,"time":"2021-09-16T00:42:30.307Z","response":"2nd","certainty":"high","char":"L","transposition":-1,"order":["shifted","swapped"],"probe_pitches":[13,15,13,15,8,15,5,8,10,8,15,8],"shifted_pitches":[13,15,13,15,8,15,4,8,10,8,15,8],"swapped_pitches":[13,15,13,15,8,5,15,8,10,8,15,8],"shift_direction":-1,"question_num":141,"has_decoy":false},{"rt":646.9000000357628,"stimulus":"[A] option 1, [L] option 2, [G] neither","key_press":76,"name":"choice","trial_type":"html-keyboard-response","trial_index":175,"time_elapsed":354573,"internal_node_id":"0.0-175.0","subject":"S1C1218","sona":"41620","block":2,"time":"2021-09-16T00:42:30.307Z","response":"2nd","certainty":"high","char":"L","transposition":-2,"order":["swapped","shifted"],"probe_pitches":[5,7,5,7,5,7,15,12,15,7,3,10],"shifted_pitches":[5,7,5,7,5,7,16,12,15,7,3,10],"swapped_pitches":[5,7,5,7,5,15,7,12,15,7,3,10],"shift_direction":1,"question_num":151,"has_decoy":false},{"rt":913.4000000357628,"stimulus":"[A] option 1, [L] option 2, [G] neither","key_press":65,"name":"choice","trial_type":"html-keyboard-response","trial_index":186,"time_elapsed":374989,"internal_node_id":"0.0-186.0","subject":"S1C1218","sona":"41620","block":2,"time":"2021-09-16T00:42:30.307Z","response":"1st","certainty":"high","char":"A","transposition":2,"order":["swapped","shifted"],"probe_pitches":[8,3,5,10,13,10,8,5,10,5,10,3],"shifted_pitches":[8,3,5,10,13,10,7,5,10,5,10,3],"swapped_pitches":[8,3,5,10,13,8,10,5,10,5,10,3],"shift_direction":-1,"question_num":161,"has_decoy":false},{"rt":1086.800000011921,"stimulus":"[A] option 1, [L] option 2, [G] neither","key_press":65,"name":"choice","trial_type":"html-keyboard-response","trial_index":197,"time_elapsed":394912,"internal_node_id":"0.0-197.0","subject":"S1C1218","sona":"41620","block":2,"time":"2021-09-16T00:42:30.307Z","response":"1st","certainty":"high","char":"A","transposition":2,"order":["swapped","shifted"],"probe_pitches":[8,10,3,10,2,4,5,13,8,5,1,10],"shifted_pitches":[8,10,3,10,2,4,6,13,8,5,1,10],"swapped_pitches":[8,10,3,10,2,5,4,13,8,5,1,10],"shift_direction":1,"question_num":171,"has_decoy":false},{"rt":1072,"stimulus":"[A] option 1, [L] option 2, [G] neither","key_press":76,"name":"choice","trial_type":"html-keyboard-response","trial_index":208,"time_elapsed":414205,"internal_node_id":"0.0-208.0","subject":"S1C1218","sona":"41620","block":2,"time":"2021-09-16T00:42:30.307Z","response":"2nd","certainty":"high","char":"L","transposition":1,"order":["shifted","swapped"],"probe_pitches":[13,7,6,7,8,11,13,5,1,2,4,13],"shifted_pitches":[13,7,6,7,8,10,13,5,1,2,4,13],"swapped_pitches":[13,7,6,7,8,13,11,5,1,2,4,13],"shift_direction":-1,"question_num":181,"has_decoy":false},{"rt":847.4000000357628,"stimulus":"[A] option 1, [L] option 2, [G] neither","key_press":65,"name":"choice","trial_type":"html-keyboard-response","trial_index":219,"time_elapsed":433809,"internal_node_id":"0.0-219.0","subject":"S1C1218","sona":"41620","block":2,"time":"2021-09-16T00:42:30.307Z","response":"1st","certainty":"high","char":"A","transposition":-3,"order":["shifted","swapped"],"probe_pitches":[8,2,1,9,1,11,6,10,11,1,11,9],"shifted_pitches":[8,2,1,9,1,11,7,10,11,1,11,9],"swapped_pitches":[8,2,1,9,1,6,11,10,11,1,11,9],"shift_direction":1,"question_num":191,"has_decoy":false}]