[{"rt":5777,"stimulus":"[A] option 1, [L] option 2, [G] neither","key_press":76,"name":"choice","trial_type":"html-keyboard-response","trial_index":15,"time_elapsed":76137,"internal_node_id":"0.0-15.0","response":"2nd","certainty":"high","char":"L","transposition":1,"order":["swapped","shifted"],"probe_pitches":[7,9,7,12,9,2,4,12,0,4,2,4],"shifted_pitches":[7,9,7,12,9,2,3,12,0,4,2,4],"swapped_pitches":[7,9,7,12,9,4,2,12,0,4,2,4],"shift_direction":-1,"question_num":1,"has_decoy":false,"subject":"S1C1218","sona":"41620","block":1,"time":"2021-09-16T00:34:35.807Z"},{"rt":2234.199999988079,"stimulus":"[A] option 1, [L] option 2, [G] neither","key_press":65,"name":"choice","trial_type":"html-keyboard-response","trial_index":26,"time_elapsed":97666,"internal_node_id":"0.0-26.0","response":"1st","certainty":"high","char":"A","transposition":-2,"order":["shifted","swapped"],"probe_pitches":[5,0,7,0,5,0,2,10,5,2,10,7],"shifted_pitches":[5,0,7,0,5,-1,2,10,5,2,10,7],"swapped_pitches":[5,0,7,0,5,2,0,10,5,2,10,7],"shift_direction":-1,"question_num":11,"has_decoy":false,"subject":"S1C1218","sona":"41620","block":1,"time":"2021-09-16T00:34:35.807Z"},{"rt":2152,"stimulus":"[A] option 1, [L] option 2, [G] neither","key_press":76,"name":"choice","trial_type":"html-keyboard-response","trial_index":37,"time_elapsed":119494,"internal_node_id":"0.0-37.0","response":"2nd","certainty":"high","char":"L","transposition":-3,"order":["swapped","shifted"],"probe_pitches":[0,2,5,2,9,0,5,7,5,0,12,9],"shifted_pitches":[0,2,5,2,9,-1,5,7,5,0,12,9],"swapped_pitches":[0,2,5,2,9,5,0,7,5,0,12,9],"shift_direction":-1,"question_num":21,"has_decoy":false,"subject":"S1C1218","sona":"41620","block":1,"time":"2021-09-16T00:34:35.807Z"},{"rt":1997.300000011921,"stimulus":"[A] option 1, [L] option 2, [G] neither","key_press":65,"name":"choice","trial_type":"html-keyboard-response","trial_index":48,"time_elapsed":140753,"internal_node_id":"0.0-48.0","response":"1st","certainty":"high","char":"A","transposition":-2,"order":["shifted","swapped"],"probe_pitches":[1,0,3,-1,6,4,7,10,7,1,-2,1],"shifted_pitches":[1,0,3,-1,6,4,8,10,7,1,-2,1],"swapped_pitches":[1,0,3,-1,6,7,4,10,7,1,-2,1],"shift_direction":1,"question_num":31,"has_decoy":false,"subject":"S1C1218","sona":"41620","block":1,"time":"2021-09-16T00:34:35.807Z"},{"rt":1869.699999988079,"stimulus":"[A] option 1, [L] option 2, [G] neither","key_press":65,"name":"choice","trial_type":"html-keyboard-response","trial_index":59,"time_elapsed":161281,"internal_node_id":"0.0-59.0","response":"1st","certainty":"high","char":"A","transposition":-2,"order":["swapped","shifted"],"probe_pitches":[8,9,10,6,10,0,8,9,3,0,-2,2],"shifted_pitches":[8,9,10,6,10,0,7,9,3,0,-2,2],"swapped_pitches":[8,9,10,6,10,8,0,9,3,0,-2,2],"shift_direction":-1,"question_num":41,"has_decoy":false,"subject":"S1C1218","sona":"41620","block":1,"time":"2021-09-16T00:34:35.807Z"},{"rt":1208.8999999761581,"stimulus":"[A] option 1, [L] option 2, [G] neither","key_press":76,"name":"choice","trial_type":"html-keyboard-response","trial_index":70,"time_elapsed":182050,"internal_node_id":"0.0-70.0","response":"2nd","certainty":"high","char":"L","transposition":2,"order":["swapped","shifted"],"probe_pitches":[5,10,5,7,5,2,12,7,0,10,2,7],"shifted_pitches":[5,10,5,7,5,2,13,7,0,10,2,7],"swapped_pitches":[5,10,5,7,5,12,2,7,0,10,2,7],"shift_direction":1,"question_num":51,"has_decoy":false,"subject":"S1C1218","sona":"41620","block":1,"time":"2021-09-16T00:34:35.807Z"},{"rt":4192.5,"stimulus":"[A] option 1, [L] option 2, [G] neither","key_press":76,"name":"choice","trial_type":"html-keyboard-response","trial_index":81,"time_elapsed":205579,"internal_node_id":"0.0-81.0","response":"2nd","certainty":"high","char":"L","transposition":2,"order":["shifted","swapped"],"probe_pitches":[9,6,-1,1,3,1,-2,8,0,5,7,8],"shifted_pitches":[9,6,-1,1,3,2,-2,8,0,5,7,8],"swapped_pitches":[9,6,-1,1,3,-2,1,8,0,5,7,8],"shift_direction":1,"question_num":61,"has_decoy":false,"subject":"S1C1218","sona":"41620","block":1,"time":"2021-09-16T00:34:35.807Z"},{"rt":2414.300000011921,"stimulus":"[A] option 1, [L] option 2, [G] neither","key_press":65,"name":"choice","trial_type":"html-keyboard-response","trial_index":92,"time_elapsed":226681,"internal_node_id":"0.0-92.0","response":"1st","certainty":"high","char":"A","transposition":-3,"order":["shifted","swapped"],"probe_pitches":[2,6,3,2,9,-1,3,6,9,10,5,3],"shifted_pitches":[2,6,3,2,9,-1,4,6,9,10,5,3],"swapped_pitches":[2,6,3,2,9,3,-1,6,9,10,5,3],"shift_direction":1,"question_num":71,"has_decoy":false,"subject":"S1C1218","sona":"41620","block":1,"time":"2021-09-16T00:34:35.807Z"},{"rt":1072.199999988079,"stimulus":"[A] option 1, [L] option 2, [G] neither","key_press":76,"name":"choice","trial_type":"html-keyboard-response","trial_index":103,"time_elapsed":247323,"internal_node_id":"0.0-103.0","response":"2nd","certainty":"high","char":"L","transposition":-1,"order":["swapped","shifted"],"probe_pitches":[0,-2,1,4,10,6,-1,8,9,7,0,3],"shifted_pitches":[0,-2,1,4,10,5,-1,8,9,7,0,3],"swapped_pitches":[0,-2,1,4,10,-1,6,8,9,7,0,3],"shift_direction":-1,"question_num":81,"has_decoy":false,"subject":"S1C1218","sona":"41620","block":1,"time":"2021-09-16T00:34:35.807Z"},{"rt":1350.199999988079,"stimulus":"[A] option 1, [L] option 2, [G] neither","key_press":65,"name":"choice","trial_type":"html-keyboard-response","trial_index":114,"time_elapsed":266903,"internal_node_id":"0.0-114.0","response":"1st","certainty":"high","char":"A","transposition":0,"order":["shifted","swapped"],"probe_pitches":[5,3,0,5,12,8,0,12,10,0,8,5],"shifted_pitches":[5,3,0,5,12,8,-1,12,10,0,8,5],"swapped_pitches":[5,3,0,5,12,0,8,12,10,0,8,5],"shift_direction":-1,"question_num":91,"has_decoy":false,"subject":"S1C1218","sona":"41620","block":1,"time":"2021-09-16T00:34:35.807Z"},{"rt":1715.699999988079,"stimulus":"[A] option 1, [L] option 2, [G] neither","key_press":65,"name":"choice","trial_type":"html-keyboard-response","trial_index":125,"time_elapsed":287611,"internal_node_id":"0.0-125.0","response":"1st","certainty":"high","char":"A","transposition":3,"order":["swapped","shifted"],"probe_pitches":[9,7,6,4,7,-1,2,1,-1,6,7,8],"shifted_pitches":[9,7,6,4,7,0,2,1,-1,6,7,8],"swapped_pitches":[9,7,6,4,7,2,-1,1,-1,6,7,8],"shift_direction":1,"question_num":101,"has_decoy":false,"subject":"S1C1218","sona":"41620","block":1,"time":"2021-09-16T00:34:35.807Z"},{"rt":1392.5999999642372,"stimulus":"[A] option 1, [L] option 2, [G] neither","key_press":65,"name":"choice","trial_type":"html-keyboard-response","trial_index":136,"time_elapsed":308088,"internal_node_id":"0.0-136.0","response":"1st","certainty":"high","char":"A","transposition":-2,"order":["shifted","swapped"],"probe_pitches":[4,2,7,12,7,4,9,2,9,2,0,12],"shifted_pitches":[4,2,7,12,7,4,10,2,9,2,0,12],"swapped_pitches":[4,2,7,12,7,9,4,2,9,2,0,12],"shift_direction":1,"question_num":111,"has_decoy":false,"subject":"S1C1218","sona":"41620","block":1,"time":"2021-09-16T00:34:35.807Z"},{"rt":6102.100000023842,"stimulus":"[A] option 1, [L] option 2, [G] neither","key_press":65,"name":"choice","trial_type":"html-keyboard-response","trial_index":147,"time_elapsed":332717,"internal_node_id":"0.0-147.0","response":"1st","certainty":"high","char":"A","transposition":1,"order":["shifted","swapped"],"probe_pitches":[9,7,4,9,7,4,6,-2,1,-1,6,7],"shifted_pitches":[9,7,4,9,7,3,6,-2,1,-1,6,7],"swapped_pitches":[9,7,4,9,7,6,4,-2,1,-1,6,7],"shift_direction":-1,"question_num":121,"has_decoy":false,"subject":"S1C1218","sona":"41620","block":1,"time":"2021-09-16T00:34:35.807Z"},{"rt":2561.600000023842,"stimulus":"[A] option 1, [L] option 2, [G] neither","key_press":65,"name":"choice","trial_type":"html-keyboard-response","trial_index":158,"time_elapsed":353684,"internal_node_id":"0.0-158.0","response":"1st","certainty":"high","char":"A","transposition":-1,"order":["shifted","swapped"],"probe_pitches":[5,3,7,12,3,7,10,5,7,12,5,3],"shifted_pitches":[5,3,7,12,3,8,10,5,7,12,5,3],"swapped_pitches":[5,3,7,12,3,10,7,5,7,12,5,3],"shift_direction":1,"question_num":131,"has_decoy":false,"subject":"S1C1218","sona":"41620","block":1,"time":"2021-09-16T00:34:35.807Z"},{"rt":13092.099999964237,"stimulus":"[A] option 1, [L] option 2, [G] neither","key_press":65,"name":"choice","trial_type":"html-keyboard-response","trial_index":169,"time_elapsed":385527,"internal_node_id":"0.0-169.0","response":"1st","certainty":"high","char":"A","transposition":3,"order":["swapped","shifted"],"probe_pitches":[10,8,3,0,8,3,0,5,3,12,0,10],"shifted_pitches":[10,8,3,0,8,3,1,5,3,12,0,10],"swapped_pitches":[10,8,3,0,8,0,3,5,3,12,0,10],"shift_direction":1,"question_num":141,"has_decoy":false,"subject":"S1C1218","sona":"41620","block":1,"time":"2021-09-16T00:34:35.807Z"},{"rt":532.5,"stimulus":"[A] option 1, [L] option 2, [G] neither","key_press":65,"name":"choice","trial_type":"html-keyboard-response","trial_index":180,"time_elapsed":405245,"internal_node_id":"0.0-180.0","response":"1st","certainty":"high","char":"A","transposition":-1,"order":["shifted","swapped"],"probe_pitches":[5,0,5,7,5,10,3,7,3,12,5,7],"shifted_pitches":[5,0,5,7,5,11,3,7,3,12,5,7],"swapped_pitches":[5,0,5,7,5,3,10,7,3,12,5,7],"shift_direction":1,"question_num":151,"has_decoy":false,"subject":"S1C1218","sona":"41620","block":1,"time":"2021-09-16T00:34:35.807Z"},{"rt":1239.3999999761581,"stimulus":"[A] option 1, [L] option 2, [G] neither","key_press":76,"name":"choice","trial_type":"html-keyboard-response","trial_index":191,"time_elapsed":425302,"internal_node_id":"0.0-191.0","response":"2nd","certainty":"high","char":"L","transposition":-3,"order":["swapped","shifted"],"probe_pitches":[1,2,5,-1,-2,8,10,2,-1,4,-2,0],"shifted_pitches":[1,2,5,-1,-2,9,10,2,-1,4,-2,0],"swapped_pitches":[1,2,5,-1,-2,10,8,2,-1,4,-2,0],"shift_direction":1,"question_num":161,"has_decoy":false,"subject":"S1C1218","sona":"41620","block":1,"time":"2021-09-16T00:34:35.807Z"},{"rt":9372,"stimulus":"[A] option 1, [L] option 2, [G] neither","key_press":76,"name":"choice","trial_type":"html-keyboard-response","trial_index":202,"time_elapsed":456488,"internal_node_id":"0.0-202.0","response":"2nd","certainty":"high","char":"L","transposition":0,"order":["swapped","shifted"],"probe_pitches":[0,1,5,9,8,-1,7,3,8,0,1,9],"shifted_pitches":[0,1,5,9,8,-1,6,3,8,0,1,9],"swapped_pitches":[0,1,5,9,8,7,-1,3,8,0,1,9],"shift_direction":-1,"question_num":171,"has_decoy":false,"subject":"S1C1218","sona":"41620","block":1,"time":"2021-09-16T00:34:35.807Z"},{"rt":950.3000000119209,"stimulus":"[A] option 1, [L] option 2, [G] neither","key_press":76,"name":"choice","trial_type":"html-keyboard-response","trial_index":213,"time_elapsed":476302,"internal_node_id":"0.0-213.0","response":"2nd","certainty":"high","char":"L","transposition":-1,"order":["shifted","swapped"],"probe_pitches":[8,6,10,3,9,3,2,8,9,0,-2,-1],"shifted_pitches":[8,6,10,3,9,3,1,8,9,0,-2,-1],"swapped_pitches":[8,6,10,3,9,2,3,8,9,0,-2,-1],"shift_direction":-1,"question_num":181,"has_decoy":false,"subject":"S1C1218","sona":"41620","block":1,"time":"2021-09-16T00:34:35.807Z"},{"rt":683.0999999642372,"stimulus":"[A] option 1, [L] option 2, [G] neither","key_press":76,"name":"choice","trial_type":"html-keyboard-response","trial_index":224,"time_elapsed":495582,"internal_node_id":"0.0-224.0","response":"2nd","certainty":"high","char":"L","transposition":-3,"order":["swapped","shifted"],"probe_pitches":[7,9,5,9,5,9,0,5,7,2,12,5],"shifted_pitches":[7,9,5,9,5,8,0,5,7,2,12,5],"swapped_pitches":[7,9,5,9,5,0,9,5,7,2,12,5],"shift_direction":-1,"question_num":191,"has_decoy":false,"subject":"S1C1218","sona":"41620","block":1,"time":"2021-09-16T00:34:35.807Z"}]