[{"rt":9516.900000002235,"stimulus":"[A] option 1, [L] option 2, [G] neither","key_press":76,"name":"choice","trial_type":"html-keyboard-response","trial_index":15,"time_elapsed":114068,"internal_node_id":"0.0-15.0","response":"2nd","certainty":"high","char":"L","transposition":2,"order":["swapped","shifted"],"probe_pitches":[7,11,10,4,6,9,2,0],"shifted_pitches":[7,11,10,5,6,9,2,0],"swapped_pitches":[7,11,10,6,4,9,2,0],"shift_direction":1,"question_num":1,"has_decoy":false,"subject":"S1C0831","sona":"41504","block":1,"time":"2021-09-17T21:10:00.754Z"},{"rt":1560.1000000014901,"stimulus":"[A] option 1, [L] option 2, [G] neither","key_press":65,"name":"choice","trial_type":"html-keyboard-response","trial_index":26,"time_elapsed":130779,"internal_node_id":"0.0-26.0","response":"1st","certainty":"high","char":"A","transposition":-1,"order":["shifted","swapped"],"probe_pitches":[10,5,8,3,1,8,5,10],"shifted_pitches":[10,5,8,3,0,8,5,10],"swapped_pitches":[10,5,8,1,3,8,5,10],"shift_direction":-1,"question_num":11,"has_decoy":false,"subject":"S1C0831","sona":"41504","block":1,"time":"2021-09-17T21:10:00.754Z"},{"rt":1591.5999999977648,"stimulus":"[A] option 1, [L] option 2, [G] neither","key_press":76,"name":"choice","trial_type":"html-keyboard-response","trial_index":37,"time_elapsed":147832,"internal_node_id":"0.0-37.0","response":"2nd","certainty":"high","char":"L","transposition":-2,"order":["swapped","shifted"],"probe_pitches":[4,2,1,4,8,10,1,3],"shifted_pitches":[4,2,1,4,7,10,1,3],"swapped_pitches":[4,2,1,8,4,10,1,3],"shift_direction":-1,"question_num":21,"has_decoy":false,"subject":"S1C0831","sona":"41504","block":1,"time":"2021-09-17T21:10:00.754Z"},{"rt":1571.300000000745,"stimulus":"[A] option 1, [L] option 2, [G] neither","key_press":65,"name":"choice","trial_type":"html-keyboard-response","trial_index":48,"time_elapsed":164341,"internal_node_id":"0.0-48.0","response":"1st","certainty":"high","char":"A","transposition":-2,"order":["shifted","swapped"],"probe_pitches":[3,1,3,5,1,8,10,5],"shifted_pitches":[3,1,3,5,0,8,10,5],"swapped_pitches":[3,1,3,1,5,8,10,5],"shift_direction":-1,"question_num":31,"has_decoy":false,"subject":"S1C0831","sona":"41504","block":1,"time":"2021-09-17T21:10:00.754Z"},{"rt":4137.300000000745,"stimulus":"[A] option 1, [L] option 2, [G] neither","key_press":71,"name":"choice","trial_type":"html-keyboard-response","trial_index":59,"time_elapsed":186791,"internal_node_id":"0.0-59.0","response":"neither","certainty":"high","char":"G","transposition":1,"order":["shifted","swapped"],"probe_pitches":[12,9,8,4,1,0,2,9],"shifted_pitches":[12,9,8,3,1,0,2,9],"swapped_pitches":[12,9,8,1,4,0,2,9],"shift_direction":-1,"question_num":41,"has_decoy":false,"subject":"S1C0831","sona":"41504","block":1,"time":"2021-09-17T21:10:00.754Z"},{"rt":1481.3999999985099,"stimulus":"[A] option 1, [L] option 2, [G] neither","key_press":76,"name":"choice","trial_type":"html-keyboard-response","trial_index":70,"time_elapsed":203585,"internal_node_id":"0.0-70.0","response":"2nd","certainty":"high","char":"L","transposition":0,"order":["swapped","shifted"],"probe_pitches":[4,1,4,9,11,13,6,13],"shifted_pitches":[4,1,4,10,11,13,6,13],"swapped_pitches":[4,1,4,11,9,13,6,13],"shift_direction":1,"question_num":51,"has_decoy":false,"subject":"S1C0831","sona":"41504","block":1,"time":"2021-09-17T21:10:00.754Z"},{"rt":1129.3999999985099,"stimulus":"[A] option 1, [L] option 2, [G] neither","key_press":76,"name":"choice","trial_type":"html-keyboard-response","trial_index":81,"time_elapsed":219350,"internal_node_id":"0.0-81.0","response":"2nd","certainty":"high","char":"L","transposition":1,"order":["swapped","shifted"],"probe_pitches":[13,11,8,1,6,3,13,11],"shifted_pitches":[13,11,8,1,5,3,13,11],"swapped_pitches":[13,11,8,6,1,3,13,11],"shift_direction":-1,"question_num":61,"has_decoy":false,"subject":"S1C0831","sona":"41504","block":1,"time":"2021-09-17T21:10:00.754Z"},{"rt":1799.6000000014901,"stimulus":"[A] option 1, [L] option 2, [G] neither","key_press":65,"name":"choice","trial_type":"html-keyboard-response","trial_index":92,"time_elapsed":249941,"internal_node_id":"0.0-92.0","response":"1st","certainty":"high","char":"A","transposition":-3,"order":["shifted","swapped"],"probe_pitches":[1,6,11,6,4,1,9,1],"shifted_pitches":[1,6,11,5,4,1,9,1],"swapped_pitches":[1,6,11,4,6,1,9,1],"shift_direction":-1,"question_num":71,"has_decoy":false,"subject":"S1C0831","sona":"41504","block":1,"time":"2021-09-17T21:10:00.754Z"},{"rt":1139.699999999255,"stimulus":"[A] option 1, [L] option 2, [G] neither","key_press":76,"name":"choice","trial_type":"html-keyboard-response","trial_index":103,"time_elapsed":266170,"internal_node_id":"0.0-103.0","response":"2nd","certainty":"high","char":"L","transposition":-3,"order":["shifted","swapped"],"probe_pitches":[8,6,2,6,10,7,11,6],"shifted_pitches":[8,6,2,6,9,7,11,6],"swapped_pitches":[8,6,2,10,6,7,11,6],"shift_direction":-1,"question_num":81,"has_decoy":false,"subject":"S1C0831","sona":"41504","block":1,"time":"2021-09-17T21:10:00.754Z"},{"rt":1911.300000000745,"stimulus":"[A] option 1, [L] option 2, [G] neither","key_press":65,"name":"choice","trial_type":"html-keyboard-response","trial_index":114,"time_elapsed":282701,"internal_node_id":"0.0-114.0","response":"1st","certainty":"high","char":"A","transposition":-3,"order":["swapped","shifted"],"probe_pitches":[13,11,13,6,3,8,3,1],"shifted_pitches":[13,11,13,6,4,8,3,1],"swapped_pitches":[13,11,13,3,6,8,3,1],"shift_direction":1,"question_num":91,"has_decoy":false,"subject":"S1C0831","sona":"41504","block":1,"time":"2021-09-17T21:10:00.754Z"},{"rt":3109.599999997765,"stimulus":"[A] option 1, [L] option 2, [G] neither","key_press":71,"name":"choice","trial_type":"html-keyboard-response","trial_index":125,"time_elapsed":300267,"internal_node_id":"0.0-125.0","response":"neither","certainty":"high","char":"G","transposition":-1,"order":["swapped","shifted"],"probe_pitches":[3,9,12,9,0,4,12,6],"shifted_pitches":[3,9,12,10,0,4,12,6],"swapped_pitches":[3,9,12,0,9,4,12,6],"shift_direction":1,"question_num":101,"has_decoy":false,"subject":"S1C0831","sona":"41504","block":1,"time":"2021-09-17T21:10:00.754Z"},{"rt":1368.199999999255,"stimulus":"[A] option 1, [L] option 2, [G] neither","key_press":65,"name":"choice","trial_type":"html-keyboard-response","trial_index":136,"time_elapsed":316688,"internal_node_id":"0.0-136.0","response":"1st","certainty":"high","char":"A","transposition":-1,"order":["shifted","swapped"],"probe_pitches":[8,10,5,4,10,1,8,2],"shifted_pitches":[8,10,5,4,11,1,8,2],"swapped_pitches":[8,10,5,10,4,1,8,2],"shift_direction":1,"question_num":111,"has_decoy":false,"subject":"S1C0831","sona":"41504","block":1,"time":"2021-09-17T21:10:00.754Z"},{"rt":3482.5,"stimulus":"[A] option 1, [L] option 2, [G] neither","key_press":65,"name":"choice","trial_type":"html-keyboard-response","trial_index":147,"time_elapsed":334632,"internal_node_id":"0.0-147.0","response":"1st","certainty":"high","char":"A","transposition":3,"order":["shifted","swapped"],"probe_pitches":[10,13,8,3,6,8,10,6],"shifted_pitches":[10,13,8,4,6,8,10,6],"swapped_pitches":[10,13,8,6,3,8,10,6],"shift_direction":1,"question_num":121,"has_decoy":false,"subject":"S1C0831","sona":"41504","block":1,"time":"2021-09-17T21:10:00.754Z"},{"rt":1328.300000000745,"stimulus":"[A] option 1, [L] option 2, [G] neither","key_press":71,"name":"choice","trial_type":"html-keyboard-response","trial_index":158,"time_elapsed":350797,"internal_node_id":"0.0-158.0","response":"neither","certainty":"high","char":"G","transposition":3,"order":["shifted","swapped"],"probe_pitches":[1,0,1,9,2,7,10,9],"shifted_pitches":[1,0,1,8,2,7,10,9],"swapped_pitches":[1,0,1,2,9,7,10,9],"shift_direction":-1,"question_num":131,"has_decoy":false,"subject":"S1C0831","sona":"41504","block":1,"time":"2021-09-17T21:10:00.754Z"},{"rt":1309.8999999985099,"stimulus":"[A] option 1, [L] option 2, [G] neither","key_press":76,"name":"choice","trial_type":"html-keyboard-response","trial_index":169,"time_elapsed":367320,"internal_node_id":"0.0-169.0","response":"2nd","certainty":"high","char":"L","transposition":-3,"order":["shifted","swapped"],"probe_pitches":[6,8,9,11,3,0,11,10],"shifted_pitches":[6,8,9,11,2,0,11,10],"swapped_pitches":[6,8,9,3,11,0,11,10],"shift_direction":-1,"question_num":141,"has_decoy":false,"subject":"S1C0831","sona":"41504","block":1,"time":"2021-09-17T21:10:00.754Z"},{"rt":1315.5,"stimulus":"[A] option 1, [L] option 2, [G] neither","key_press":76,"name":"choice","trial_type":"html-keyboard-response","trial_index":180,"time_elapsed":383062,"internal_node_id":"0.0-180.0","response":"2nd","certainty":"high","char":"L","transposition":-2,"order":["swapped","shifted"],"probe_pitches":[11,6,12,11,3,7,11,3],"shifted_pitches":[11,6,12,11,4,7,11,3],"swapped_pitches":[11,6,12,3,11,7,11,3],"shift_direction":1,"question_num":151,"has_decoy":false,"subject":"S1C0831","sona":"41504","block":1,"time":"2021-09-17T21:10:00.754Z"},{"rt":695.3000000007451,"stimulus":"[A] option 1, [L] option 2, [G] neither","key_press":76,"name":"choice","trial_type":"html-keyboard-response","trial_index":191,"time_elapsed":398571,"internal_node_id":"0.0-191.0","response":"2nd","certainty":"high","char":"L","transposition":0,"order":["swapped","shifted"],"probe_pitches":[8,4,3,5,1,10,12,7],"shifted_pitches":[8,4,3,6,1,10,12,7],"swapped_pitches":[8,4,3,1,5,10,12,7],"shift_direction":1,"question_num":161,"has_decoy":false,"subject":"S1C0831","sona":"41504","block":1,"time":"2021-09-17T21:10:00.754Z"},{"rt":1130.5,"stimulus":"[A] option 1, [L] option 2, [G] neither","key_press":76,"name":"choice","trial_type":"html-keyboard-response","trial_index":202,"time_elapsed":414002,"internal_node_id":"0.0-202.0","response":"2nd","certainty":"high","char":"L","transposition":2,"order":["swapped","shifted"],"probe_pitches":[6,1,3,6,10,13,8,6],"shifted_pitches":[6,1,3,6,11,13,8,6],"swapped_pitches":[6,1,3,10,6,13,8,6],"shift_direction":1,"question_num":171,"has_decoy":false,"subject":"S1C0831","sona":"41504","block":1,"time":"2021-09-17T21:10:00.754Z"},{"rt":1728.699999999255,"stimulus":"[A] option 1, [L] option 2, [G] neither","key_press":65,"name":"choice","trial_type":"html-keyboard-response","trial_index":213,"time_elapsed":430435,"internal_node_id":"0.0-213.0","response":"1st","certainty":"high","char":"A","transposition":-1,"order":["shifted","swapped"],"probe_pitches":[11,13,8,11,4,6,4,8],"shifted_pitches":[11,13,8,10,4,6,4,8],"swapped_pitches":[11,13,8,4,11,6,4,8],"shift_direction":-1,"question_num":181,"has_decoy":false,"subject":"S1C0831","sona":"41504","block":1,"time":"2021-09-17T21:10:00.754Z"},{"rt":1013.6999999992549,"stimulus":"[A] option 1, [L] option 2, [G] neither","key_press":76,"name":"choice","trial_type":"html-keyboard-response","trial_index":224,"time_elapsed":447085,"internal_node_id":"0.0-224.0","response":"2nd","certainty":"high","char":"L","transposition":-2,"order":["swapped","shifted"],"probe_pitches":[4,6,1,8,13,4,6,11],"shifted_pitches":[4,6,1,9,13,4,6,11],"swapped_pitches":[4,6,1,13,8,4,6,11],"shift_direction":1,"question_num":191,"has_decoy":false,"subject":"S1C0831","sona":"41504","block":1,"time":"2021-09-17T21:10:00.754Z"}]