[{"rt":1435.699999999255,"stimulus":"[A] option 1, [L] option 2, [G] neither","key_press":76,"name":"choice","trial_type":"html-keyboard-response","trial_index":10,"time_elapsed":73060,"internal_node_id":"0.0-10.0","subject":"S1C0831","sona":"41504","block":5,"time":"2021-09-17T21:38:17.249Z","response":"2nd","certainty":"high","char":"L","transposition":-2,"order":["shifted","swapped"],"probe_pitches":[9,11,15,7,14,6,3,14],"shifted_pitches":[9,11,15,7,13,6,3,14],"swapped_pitches":[9,11,15,14,7,6,3,14],"shift_direction":-1,"question_num":1,"has_decoy":false},{"rt":1265.5,"stimulus":"[A] option 1, [L] option 2, [G] neither","key_press":76,"name":"choice","trial_type":"html-keyboard-response","trial_index":21,"time_elapsed":88903,"internal_node_id":"0.0-21.0","subject":"S1C0831","sona":"41504","block":5,"time":"2021-09-17T21:38:17.249Z","response":"2nd","certainty":"high","char":"L","transposition":-3,"order":["shifted","swapped"],"probe_pitches":[8,6,3,6,13,10,14,6],"shifted_pitches":[8,6,3,6,12,10,14,6],"swapped_pitches":[8,6,3,13,6,10,14,6],"shift_direction":-1,"question_num":11,"has_decoy":false},{"rt":1798.3999999985099,"stimulus":"[A] option 1, [L] option 2, [G] neither","key_press":71,"name":"choice","trial_type":"html-keyboard-response","trial_index":32,"time_elapsed":105148,"internal_node_id":"0.0-32.0","subject":"S1C0831","sona":"41504","block":5,"time":"2021-09-17T21:38:17.249Z","response":"neither","certainty":"high","char":"G","transposition":-3,"order":["shifted","swapped"],"probe_pitches":[11,9,4,2,7,-1,4,7],"shifted_pitches":[11,9,4,2,6,-1,4,7],"swapped_pitches":[11,9,4,7,2,-1,4,7],"shift_direction":-1,"question_num":21,"has_decoy":false},{"rt":1571.199999999255,"stimulus":"[A] option 1, [L] option 2, [G] neither","key_press":65,"name":"choice","trial_type":"html-keyboard-response","trial_index":43,"time_elapsed":121497,"internal_node_id":"0.0-43.0","subject":"S1C0831","sona":"41504","block":5,"time":"2021-09-17T21:38:17.249Z","response":"1st","certainty":"high","char":"A","transposition":0,"order":["swapped","shifted"],"probe_pitches":[4,3,5,4,9,7,4,9],"shifted_pitches":[4,3,5,4,8,7,4,9],"swapped_pitches":[4,3,5,9,4,7,4,9],"shift_direction":-1,"question_num":31,"has_decoy":false},{"rt":1573.699999999255,"stimulus":"[A] option 1, [L] option 2, [G] neither","key_press":76,"name":"choice","trial_type":"html-keyboard-response","trial_index":54,"time_elapsed":137648,"internal_node_id":"0.0-54.0","subject":"S1C0831","sona":"41504","block":5,"time":"2021-09-17T21:38:17.249Z","response":"2nd","certainty":"high","char":"L","transposition":-2,"order":["swapped","shifted"],"probe_pitches":[11,7,9,13,5,12,3,4],"shifted_pitches":[11,7,9,14,5,12,3,4],"swapped_pitches":[11,7,9,5,13,12,3,4],"shift_direction":1,"question_num":41,"has_decoy":false},{"rt":2152.89999999851,"stimulus":"[A] option 1, [L] option 2, [G] neither","key_press":65,"name":"choice","trial_type":"html-keyboard-response","trial_index":65,"time_elapsed":154322,"internal_node_id":"0.0-65.0","subject":"S1C0831","sona":"41504","block":5,"time":"2021-09-17T21:38:17.249Z","response":"1st","certainty":"high","char":"A","transposition":3,"order":["shifted","swapped"],"probe_pitches":[9,4,-1,4,11,2,9,7],"shifted_pitches":[9,4,-1,3,11,2,9,7],"swapped_pitches":[9,4,-1,11,4,2,9,7],"shift_direction":-1,"question_num":51,"has_decoy":false},{"rt":2085.300000000745,"stimulus":"[A] option 1, [L] option 2, [G] neither","key_press":65,"name":"choice","trial_type":"html-keyboard-response","trial_index":76,"time_elapsed":170877,"internal_node_id":"0.0-76.0","subject":"S1C0831","sona":"41504","block":5,"time":"2021-09-17T21:38:17.249Z","response":"1st","certainty":"high","char":"A","transposition":-2,"order":["swapped","shifted"],"probe_pitches":[8,11,4,11,6,4,-1,1],"shifted_pitches":[8,11,4,11,7,4,-1,1],"swapped_pitches":[8,11,4,6,11,4,-1,1],"shift_direction":1,"question_num":61,"has_decoy":false},{"rt":1512.300000000745,"stimulus":"[A] option 1, [L] option 2, [G] neither","key_press":76,"name":"choice","trial_type":"html-keyboard-response","trial_index":87,"time_elapsed":187187,"internal_node_id":"0.0-87.0","subject":"S1C0831","sona":"41504","block":5,"time":"2021-09-17T21:38:17.249Z","response":"2nd","certainty":"high","char":"L","transposition":0,"order":["swapped","shifted"],"probe_pitches":[-1,1,6,8,11,3,-1,3],"shifted_pitches":[-1,1,6,8,10,3,-1,3],"swapped_pitches":[-1,1,6,11,8,3,-1,3],"shift_direction":-1,"question_num":71,"has_decoy":false},{"rt":2102.400000002235,"stimulus":"[A] option 1, [L] option 2, [G] neither","key_press":71,"name":"choice","trial_type":"html-keyboard-response","trial_index":98,"time_elapsed":203965,"internal_node_id":"0.0-98.0","subject":"S1C0831","sona":"41504","block":5,"time":"2021-09-17T21:38:17.249Z","response":"neither","certainty":"high","char":"G","transposition":-1,"order":["swapped","shifted"],"probe_pitches":[5,9,7,3,9,15,9,8],"shifted_pitches":[5,9,7,3,10,15,9,8],"swapped_pitches":[5,9,7,9,3,15,9,8],"shift_direction":1,"question_num":81,"has_decoy":false},{"rt":3138.7000000029802,"stimulus":"[A] option 1, [L] option 2, [G] neither","key_press":71,"name":"choice","trial_type":"html-keyboard-response","trial_index":109,"time_elapsed":221664,"internal_node_id":"0.0-109.0","subject":"S1C0831","sona":"41504","block":5,"time":"2021-09-17T21:38:17.249Z","response":"neither","certainty":"high","char":"G","transposition":1,"order":["shifted","swapped"],"probe_pitches":[15,14,13,5,9,12,4,11],"shifted_pitches":[15,14,13,6,9,12,4,11],"swapped_pitches":[15,14,13,9,5,12,4,11],"shift_direction":1,"question_num":91,"has_decoy":false},{"rt":1116.8999999985099,"stimulus":"[A] option 1, [L] option 2, [G] neither","key_press":76,"name":"choice","trial_type":"html-keyboard-response","trial_index":120,"time_elapsed":237278,"internal_node_id":"0.0-120.0","subject":"S1C0831","sona":"41504","block":5,"time":"2021-09-17T21:38:17.249Z","response":"2nd","certainty":"high","char":"L","transposition":2,"order":["swapped","shifted"],"probe_pitches":[-1,1,4,-1,6,8,-1,1],"shifted_pitches":[-1,1,4,-1,7,8,-1,1],"swapped_pitches":[-1,1,4,6,-1,8,-1,1],"shift_direction":1,"question_num":101,"has_decoy":false},{"rt":1351.6000000014901,"stimulus":"[A] option 1, [L] option 2, [G] neither","key_press":76,"name":"choice","trial_type":"html-keyboard-response","trial_index":131,"time_elapsed":253121,"internal_node_id":"0.0-131.0","subject":"S1C0831","sona":"41504","block":5,"time":"2021-09-17T21:38:17.249Z","response":"2nd","certainty":"high","char":"L","transposition":-1,"order":["swapped","shifted"],"probe_pitches":[9,11,4,2,9,-1,2,6],"shifted_pitches":[9,11,4,1,9,-1,2,6],"swapped_pitches":[9,11,4,9,2,-1,2,6],"shift_direction":-1,"question_num":111,"has_decoy":false},{"rt":1519.4000000022352,"stimulus":"[A] option 1, [L] option 2, [G] neither","key_press":65,"name":"choice","trial_type":"html-keyboard-response","trial_index":142,"time_elapsed":269153,"internal_node_id":"0.0-142.0","subject":"S1C0831","sona":"41504","block":5,"time":"2021-09-17T21:38:17.249Z","response":"1st","certainty":"high","char":"A","transposition":-3,"order":["swapped","shifted"],"probe_pitches":[3,5,4,8,3,10,3,10],"shifted_pitches":[3,5,4,7,3,10,3,10],"swapped_pitches":[3,5,4,3,8,10,3,10],"shift_direction":-1,"question_num":121,"has_decoy":false},{"rt":1779.6000000014901,"stimulus":"[A] option 1, [L] option 2, [G] neither","key_press":65,"name":"choice","trial_type":"html-keyboard-response","trial_index":153,"time_elapsed":289406,"internal_node_id":"0.0-153.0","subject":"S1C0831","sona":"41504","block":5,"time":"2021-09-17T21:38:17.249Z","response":"1st","certainty":"high","char":"A","transposition":-2,"order":["shifted","swapped"],"probe_pitches":[9,6,9,1,4,9,1,-1],"shifted_pitches":[9,6,9,1,5,9,1,-1],"swapped_pitches":[9,6,9,4,1,9,1,-1],"shift_direction":1,"question_num":131,"has_decoy":false},{"rt":1129.4000000022352,"stimulus":"[A] option 1, [L] option 2, [G] neither","key_press":76,"name":"choice","trial_type":"html-keyboard-response","trial_index":164,"time_elapsed":305471,"internal_node_id":"0.0-164.0","subject":"S1C0831","sona":"41504","block":5,"time":"2021-09-17T21:38:17.249Z","response":"2nd","certainty":"high","char":"L","transposition":-1,"order":["swapped","shifted"],"probe_pitches":[8,5,11,8,12,13,10,5],"shifted_pitches":[8,5,11,9,12,13,10,5],"swapped_pitches":[8,5,11,12,8,13,10,5],"shift_direction":1,"question_num":141,"has_decoy":false},{"rt":1595.8999999985099,"stimulus":"[A] option 1, [L] option 2, [G] neither","key_press":76,"name":"choice","trial_type":"html-keyboard-response","trial_index":175,"time_elapsed":322015,"internal_node_id":"0.0-175.0","subject":"S1C0831","sona":"41504","block":5,"time":"2021-09-17T21:38:17.249Z","response":"2nd","certainty":"high","char":"L","transposition":-1,"order":["swapped","shifted"],"probe_pitches":[8,6,3,1,-1,6,3,8],"shifted_pitches":[8,6,3,2,-1,6,3,8],"swapped_pitches":[8,6,3,-1,1,6,3,8],"shift_direction":1,"question_num":151,"has_decoy":false},{"rt":3146.39999999851,"stimulus":"[A] option 1, [L] option 2, [G] neither","key_press":65,"name":"choice","trial_type":"html-keyboard-response","trial_index":186,"time_elapsed":340339,"internal_node_id":"0.0-186.0","subject":"S1C0831","sona":"41504","block":5,"time":"2021-09-17T21:38:17.249Z","response":"1st","certainty":"high","char":"A","transposition":1,"order":["shifted","swapped"],"probe_pitches":[6,9,11,4,1,6,9,-1],"shifted_pitches":[6,9,11,5,1,6,9,-1],"swapped_pitches":[6,9,11,1,4,6,9,-1],"shift_direction":1,"question_num":161,"has_decoy":false},{"rt":2782.300000000745,"stimulus":"[A] option 1, [L] option 2, [G] neither","key_press":76,"name":"choice","trial_type":"html-keyboard-response","trial_index":197,"time_elapsed":359301,"internal_node_id":"0.0-197.0","subject":"S1C0831","sona":"41504","block":5,"time":"2021-09-17T21:38:17.249Z","response":"2nd","certainty":"high","char":"L","transposition":3,"order":["shifted","swapped"],"probe_pitches":[10,9,3,4,10,12,9,6],"shifted_pitches":[10,9,3,5,10,12,9,6],"swapped_pitches":[10,9,3,10,4,12,9,6],"shift_direction":1,"question_num":171,"has_decoy":false},{"rt":2303.5,"stimulus":"[A] option 1, [L] option 2, [G] neither","key_press":71,"name":"choice","trial_type":"html-keyboard-response","trial_index":208,"time_elapsed":376644,"internal_node_id":"0.0-208.0","subject":"S1C0831","sona":"41504","block":5,"time":"2021-09-17T21:38:17.249Z","response":"neither","certainty":"high","char":"G","transposition":2,"order":["shifted","swapped"],"probe_pitches":[6,12,15,14,12,8,15,9],"shifted_pitches":[6,12,15,14,11,8,15,9],"swapped_pitches":[6,12,15,12,14,8,15,9],"shift_direction":-1,"question_num":181,"has_decoy":false},{"rt":1629.800000000745,"stimulus":"[A] option 1, [L] option 2, [G] neither","key_press":65,"name":"choice","trial_type":"html-keyboard-response","trial_index":219,"time_elapsed":394678,"internal_node_id":"0.0-219.0","subject":"S1C0831","sona":"41504","block":5,"time":"2021-09-17T21:38:17.249Z","response":"1st","certainty":"high","char":"A","transposition":-3,"order":["shifted","swapped"],"probe_pitches":[9,4,6,9,4,2,4,11],"shifted_pitches":[9,4,6,8,4,2,4,11],"swapped_pitches":[9,4,6,4,9,2,4,11],"shift_direction":-1,"question_num":191,"has_decoy":false}]