[{"rt":1278.199999999255,"stimulus":"[A] option 1, [L] option 2, [G] neither","key_press":76,"name":"choice","trial_type":"html-keyboard-response","trial_index":10,"time_elapsed":32175,"internal_node_id":"0.0-10.0","subject":"S1C0831","sona":"41504","block":2,"time":"2021-09-17T21:16:29.202Z","response":"2nd","certainty":"high","char":"L","transposition":-2,"order":["swapped","shifted"],"probe_pitches":[11,6,4,9,13,8,9,4],"shifted_pitches":[11,6,4,10,13,8,9,4],"swapped_pitches":[11,6,4,13,9,8,9,4],"shift_direction":1,"question_num":1,"has_decoy":false},{"rt":1960.300000000745,"stimulus":"[A] option 1, [L] option 2, [G] neither","key_press":71,"name":"choice","trial_type":"html-keyboard-response","trial_index":21,"time_elapsed":50302,"internal_node_id":"0.0-21.0","subject":"S1C0831","sona":"41504","block":2,"time":"2021-09-17T21:16:29.202Z","response":"neither","certainty":"high","char":"G","transposition":-3,"order":["shifted","swapped"],"probe_pitches":[11,14,10,3,7,13,4,9],"shifted_pitches":[11,14,10,3,8,13,4,9],"swapped_pitches":[11,14,10,7,3,13,4,9],"shift_direction":1,"question_num":11,"has_decoy":false},{"rt":1400.800000000745,"stimulus":"[A] option 1, [L] option 2, [G] neither","key_press":76,"name":"choice","trial_type":"html-keyboard-response","trial_index":32,"time_elapsed":67094,"internal_node_id":"0.0-32.0","subject":"S1C0831","sona":"41504","block":2,"time":"2021-09-17T21:16:29.202Z","response":"2nd","certainty":"high","char":"L","transposition":1,"order":["shifted","swapped"],"probe_pitches":[5,3,8,10,13,5,13,7],"shifted_pitches":[5,3,8,10,14,5,13,7],"swapped_pitches":[5,3,8,13,10,5,13,7],"shift_direction":1,"question_num":21,"has_decoy":false},{"rt":1698.1000000014901,"stimulus":"[A] option 1, [L] option 2, [G] neither","key_press":65,"name":"choice","trial_type":"html-keyboard-response","trial_index":43,"time_elapsed":84130,"internal_node_id":"0.0-43.0","subject":"S1C0831","sona":"41504","block":2,"time":"2021-09-17T21:16:29.202Z","response":"1st","certainty":"high","char":"A","transposition":-3,"order":["swapped","shifted"],"probe_pitches":[5,11,10,11,8,10,3,11],"shifted_pitches":[5,11,10,11,7,10,3,11],"swapped_pitches":[5,11,10,8,11,10,3,11],"shift_direction":-1,"question_num":31,"has_decoy":false},{"rt":1077.2000000029802,"stimulus":"[A] option 1, [L] option 2, [G] neither","key_press":65,"name":"choice","trial_type":"html-keyboard-response","trial_index":54,"time_elapsed":100021,"internal_node_id":"0.0-54.0","subject":"S1C0831","sona":"41504","block":2,"time":"2021-09-17T21:16:29.202Z","response":"1st","certainty":"high","char":"A","transposition":-1,"order":["shifted","swapped"],"probe_pitches":[8,13,9,4,3,8,3,4],"shifted_pitches":[8,13,9,5,3,8,3,4],"swapped_pitches":[8,13,9,3,4,8,3,4],"shift_direction":1,"question_num":41,"has_decoy":false},{"rt":2189.699999999255,"stimulus":"[A] option 1, [L] option 2, [G] neither","key_press":71,"name":"choice","trial_type":"html-keyboard-response","trial_index":65,"time_elapsed":117143,"internal_node_id":"0.0-65.0","subject":"S1C0831","sona":"41504","block":2,"time":"2021-09-17T21:16:29.202Z","response":"neither","certainty":"high","char":"G","transposition":-2,"order":["swapped","shifted"],"probe_pitches":[6,4,9,6,13,11,13,6],"shifted_pitches":[6,4,9,7,13,11,13,6],"swapped_pitches":[6,4,9,13,6,11,13,6],"shift_direction":1,"question_num":51,"has_decoy":false},{"rt":6423.599999997765,"stimulus":"[A] option 1, [L] option 2, [G] neither","key_press":76,"name":"choice","trial_type":"html-keyboard-response","trial_index":76,"time_elapsed":138456,"internal_node_id":"0.0-76.0","subject":"S1C0831","sona":"41504","block":2,"time":"2021-09-17T21:16:29.202Z","response":"2nd","certainty":"high","char":"L","transposition":3,"order":["swapped","shifted"],"probe_pitches":[11,15,8,10,7,4,12,13],"shifted_pitches":[11,15,8,9,7,4,12,13],"swapped_pitches":[11,15,8,7,10,4,12,13],"shift_direction":-1,"question_num":61,"has_decoy":false},{"rt":910.3999999985099,"stimulus":"[A] option 1, [L] option 2, [G] neither","key_press":76,"name":"choice","trial_type":"html-keyboard-response","trial_index":87,"time_elapsed":154060,"internal_node_id":"0.0-87.0","subject":"S1C0831","sona":"41504","block":2,"time":"2021-09-17T21:16:29.202Z","response":"2nd","certainty":"high","char":"L","transposition":3,"order":["shifted","swapped"],"probe_pitches":[6,8,13,8,11,3,1,8],"shifted_pitches":[6,8,13,8,10,3,1,8],"swapped_pitches":[6,8,13,11,8,3,1,8],"shift_direction":-1,"question_num":71,"has_decoy":false},{"rt":899,"stimulus":"[A] option 1, [L] option 2, [G] neither","key_press":76,"name":"choice","trial_type":"html-keyboard-response","trial_index":98,"time_elapsed":169546,"internal_node_id":"0.0-98.0","subject":"S1C0831","sona":"41504","block":2,"time":"2021-09-17T21:16:29.202Z","response":"2nd","certainty":"high","char":"L","transposition":-2,"order":["shifted","swapped"],"probe_pitches":[8,13,14,6,12,9,12,10],"shifted_pitches":[8,13,14,6,11,9,12,10],"swapped_pitches":[8,13,14,12,6,9,12,10],"shift_direction":-1,"question_num":81,"has_decoy":false},{"rt":856.6999999992549,"stimulus":"[A] option 1, [L] option 2, [G] neither","key_press":76,"name":"choice","trial_type":"html-keyboard-response","trial_index":109,"time_elapsed":185449,"internal_node_id":"0.0-109.0","subject":"S1C0831","sona":"41504","block":2,"time":"2021-09-17T21:16:29.202Z","response":"2nd","certainty":"high","char":"L","transposition":2,"order":["shifted","swapped"],"probe_pitches":[6,9,3,4,13,15,8,10],"shifted_pitches":[6,9,3,4,12,15,8,10],"swapped_pitches":[6,9,3,13,4,15,8,10],"shift_direction":-1,"question_num":91,"has_decoy":false},{"rt":1564.5999999977648,"stimulus":"[A] option 1, [L] option 2, [G] neither","key_press":76,"name":"choice","trial_type":"html-keyboard-response","trial_index":120,"time_elapsed":201662,"internal_node_id":"0.0-120.0","subject":"S1C0831","sona":"41504","block":2,"time":"2021-09-17T21:16:29.202Z","response":"2nd","certainty":"high","char":"L","transposition":-1,"order":["swapped","shifted"],"probe_pitches":[3,5,6,12,11,3,11,10],"shifted_pitches":[3,5,6,13,11,3,11,10],"swapped_pitches":[3,5,6,11,12,3,11,10],"shift_direction":1,"question_num":101,"has_decoy":false},{"rt":1361.699999999255,"stimulus":"[A] option 1, [L] option 2, [G] neither","key_press":76,"name":"choice","trial_type":"html-keyboard-response","trial_index":131,"time_elapsed":217879,"internal_node_id":"0.0-131.0","subject":"S1C0831","sona":"41504","block":2,"time":"2021-09-17T21:16:29.202Z","response":"2nd","certainty":"high","char":"L","transposition":-1,"order":["swapped","shifted"],"probe_pitches":[5,1,8,1,10,8,3,1],"shifted_pitches":[5,1,8,1,11,8,3,1],"swapped_pitches":[5,1,8,10,1,8,3,1],"shift_direction":1,"question_num":111,"has_decoy":false},{"rt":1665.300000000745,"stimulus":"[A] option 1, [L] option 2, [G] neither","key_press":65,"name":"choice","trial_type":"html-keyboard-response","trial_index":142,"time_elapsed":234642,"internal_node_id":"0.0-142.0","subject":"S1C0831","sona":"41504","block":2,"time":"2021-09-17T21:16:29.202Z","response":"1st","certainty":"high","char":"A","transposition":0,"order":["shifted","swapped"],"probe_pitches":[8,10,5,1,10,13,8,3],"shifted_pitches":[8,10,5,1,9,13,8,3],"swapped_pitches":[8,10,5,10,1,13,8,3],"shift_direction":-1,"question_num":121,"has_decoy":false},{"rt":746.6999999992549,"stimulus":"[A] option 1, [L] option 2, [G] neither","key_press":76,"name":"choice","trial_type":"html-keyboard-response","trial_index":153,"time_elapsed":252101,"internal_node_id":"0.0-153.0","subject":"S1C0831","sona":"41504","block":2,"time":"2021-09-17T21:16:29.202Z","response":"2nd","certainty":"high","char":"L","transposition":1,"order":["swapped","shifted"],"probe_pitches":[8,6,13,6,4,13,11,8],"shifted_pitches":[8,6,13,7,4,13,11,8],"swapped_pitches":[8,6,13,4,6,13,11,8],"shift_direction":1,"question_num":131,"has_decoy":false},{"rt":4530,"stimulus":"[A] option 1, [L] option 2, [G] neither","key_press":71,"name":"choice","trial_type":"html-keyboard-response","trial_index":164,"time_elapsed":271470,"internal_node_id":"0.0-164.0","subject":"S1C0831","sona":"41504","block":2,"time":"2021-09-17T21:16:29.202Z","response":"neither","certainty":"high","char":"G","transposition":2,"order":["shifted","swapped"],"probe_pitches":[6,10,3,1,8,13,10,3],"shifted_pitches":[6,10,3,2,8,13,10,3],"swapped_pitches":[6,10,3,8,1,13,10,3],"shift_direction":1,"question_num":141,"has_decoy":false},{"rt":3237.5,"stimulus":"[A] option 1, [L] option 2, [G] neither","key_press":76,"name":"choice","trial_type":"html-keyboard-response","trial_index":175,"time_elapsed":295418,"internal_node_id":"0.0-175.0","subject":"S1C0831","sona":"41504","block":2,"time":"2021-09-17T21:16:29.202Z","response":"2nd","certainty":"high","char":"L","transposition":-3,"order":["shifted","swapped"],"probe_pitches":[6,1,6,4,11,9,1,6],"shifted_pitches":[6,1,6,3,11,9,1,6],"swapped_pitches":[6,1,6,11,4,9,1,6],"shift_direction":-1,"question_num":151,"has_decoy":false},{"rt":1084.199999999255,"stimulus":"[A] option 1, [L] option 2, [G] neither","key_press":76,"name":"choice","trial_type":"html-keyboard-response","trial_index":186,"time_elapsed":315105,"internal_node_id":"0.0-186.0","subject":"S1C0831","sona":"41504","block":2,"time":"2021-09-17T21:16:29.202Z","response":"2nd","certainty":"high","char":"L","transposition":0,"order":["swapped","shifted"],"probe_pitches":[15,13,10,7,14,4,15,13],"shifted_pitches":[15,13,10,6,14,4,15,13],"swapped_pitches":[15,13,10,14,7,4,15,13],"shift_direction":-1,"question_num":161,"has_decoy":false},{"rt":789.5,"stimulus":"[A] option 1, [L] option 2, [G] neither","key_press":65,"name":"choice","trial_type":"html-keyboard-response","trial_index":197,"time_elapsed":330773,"internal_node_id":"0.0-197.0","subject":"S1C0831","sona":"41504","block":2,"time":"2021-09-17T21:16:29.202Z","response":"1st","certainty":"high","char":"A","transposition":-1,"order":["shifted","swapped"],"probe_pitches":[13,8,3,8,1,10,1,6],"shifted_pitches":[13,8,3,8,0,10,1,6],"swapped_pitches":[13,8,3,1,8,10,1,6],"shift_direction":-1,"question_num":171,"has_decoy":false},{"rt":1869.4000000022352,"stimulus":"[A] option 1, [L] option 2, [G] neither","key_press":65,"name":"choice","trial_type":"html-keyboard-response","trial_index":208,"time_elapsed":347485,"internal_node_id":"0.0-208.0","subject":"S1C0831","sona":"41504","block":2,"time":"2021-09-17T21:16:29.202Z","response":"1st","certainty":"high","char":"A","transposition":-2,"order":["swapped","shifted"],"probe_pitches":[13,8,13,11,8,3,13,6],"shifted_pitches":[13,8,13,12,8,3,13,6],"swapped_pitches":[13,8,13,8,11,3,13,6],"shift_direction":1,"question_num":181,"has_decoy":false},{"rt":991.0999999977648,"stimulus":"[A] option 1, [L] option 2, [G] neither","key_press":76,"name":"choice","trial_type":"html-keyboard-response","trial_index":219,"time_elapsed":364717,"internal_node_id":"0.0-219.0","subject":"S1C0831","sona":"41504","block":2,"time":"2021-09-17T21:16:29.202Z","response":"2nd","certainty":"high","char":"L","transposition":-3,"order":["swapped","shifted"],"probe_pitches":[11,6,8,4,6,1,4,11],"shifted_pitches":[11,6,8,4,5,1,4,11],"swapped_pitches":[11,6,8,6,4,1,4,11],"shift_direction":-1,"question_num":191,"has_decoy":false}]