[{"rt":1549.300000000745,"stimulus":"[A] option 1, [L] option 2, [G] neither","key_press":76,"name":"choice","trial_type":"html-keyboard-response","trial_index":10,"time_elapsed":38232,"internal_node_id":"0.0-10.0","subject":"S1C0831","sona":"41504","block":6,"time":"2021-09-17T21:44:29.698Z","response":"2nd","certainty":"high","char":"L","transposition":-2,"order":["swapped","shifted"],"probe_pitches":[0,-2,3,10,5,8,10,5],"shifted_pitches":[0,-2,3,9,5,8,10,5],"swapped_pitches":[0,-2,3,5,10,8,10,5],"shift_direction":-1,"question_num":1,"has_decoy":false},{"rt":1523.300000000745,"stimulus":"[A] option 1, [L] option 2, [G] neither","key_press":65,"name":"choice","trial_type":"html-keyboard-response","trial_index":21,"time_elapsed":55060,"internal_node_id":"0.0-21.0","subject":"S1C0831","sona":"41504","block":6,"time":"2021-09-17T21:44:29.698Z","response":"1st","certainty":"high","char":"A","transposition":-1,"order":["shifted","swapped"],"probe_pitches":[2,4,5,-1,0,-3,4,0],"shifted_pitches":[2,4,5,-1,1,-3,4,0],"swapped_pitches":[2,4,5,0,-1,-3,4,0],"shift_direction":1,"question_num":11,"has_decoy":false},{"rt":2305.60000000149,"stimulus":"[A] option 1, [L] option 2, [G] neither","key_press":71,"name":"choice","trial_type":"html-keyboard-response","trial_index":32,"time_elapsed":71752,"internal_node_id":"0.0-32.0","subject":"S1C0831","sona":"41504","block":6,"time":"2021-09-17T21:44:29.698Z","response":"neither","certainty":"high","char":"G","transposition":-3,"order":["swapped","shifted"],"probe_pitches":[3,-2,2,9,6,7,4,-2],"shifted_pitches":[3,-2,2,9,5,7,4,-2],"swapped_pitches":[3,-2,2,6,9,7,4,-2],"shift_direction":-1,"question_num":21,"has_decoy":false},{"rt":951.1000000014901,"stimulus":"[A] option 1, [L] option 2, [G] neither","key_press":65,"name":"choice","trial_type":"html-keyboard-response","trial_index":43,"time_elapsed":87316,"internal_node_id":"0.0-43.0","subject":"S1C0831","sona":"41504","block":6,"time":"2021-09-17T21:44:29.698Z","response":"1st","certainty":"high","char":"A","transposition":-1,"order":["shifted","swapped"],"probe_pitches":[-2,3,10,8,1,-2,5,-2],"shifted_pitches":[-2,3,10,8,0,-2,5,-2],"swapped_pitches":[-2,3,10,1,8,-2,5,-2],"shift_direction":-1,"question_num":31,"has_decoy":false},{"rt":969.3999999985099,"stimulus":"[A] option 1, [L] option 2, [G] neither","key_press":65,"name":"choice","trial_type":"html-keyboard-response","trial_index":54,"time_elapsed":102965,"internal_node_id":"0.0-54.0","subject":"S1C0831","sona":"41504","block":6,"time":"2021-09-17T21:44:29.698Z","response":"1st","certainty":"high","char":"A","transposition":2,"order":["swapped","shifted"],"probe_pitches":[1,-2,1,-2,3,5,8,1],"shifted_pitches":[1,-2,1,-3,3,5,8,1],"swapped_pitches":[1,-2,1,3,-2,5,8,1],"shift_direction":-1,"question_num":41,"has_decoy":false},{"rt":943.5999999977648,"stimulus":"[A] option 1, [L] option 2, [G] neither","key_press":76,"name":"choice","trial_type":"html-keyboard-response","trial_index":65,"time_elapsed":118954,"internal_node_id":"0.0-65.0","subject":"S1C0831","sona":"41504","block":6,"time":"2021-09-17T21:44:29.698Z","response":"2nd","certainty":"high","char":"L","transposition":3,"order":["shifted","swapped"],"probe_pitches":[5,1,5,8,7,-1,3,1],"shifted_pitches":[5,1,5,8,6,-1,3,1],"swapped_pitches":[5,1,5,7,8,-1,3,1],"shift_direction":-1,"question_num":51,"has_decoy":false},{"rt":642.2000000029802,"stimulus":"[A] option 1, [L] option 2, [G] neither","key_press":76,"name":"choice","trial_type":"html-keyboard-response","trial_index":76,"time_elapsed":134227,"internal_node_id":"0.0-76.0","subject":"S1C0831","sona":"41504","block":6,"time":"2021-09-17T21:44:29.698Z","response":"2nd","certainty":"high","char":"L","transposition":0,"order":["swapped","shifted"],"probe_pitches":[7,3,-2,-3,5,4,6,3],"shifted_pitches":[7,3,-2,-4,5,4,6,3],"swapped_pitches":[7,3,-2,5,-3,4,6,3],"shift_direction":-1,"question_num":61,"has_decoy":false},{"rt":2351.099999997765,"stimulus":"[A] option 1, [L] option 2, [G] neither","key_press":65,"name":"choice","trial_type":"html-keyboard-response","trial_index":87,"time_elapsed":151567,"internal_node_id":"0.0-87.0","subject":"S1C0831","sona":"41504","block":6,"time":"2021-09-17T21:44:29.698Z","response":"1st","certainty":"high","char":"A","transposition":1,"order":["swapped","shifted"],"probe_pitches":[4,-2,-3,-2,1,7,1,-1],"shifted_pitches":[4,-2,-3,-2,0,7,1,-1],"swapped_pitches":[4,-2,-3,1,-2,7,1,-1],"shift_direction":-1,"question_num":71,"has_decoy":false},{"rt":1617.3999999985099,"stimulus":"[A] option 1, [L] option 2, [G] neither","key_press":76,"name":"choice","trial_type":"html-keyboard-response","trial_index":98,"time_elapsed":167693,"internal_node_id":"0.0-98.0","subject":"S1C0831","sona":"41504","block":6,"time":"2021-09-17T21:44:29.698Z","response":"2nd","certainty":"high","char":"L","transposition":-1,"order":["swapped","shifted"],"probe_pitches":[-2,0,7,2,5,10,7,2],"shifted_pitches":[-2,0,7,2,6,10,7,2],"swapped_pitches":[-2,0,7,5,2,10,7,2],"shift_direction":1,"question_num":81,"has_decoy":false},{"rt":540.6000000014901,"stimulus":"[A] option 1, [L] option 2, [G] neither","key_press":76,"name":"choice","trial_type":"html-keyboard-response","trial_index":109,"time_elapsed":182759,"internal_node_id":"0.0-109.0","subject":"S1C0831","sona":"41504","block":6,"time":"2021-09-17T21:44:29.698Z","response":"2nd","certainty":"high","char":"L","transposition":2,"order":["shifted","swapped"],"probe_pitches":[0,6,1,3,2,8,3,0],"shifted_pitches":[0,6,1,4,2,8,3,0],"swapped_pitches":[0,6,1,2,3,8,3,0],"shift_direction":1,"question_num":91,"has_decoy":false},{"rt":1448.199999999255,"stimulus":"[A] option 1, [L] option 2, [G] neither","key_press":65,"name":"choice","trial_type":"html-keyboard-response","trial_index":120,"time_elapsed":198679,"internal_node_id":"0.0-120.0","subject":"S1C0831","sona":"41504","block":6,"time":"2021-09-17T21:44:29.698Z","response":"1st","certainty":"high","char":"A","transposition":-2,"order":["shifted","swapped"],"probe_pitches":[5,9,8,6,4,-3,0,-1],"shifted_pitches":[5,9,8,7,4,-3,0,-1],"swapped_pitches":[5,9,8,4,6,-3,0,-1],"shift_direction":1,"question_num":101,"has_decoy":false},{"rt":6438.800000000745,"stimulus":"[A] option 1, [L] option 2, [G] neither","key_press":71,"name":"choice","trial_type":"html-keyboard-response","trial_index":131,"time_elapsed":224203,"internal_node_id":"0.0-131.0","subject":"S1C0831","sona":"41504","block":6,"time":"2021-09-17T21:44:29.698Z","response":"neither","certainty":"high","char":"G","transposition":1,"order":["swapped","shifted"],"probe_pitches":[0,5,3,5,8,-2,0,8],"shifted_pitches":[0,5,3,4,8,-2,0,8],"swapped_pitches":[0,5,3,8,5,-2,0,8],"shift_direction":-1,"question_num":111,"has_decoy":false},{"rt":315.30000000074506,"stimulus":"[A] option 1, [L] option 2, [G] neither","key_press":65,"name":"choice","trial_type":"html-keyboard-response","trial_index":142,"time_elapsed":253038,"internal_node_id":"0.0-142.0","subject":"S1C0831","sona":"41504","block":6,"time":"2021-09-17T21:44:29.698Z","response":"1st","certainty":"high","char":"A","transposition":3,"order":["shifted","swapped"],"probe_pitches":[0,-2,2,10,7,0,7,5],"shifted_pitches":[0,-2,2,9,7,0,7,5],"swapped_pitches":[0,-2,2,7,10,0,7,5],"shift_direction":-1,"question_num":121,"has_decoy":false},{"rt":778.1000000014901,"stimulus":"[A] option 1, [L] option 2, [G] neither","key_press":76,"name":"choice","trial_type":"html-keyboard-response","trial_index":153,"time_elapsed":268828,"internal_node_id":"0.0-153.0","subject":"S1C0831","sona":"41504","block":6,"time":"2021-09-17T21:44:29.698Z","response":"2nd","certainty":"high","char":"L","transposition":-3,"order":["shifted","swapped"],"probe_pitches":[0,5,10,5,0,-2,3,7],"shifted_pitches":[0,5,10,5,1,-2,3,7],"swapped_pitches":[0,5,10,0,5,-2,3,7],"shift_direction":1,"question_num":131,"has_decoy":false},{"rt":981.5,"stimulus":"[A] option 1, [L] option 2, [G] neither","key_press":76,"name":"choice","trial_type":"html-keyboard-response","trial_index":164,"time_elapsed":284500,"internal_node_id":"0.0-164.0","subject":"S1C0831","sona":"41504","block":6,"time":"2021-09-17T21:44:29.698Z","response":"2nd","certainty":"high","char":"L","transposition":-2,"order":["shifted","swapped"],"probe_pitches":[-3,2,3,0,9,7,4,3],"shifted_pitches":[-3,2,3,-1,9,7,4,3],"swapped_pitches":[-3,2,3,9,0,7,4,3],"shift_direction":-1,"question_num":141,"has_decoy":false},{"rt":4356.300000000745,"stimulus":"[A] option 1, [L] option 2, [G] neither","key_press":76,"name":"choice","trial_type":"html-keyboard-response","trial_index":175,"time_elapsed":303779,"internal_node_id":"0.0-175.0","subject":"S1C0831","sona":"41504","block":6,"time":"2021-09-17T21:44:29.698Z","response":"2nd","certainty":"high","char":"L","transposition":0,"order":["swapped","shifted"],"probe_pitches":[-2,0,-2,5,0,7,5,3],"shifted_pitches":[-2,0,-2,6,0,7,5,3],"swapped_pitches":[-2,0,-2,0,5,7,5,3],"shift_direction":1,"question_num":151,"has_decoy":false},{"rt":706.5,"stimulus":"[A] option 1, [L] option 2, [G] neither","key_press":65,"name":"choice","trial_type":"html-keyboard-response","trial_index":186,"time_elapsed":319421,"internal_node_id":"0.0-186.0","subject":"S1C0831","sona":"41504","block":6,"time":"2021-09-17T21:44:29.698Z","response":"1st","certainty":"high","char":"A","transposition":-2,"order":["shifted","swapped"],"probe_pitches":[1,3,1,6,8,-2,1,-2],"shifted_pitches":[1,3,1,6,9,-2,1,-2],"swapped_pitches":[1,3,1,8,6,-2,1,-2],"shift_direction":1,"question_num":161,"has_decoy":false},{"rt":1345.699999999255,"stimulus":"[A] option 1, [L] option 2, [G] neither","key_press":65,"name":"choice","trial_type":"html-keyboard-response","trial_index":197,"time_elapsed":335280,"internal_node_id":"0.0-197.0","subject":"S1C0831","sona":"41504","block":6,"time":"2021-09-17T21:44:29.698Z","response":"1st","certainty":"high","char":"A","transposition":-3,"order":["shifted","swapped"],"probe_pitches":[3,6,10,8,3,1,10,3],"shifted_pitches":[3,6,10,8,4,1,10,3],"swapped_pitches":[3,6,10,3,8,1,10,3],"shift_direction":1,"question_num":171,"has_decoy":false},{"rt":2018.199999999255,"stimulus":"[A] option 1, [L] option 2, [G] neither","key_press":76,"name":"choice","trial_type":"html-keyboard-response","trial_index":208,"time_elapsed":351932,"internal_node_id":"0.0-208.0","subject":"S1C0831","sona":"41504","block":6,"time":"2021-09-17T21:44:29.698Z","response":"2nd","certainty":"high","char":"L","transposition":-3,"order":["swapped","shifted"],"probe_pitches":[-3,0,-2,1,3,-3,-1,7],"shifted_pitches":[-3,0,-2,2,3,-3,-1,7],"swapped_pitches":[-3,0,-2,3,1,-3,-1,7],"shift_direction":1,"question_num":181,"has_decoy":false},{"rt":1292.6000000014901,"stimulus":"[A] option 1, [L] option 2, [G] neither","key_press":65,"name":"choice","trial_type":"html-keyboard-response","trial_index":219,"time_elapsed":368090,"internal_node_id":"0.0-219.0","subject":"S1C0831","sona":"41504","block":6,"time":"2021-09-17T21:44:29.698Z","response":"1st","certainty":"high","char":"A","transposition":-1,"order":["swapped","shifted"],"probe_pitches":[5,1,-3,-1,2,9,4,-3],"shifted_pitches":[5,1,-3,-1,3,9,4,-3],"swapped_pitches":[5,1,-3,2,-1,9,4,-3],"shift_direction":1,"question_num":191,"has_decoy":false}]