[{"rt":1494.5,"stimulus":"[A] option 1, [L] option 2, [G] neither","key_press":76,"name":"choice","trial_type":"html-keyboard-response","trial_index":10,"time_elapsed":54793,"internal_node_id":"0.0-10.0","subject":"S1C0831","sona":"41504","block":3,"time":"2021-09-17T21:24:53.401Z","response":"2nd","certainty":"high","char":"L","transposition":-3,"order":["swapped","shifted"],"probe_pitches":[-3,2,-1,4,2,7,-1,4],"shifted_pitches":[-3,2,-1,4,1,7,-1,4],"swapped_pitches":[-3,2,-1,2,4,7,-1,4],"shift_direction":-1,"question_num":1,"has_decoy":false},{"rt":1605.1000000014901,"stimulus":"[A] option 1, [L] option 2, [G] neither","key_press":76,"name":"choice","trial_type":"html-keyboard-response","trial_index":21,"time_elapsed":71150,"internal_node_id":"0.0-21.0","subject":"S1C0831","sona":"41504","block":3,"time":"2021-09-17T21:24:53.401Z","response":"2nd","certainty":"high","char":"L","transposition":-1,"order":["swapped","shifted"],"probe_pitches":[-1,0,4,9,7,-1,2,7],"shifted_pitches":[-1,0,4,9,8,-1,2,7],"swapped_pitches":[-1,0,4,7,9,-1,2,7],"shift_direction":1,"question_num":11,"has_decoy":false},{"rt":904,"stimulus":"[A] option 1, [L] option 2, [G] neither","key_press":65,"name":"choice","trial_type":"html-keyboard-response","trial_index":32,"time_elapsed":88437,"internal_node_id":"0.0-32.0","subject":"S1C0831","sona":"41504","block":3,"time":"2021-09-17T21:24:53.401Z","response":"1st","certainty":"high","char":"A","transposition":3,"order":["shifted","swapped"],"probe_pitches":[7,5,-1,7,1,-1,5,1],"shifted_pitches":[7,5,-1,7,0,-1,5,1],"swapped_pitches":[7,5,-1,1,7,-1,5,1],"shift_direction":-1,"question_num":21,"has_decoy":false},{"rt":4774,"stimulus":"[A] option 1, [L] option 2, [G] neither","key_press":71,"name":"choice","trial_type":"html-keyboard-response","trial_index":43,"time_elapsed":109098,"internal_node_id":"0.0-43.0","subject":"S1C0831","sona":"41504","block":3,"time":"2021-09-17T21:24:53.401Z","response":"neither","certainty":"high","char":"G","transposition":-1,"order":["swapped","shifted"],"probe_pitches":[6,9,10,6,4,-1,5,-1],"shifted_pitches":[6,9,10,7,4,-1,5,-1],"swapped_pitches":[6,9,10,4,6,-1,5,-1],"shift_direction":1,"question_num":31,"has_decoy":false},{"rt":894.1999999992549,"stimulus":"[A] option 1, [L] option 2, [G] neither","key_press":76,"name":"choice","trial_type":"html-keyboard-response","trial_index":54,"time_elapsed":124765,"internal_node_id":"0.0-54.0","subject":"S1C0831","sona":"41504","block":3,"time":"2021-09-17T21:24:53.401Z","response":"2nd","certainty":"high","char":"L","transposition":2,"order":["shifted","swapped"],"probe_pitches":[10,4,8,10,1,5,1,-1],"shifted_pitches":[10,4,8,10,2,5,1,-1],"swapped_pitches":[10,4,8,1,10,5,1,-1],"shift_direction":1,"question_num":41,"has_decoy":false},{"rt":1999.199999999255,"stimulus":"[A] option 1, [L] option 2, [G] neither","key_press":76,"name":"choice","trial_type":"html-keyboard-response","trial_index":65,"time_elapsed":141624,"internal_node_id":"0.0-65.0","subject":"S1C0831","sona":"41504","block":3,"time":"2021-09-17T21:24:53.401Z","response":"2nd","certainty":"high","char":"L","transposition":1,"order":["swapped","shifted"],"probe_pitches":[-1,5,2,5,10,9,3,10],"shifted_pitches":[-1,5,2,4,10,9,3,10],"swapped_pitches":[-1,5,2,10,5,9,3,10],"shift_direction":-1,"question_num":51,"has_decoy":false},{"rt":1960.6000000014901,"stimulus":"[A] option 1, [L] option 2, [G] neither","key_press":76,"name":"choice","trial_type":"html-keyboard-response","trial_index":76,"time_elapsed":159042,"internal_node_id":"0.0-76.0","subject":"S1C0831","sona":"41504","block":3,"time":"2021-09-17T21:24:53.401Z","response":"2nd","certainty":"high","char":"L","transposition":-3,"order":["shifted","swapped"],"probe_pitches":[4,2,6,9,4,-3,-1,-3],"shifted_pitches":[4,2,6,9,3,-3,-1,-3],"swapped_pitches":[4,2,6,4,9,-3,-1,-3],"shift_direction":-1,"question_num":61,"has_decoy":false},{"rt":1754.3999999985099,"stimulus":"[A] option 1, [L] option 2, [G] neither","key_press":65,"name":"choice","trial_type":"html-keyboard-response","trial_index":87,"time_elapsed":175632,"internal_node_id":"0.0-87.0","subject":"S1C0831","sona":"41504","block":3,"time":"2021-09-17T21:24:53.401Z","response":"1st","certainty":"high","char":"A","transposition":3,"order":["shifted","swapped"],"probe_pitches":[-3,-1,6,2,-3,4,6,-1],"shifted_pitches":[-3,-1,6,2,-4,4,6,-1],"swapped_pitches":[-3,-1,6,-3,2,4,6,-1],"shift_direction":-1,"question_num":71,"has_decoy":false},{"rt":2011.5,"stimulus":"[A] option 1, [L] option 2, [G] neither","key_press":76,"name":"choice","trial_type":"html-keyboard-response","trial_index":98,"time_elapsed":192221,"internal_node_id":"0.0-98.0","subject":"S1C0831","sona":"41504","block":3,"time":"2021-09-17T21:24:53.401Z","response":"2nd","certainty":"high","char":"L","transposition":-1,"order":["swapped","shifted"],"probe_pitches":[4,7,0,2,-3,4,0,9],"shifted_pitches":[4,7,0,3,-3,4,0,9],"swapped_pitches":[4,7,0,-3,2,4,0,9],"shift_direction":1,"question_num":81,"has_decoy":false},{"rt":3775.800000000745,"stimulus":"[A] option 1, [L] option 2, [G] neither","key_press":65,"name":"choice","trial_type":"html-keyboard-response","trial_index":109,"time_elapsed":210863,"internal_node_id":"0.0-109.0","subject":"S1C0831","sona":"41504","block":3,"time":"2021-09-17T21:24:53.401Z","response":"1st","certainty":"high","char":"A","transposition":-1,"order":["shifted","swapped"],"probe_pitches":[-1,2,4,9,7,4,2,9],"shifted_pitches":[-1,2,4,10,7,4,2,9],"swapped_pitches":[-1,2,4,7,9,4,2,9],"shift_direction":1,"question_num":91,"has_decoy":false},{"rt":2432.10000000149,"stimulus":"[A] option 1, [L] option 2, [G] neither","key_press":76,"name":"choice","trial_type":"html-keyboard-response","trial_index":120,"time_elapsed":228800,"internal_node_id":"0.0-120.0","subject":"S1C0831","sona":"41504","block":3,"time":"2021-09-17T21:24:53.401Z","response":"2nd","certainty":"high","char":"L","transposition":0,"order":["shifted","swapped"],"probe_pitches":[-1,1,-3,1,4,-1,6,1],"shifted_pitches":[-1,1,-3,2,4,-1,6,1],"swapped_pitches":[-1,1,-3,4,1,-1,6,1],"shift_direction":1,"question_num":101,"has_decoy":false},{"rt":1872.2999999970198,"stimulus":"[A] option 1, [L] option 2, [G] neither","key_press":76,"name":"choice","trial_type":"html-keyboard-response","trial_index":131,"time_elapsed":245610,"internal_node_id":"0.0-131.0","subject":"S1C0831","sona":"41504","block":3,"time":"2021-09-17T21:24:53.401Z","response":"2nd","certainty":"high","char":"L","transposition":-2,"order":["shifted","swapped"],"probe_pitches":[5,2,9,5,7,9,0,2],"shifted_pitches":[5,2,9,6,7,9,0,2],"swapped_pitches":[5,2,9,7,5,9,0,2],"shift_direction":1,"question_num":111,"has_decoy":false},{"rt":1658.199999999255,"stimulus":"[A] option 1, [L] option 2, [G] neither","key_press":76,"name":"choice","trial_type":"html-keyboard-response","trial_index":142,"time_elapsed":262134,"internal_node_id":"0.0-142.0","subject":"S1C0831","sona":"41504","block":3,"time":"2021-09-17T21:24:53.401Z","response":"2nd","certainty":"high","char":"L","transposition":2,"order":["swapped","shifted"],"probe_pitches":[-1,1,4,9,6,-1,1,4],"shifted_pitches":[-1,1,4,9,7,-1,1,4],"swapped_pitches":[-1,1,4,6,9,-1,1,4],"shift_direction":1,"question_num":121,"has_decoy":false},{"rt":1627,"stimulus":"[A] option 1, [L] option 2, [G] neither","key_press":76,"name":"choice","trial_type":"html-keyboard-response","trial_index":153,"time_elapsed":279009,"internal_node_id":"0.0-153.0","subject":"S1C0831","sona":"41504","block":3,"time":"2021-09-17T21:24:53.401Z","response":"2nd","certainty":"high","char":"L","transposition":-2,"order":["swapped","shifted"],"probe_pitches":[7,10,4,7,2,9,-2,8],"shifted_pitches":[7,10,4,6,2,9,-2,8],"swapped_pitches":[7,10,4,2,7,9,-2,8],"shift_direction":-1,"question_num":131,"has_decoy":false},{"rt":1865.699999999255,"stimulus":"[A] option 1, [L] option 2, [G] neither","key_press":71,"name":"choice","trial_type":"html-keyboard-response","trial_index":164,"time_elapsed":295378,"internal_node_id":"0.0-164.0","subject":"S1C0831","sona":"41504","block":3,"time":"2021-09-17T21:24:53.401Z","response":"neither","certainty":"high","char":"G","transposition":-2,"order":["swapped","shifted"],"probe_pitches":[0,-3,0,5,7,2,0,9],"shifted_pitches":[0,-3,0,4,7,2,0,9],"swapped_pitches":[0,-3,0,7,5,2,0,9],"shift_direction":-1,"question_num":141,"has_decoy":false},{"rt":1766,"stimulus":"[A] option 1, [L] option 2, [G] neither","key_press":65,"name":"choice","trial_type":"html-keyboard-response","trial_index":175,"time_elapsed":311773,"internal_node_id":"0.0-175.0","subject":"S1C0831","sona":"41504","block":3,"time":"2021-09-17T21:24:53.401Z","response":"1st","certainty":"high","char":"A","transposition":1,"order":["swapped","shifted"],"probe_pitches":[-3,0,4,0,2,9,7,9],"shifted_pitches":[-3,0,4,0,1,9,7,9],"swapped_pitches":[-3,0,4,2,0,9,7,9],"shift_direction":-1,"question_num":151,"has_decoy":false},{"rt":3926.900000002235,"stimulus":"[A] option 1, [L] option 2, [G] neither","key_press":65,"name":"choice","trial_type":"html-keyboard-response","trial_index":186,"time_elapsed":330266,"internal_node_id":"0.0-186.0","subject":"S1C0831","sona":"41504","block":3,"time":"2021-09-17T21:24:53.401Z","response":"1st","certainty":"high","char":"A","transposition":0,"order":["shifted","swapped"],"probe_pitches":[8,6,1,0,4,7,8,-2],"shifted_pitches":[8,6,1,0,3,7,8,-2],"swapped_pitches":[8,6,1,4,0,7,8,-2],"shift_direction":-1,"question_num":161,"has_decoy":false},{"rt":3528.89999999851,"stimulus":"[A] option 1, [L] option 2, [G] neither","key_press":76,"name":"choice","trial_type":"html-keyboard-response","trial_index":197,"time_elapsed":349763,"internal_node_id":"0.0-197.0","subject":"S1C0831","sona":"41504","block":3,"time":"2021-09-17T21:24:53.401Z","response":"2nd","certainty":"high","char":"L","transposition":-2,"order":["shifted","swapped"],"probe_pitches":[-1,5,7,0,-1,4,2,4],"shifted_pitches":[-1,5,7,1,-1,4,2,4],"swapped_pitches":[-1,5,7,-1,0,4,2,4],"shift_direction":1,"question_num":171,"has_decoy":false},{"rt":1708,"stimulus":"[A] option 1, [L] option 2, [G] neither","key_press":76,"name":"choice","trial_type":"html-keyboard-response","trial_index":208,"time_elapsed":365984,"internal_node_id":"0.0-208.0","subject":"S1C0831","sona":"41504","block":3,"time":"2021-09-17T21:24:53.401Z","response":"2nd","certainty":"high","char":"L","transposition":-3,"order":["shifted","swapped"],"probe_pitches":[3,2,4,7,6,-2,8,2],"shifted_pitches":[3,2,4,7,5,-2,8,2],"swapped_pitches":[3,2,4,6,7,-2,8,2],"shift_direction":-1,"question_num":181,"has_decoy":false},{"rt":1471.300000000745,"stimulus":"[A] option 1, [L] option 2, [G] neither","key_press":76,"name":"choice","trial_type":"html-keyboard-response","trial_index":219,"time_elapsed":381941,"internal_node_id":"0.0-219.0","subject":"S1C0831","sona":"41504","block":3,"time":"2021-09-17T21:24:53.401Z","response":"2nd","certainty":"high","char":"L","transposition":-3,"order":["swapped","shifted"],"probe_pitches":[0,6,0,8,1,2,8,-2],"shifted_pitches":[0,6,0,9,1,2,8,-2],"swapped_pitches":[0,6,0,1,8,2,8,-2],"shift_direction":1,"question_num":191,"has_decoy":false}]