[{"rt":2439.2999999970198,"stimulus":"[A] option 1, [L] option 2, [G] neither","key_press":71,"name":"choice","trial_type":"html-keyboard-response","trial_index":10,"time_elapsed":19832,"internal_node_id":"0.0-10.0","subject":"S1C0831","sona":"41504","block":4,"time":"2021-09-17T21:30:40.947Z","response":"neither","certainty":"high","char":"G","transposition":-3,"order":["shifted","swapped"],"probe_pitches":[3,4,11,9,6,3,13,7],"shifted_pitches":[3,4,11,9,5,3,13,7],"swapped_pitches":[3,4,11,6,9,3,13,7],"shift_direction":-1,"question_num":1,"has_decoy":false},{"rt":1846.5,"stimulus":"[A] option 1, [L] option 2, [G] neither","key_press":76,"name":"choice","trial_type":"html-keyboard-response","trial_index":21,"time_elapsed":36910,"internal_node_id":"0.0-21.0","subject":"S1C0831","sona":"41504","block":4,"time":"2021-09-17T21:30:40.947Z","response":"2nd","certainty":"high","char":"L","transposition":-1,"order":["swapped","shifted"],"probe_pitches":[7,10,11,14,10,6,8,11],"shifted_pitches":[7,10,11,13,10,6,8,11],"swapped_pitches":[7,10,11,10,14,6,8,11],"shift_direction":-1,"question_num":11,"has_decoy":false},{"rt":3254.400000002235,"stimulus":"[A] option 1, [L] option 2, [G] neither","key_press":76,"name":"choice","trial_type":"html-keyboard-response","trial_index":32,"time_elapsed":54726,"internal_node_id":"0.0-32.0","subject":"S1C0831","sona":"41504","block":4,"time":"2021-09-17T21:30:40.947Z","response":"2nd","certainty":"high","char":"L","transposition":3,"order":["swapped","shifted"],"probe_pitches":[8,12,15,8,14,4,11,15],"shifted_pitches":[8,12,15,9,14,4,11,15],"swapped_pitches":[8,12,15,14,8,4,11,15],"shift_direction":1,"question_num":21,"has_decoy":false},{"rt":1815.5999999977648,"stimulus":"[A] option 1, [L] option 2, [G] neither","key_press":65,"name":"choice","trial_type":"html-keyboard-response","trial_index":43,"time_elapsed":71004,"internal_node_id":"0.0-43.0","subject":"S1C0831","sona":"41504","block":4,"time":"2021-09-17T21:30:40.947Z","response":"1st","certainty":"high","char":"A","transposition":-2,"order":["swapped","shifted"],"probe_pitches":[3,9,11,15,7,8,10,4],"shifted_pitches":[3,9,11,14,7,8,10,4],"swapped_pitches":[3,9,11,7,15,8,10,4],"shift_direction":-1,"question_num":31,"has_decoy":false},{"rt":1908.300000000745,"stimulus":"[A] option 1, [L] option 2, [G] neither","key_press":76,"name":"choice","trial_type":"html-keyboard-response","trial_index":54,"time_elapsed":87916,"internal_node_id":"0.0-54.0","subject":"S1C0831","sona":"41504","block":4,"time":"2021-09-17T21:30:40.947Z","response":"2nd","certainty":"high","char":"L","transposition":-1,"order":["swapped","shifted"],"probe_pitches":[-1,1,6,3,8,1,11,1],"shifted_pitches":[-1,1,6,3,7,1,11,1],"swapped_pitches":[-1,1,6,8,3,1,11,1],"shift_direction":-1,"question_num":41,"has_decoy":false},{"rt":1427.0999999977648,"stimulus":"[A] option 1, [L] option 2, [G] neither","key_press":76,"name":"choice","trial_type":"html-keyboard-response","trial_index":65,"time_elapsed":103901,"internal_node_id":"0.0-65.0","subject":"S1C0831","sona":"41504","block":4,"time":"2021-09-17T21:30:40.947Z","response":"2nd","certainty":"high","char":"L","transposition":-3,"order":["swapped","shifted"],"probe_pitches":[4,2,6,11,4,6,-1,9],"shifted_pitches":[4,2,6,12,4,6,-1,9],"swapped_pitches":[4,2,6,4,11,6,-1,9],"shift_direction":1,"question_num":51,"has_decoy":false},{"rt":3247.10000000149,"stimulus":"[A] option 1, [L] option 2, [G] neither","key_press":65,"name":"choice","trial_type":"html-keyboard-response","trial_index":76,"time_elapsed":121677,"internal_node_id":"0.0-76.0","subject":"S1C0831","sona":"41504","block":4,"time":"2021-09-17T21:30:40.947Z","response":"1st","certainty":"high","char":"A","transposition":2,"order":["swapped","shifted"],"probe_pitches":[11,6,11,6,1,11,9,4],"shifted_pitches":[11,6,11,6,2,11,9,4],"swapped_pitches":[11,6,11,1,6,11,9,4],"shift_direction":1,"question_num":61,"has_decoy":false},{"rt":1830.4000000022352,"stimulus":"[A] option 1, [L] option 2, [G] neither","key_press":76,"name":"choice","trial_type":"html-keyboard-response","trial_index":87,"time_elapsed":138064,"internal_node_id":"0.0-87.0","subject":"S1C0831","sona":"41504","block":4,"time":"2021-09-17T21:30:40.947Z","response":"2nd","certainty":"high","char":"L","transposition":-2,"order":["swapped","shifted"],"probe_pitches":[7,11,4,-1,2,11,9,2],"shifted_pitches":[7,11,4,0,2,11,9,2],"swapped_pitches":[7,11,4,2,-1,11,9,2],"shift_direction":1,"question_num":71,"has_decoy":false},{"rt":2219.800000000745,"stimulus":"[A] option 1, [L] option 2, [G] neither","key_press":65,"name":"choice","trial_type":"html-keyboard-response","trial_index":98,"time_elapsed":154816,"internal_node_id":"0.0-98.0","subject":"S1C0831","sona":"41504","block":4,"time":"2021-09-17T21:30:40.947Z","response":"1st","certainty":"high","char":"A","transposition":1,"order":["shifted","swapped"],"probe_pitches":[-1,4,1,6,11,9,-1,11],"shifted_pitches":[-1,4,1,6,10,9,-1,11],"swapped_pitches":[-1,4,1,11,6,9,-1,11],"shift_direction":-1,"question_num":81,"has_decoy":false},{"rt":5531.79999999702,"stimulus":"[A] option 1, [L] option 2, [G] neither","key_press":76,"name":"choice","trial_type":"html-keyboard-response","trial_index":109,"time_elapsed":175086,"internal_node_id":"0.0-109.0","subject":"S1C0831","sona":"41504","block":4,"time":"2021-09-17T21:30:40.947Z","response":"2nd","certainty":"high","char":"L","transposition":3,"order":["shifted","swapped"],"probe_pitches":[4,-1,6,2,4,9,2,-1],"shifted_pitches":[4,-1,6,1,4,9,2,-1],"swapped_pitches":[4,-1,6,4,2,9,2,-1],"shift_direction":-1,"question_num":91,"has_decoy":false},{"rt":1760.0999999977648,"stimulus":"[A] option 1, [L] option 2, [G] neither","key_press":76,"name":"choice","trial_type":"html-keyboard-response","trial_index":120,"time_elapsed":191371,"internal_node_id":"0.0-120.0","subject":"S1C0831","sona":"41504","block":4,"time":"2021-09-17T21:30:40.947Z","response":"2nd","certainty":"high","char":"L","transposition":-3,"order":["shifted","swapped"],"probe_pitches":[9,13,9,14,7,5,4,9],"shifted_pitches":[9,13,9,14,6,5,4,9],"swapped_pitches":[9,13,9,7,14,5,4,9],"shift_direction":-1,"question_num":101,"has_decoy":false},{"rt":3767.10000000149,"stimulus":"[A] option 1, [L] option 2, [G] neither","key_press":71,"name":"choice","trial_type":"html-keyboard-response","trial_index":131,"time_elapsed":211668,"internal_node_id":"0.0-131.0","subject":"S1C0831","sona":"41504","block":4,"time":"2021-09-17T21:30:40.947Z","response":"neither","certainty":"high","char":"G","transposition":-1,"order":["swapped","shifted"],"probe_pitches":[7,3,5,11,9,13,9,7],"shifted_pitches":[7,3,5,11,10,13,9,7],"swapped_pitches":[7,3,5,9,11,13,9,7],"shift_direction":1,"question_num":111,"has_decoy":false},{"rt":1228.199999999255,"stimulus":"[A] option 1, [L] option 2, [G] neither","key_press":65,"name":"choice","trial_type":"html-keyboard-response","trial_index":142,"time_elapsed":227611,"internal_node_id":"0.0-142.0","subject":"S1C0831","sona":"41504","block":4,"time":"2021-09-17T21:30:40.947Z","response":"1st","certainty":"high","char":"A","transposition":0,"order":["shifted","swapped"],"probe_pitches":[11,8,1,3,6,11,8,-1],"shifted_pitches":[11,8,1,4,6,11,8,-1],"swapped_pitches":[11,8,1,6,3,11,8,-1],"shift_direction":1,"question_num":121,"has_decoy":false},{"rt":1398.3999999985099,"stimulus":"[A] option 1, [L] option 2, [G] neither","key_press":76,"name":"choice","trial_type":"html-keyboard-response","trial_index":153,"time_elapsed":243489,"internal_node_id":"0.0-153.0","subject":"S1C0831","sona":"41504","block":4,"time":"2021-09-17T21:30:40.947Z","response":"2nd","certainty":"high","char":"L","transposition":-3,"order":["swapped","shifted"],"probe_pitches":[1,6,-1,6,4,1,4,8],"shifted_pitches":[1,6,-1,6,5,1,4,8],"swapped_pitches":[1,6,-1,4,6,1,4,8],"shift_direction":1,"question_num":131,"has_decoy":false},{"rt":1833.300000000745,"stimulus":"[A] option 1, [L] option 2, [G] neither","key_press":76,"name":"choice","trial_type":"html-keyboard-response","trial_index":164,"time_elapsed":259468,"internal_node_id":"0.0-164.0","subject":"S1C0831","sona":"41504","block":4,"time":"2021-09-17T21:30:40.947Z","response":"2nd","certainty":"high","char":"L","transposition":1,"order":["shifted","swapped"],"probe_pitches":[4,10,9,6,4,9,10,11],"shifted_pitches":[4,10,9,7,4,9,10,11],"swapped_pitches":[4,10,9,4,6,9,10,11],"shift_direction":1,"question_num":141,"has_decoy":false},{"rt":1869.5999999977648,"stimulus":"[A] option 1, [L] option 2, [G] neither","key_press":65,"name":"choice","trial_type":"html-keyboard-response","trial_index":175,"time_elapsed":276150,"internal_node_id":"0.0-175.0","subject":"S1C0831","sona":"41504","block":4,"time":"2021-09-17T21:30:40.947Z","response":"1st","certainty":"high","char":"A","transposition":-2,"order":["shifted","swapped"],"probe_pitches":[2,-1,4,-1,7,2,9,4],"shifted_pitches":[2,-1,4,-2,7,2,9,4],"swapped_pitches":[2,-1,4,7,-1,2,9,4],"shift_direction":-1,"question_num":151,"has_decoy":false},{"rt":2153.5,"stimulus":"[A] option 1, [L] option 2, [G] neither","key_press":71,"name":"choice","trial_type":"html-keyboard-response","trial_index":186,"time_elapsed":292987,"internal_node_id":"0.0-186.0","subject":"S1C0831","sona":"41504","block":4,"time":"2021-09-17T21:30:40.947Z","response":"neither","certainty":"high","char":"G","transposition":0,"order":["swapped","shifted"],"probe_pitches":[12,13,15,12,7,9,7,12],"shifted_pitches":[12,13,15,12,8,9,7,12],"swapped_pitches":[12,13,15,7,12,9,7,12],"shift_direction":1,"question_num":161,"has_decoy":false},{"rt":2660,"stimulus":"[A] option 1, [L] option 2, [G] neither","key_press":76,"name":"choice","trial_type":"html-keyboard-response","trial_index":197,"time_elapsed":310464,"internal_node_id":"0.0-197.0","subject":"S1C0831","sona":"41504","block":4,"time":"2021-09-17T21:30:40.947Z","response":"2nd","certainty":"high","char":"L","transposition":2,"order":["shifted","swapped"],"probe_pitches":[10,5,8,11,9,13,5,4],"shifted_pitches":[10,5,8,12,9,13,5,4],"swapped_pitches":[10,5,8,9,11,13,5,4],"shift_direction":1,"question_num":171,"has_decoy":false},{"rt":1426,"stimulus":"[A] option 1, [L] option 2, [G] neither","key_press":76,"name":"choice","trial_type":"html-keyboard-response","trial_index":208,"time_elapsed":326993,"internal_node_id":"0.0-208.0","subject":"S1C0831","sona":"41504","block":4,"time":"2021-09-17T21:30:40.947Z","response":"2nd","certainty":"high","char":"L","transposition":-2,"order":["shifted","swapped"],"probe_pitches":[14,10,7,13,12,10,5,15],"shifted_pitches":[14,10,7,13,11,10,5,15],"swapped_pitches":[14,10,7,12,13,10,5,15],"shift_direction":-1,"question_num":181,"has_decoy":false},{"rt":1459.3999999985099,"stimulus":"[A] option 1, [L] option 2, [G] neither","key_press":65,"name":"choice","trial_type":"html-keyboard-response","trial_index":219,"time_elapsed":343249,"internal_node_id":"0.0-219.0","subject":"S1C0831","sona":"41504","block":4,"time":"2021-09-17T21:30:40.947Z","response":"1st","certainty":"high","char":"A","transposition":-1,"order":["shifted","swapped"],"probe_pitches":[1,6,1,6,8,11,4,8],"shifted_pitches":[1,6,1,6,7,11,4,8],"swapped_pitches":[1,6,1,8,6,11,4,8],"shift_direction":-1,"question_num":191,"has_decoy":false}]