[{"rt":13410.59999999404,"stimulus":"[A] option 1, [L] option 2, [G] neither","key_press":65,"name":"choice","trial_type":"html-keyboard-response","trial_index":15,"time_elapsed":59667,"internal_node_id":"0.0-15.0","response":"1st","certainty":"high","char":"A","transposition":1,"order":["shifted","swapped"],"probe_pitches":[7,3,5,12,11,14,10,9,6,15,10,7,3,6,3,13],"shifted_pitches":[7,3,5,12,11,14,10,8,6,15,10,7,3,6,3,13],"swapped_pitches":[7,3,5,12,11,14,10,6,9,15,10,7,3,6,3,13],"shift_direction":-1,"question_num":1,"has_decoy":false,"subject":"S1C1630","sona":"41916","block":1,"time":"2021-09-18T03:39:17.233Z"},{"rt":4908,"stimulus":"[A] option 1, [L] option 2, [G] neither","key_press":76,"name":"choice","trial_type":"html-keyboard-response","trial_index":26,"time_elapsed":86924,"internal_node_id":"0.0-26.0","response":"2nd","certainty":"high","char":"L","transposition":-1,"order":["shifted","swapped"],"probe_pitches":[8,4,6,7,5,9,10,6,13,4,9,6,4,6,10,8],"shifted_pitches":[8,4,6,7,5,9,10,6,12,4,9,6,4,6,10,8],"swapped_pitches":[8,4,6,7,5,9,10,13,6,4,9,6,4,6,10,8],"shift_direction":-1,"question_num":11,"has_decoy":false,"subject":"S1C1630","sona":"41916","block":1,"time":"2021-09-18T03:39:17.233Z"},{"rt":3700.60000000149,"stimulus":"[A] option 1, [L] option 2, [G] neither","key_press":76,"name":"choice","trial_type":"html-keyboard-response","trial_index":37,"time_elapsed":119696,"internal_node_id":"0.0-37.0","response":"2nd","certainty":"high","char":"L","transposition":3,"order":["swapped","shifted"],"probe_pitches":[3,6,7,14,13,3,5,3,10,12,13,15,9,8,7,3],"shifted_pitches":[3,6,7,14,13,3,5,3,11,12,13,15,9,8,7,3],"swapped_pitches":[3,6,7,14,13,3,5,10,3,12,13,15,9,8,7,3],"shift_direction":1,"question_num":21,"has_decoy":false,"subject":"S1C1630","sona":"41916","block":1,"time":"2021-09-18T03:39:17.233Z"},{"rt":4578.9000000059605,"stimulus":"[A] option 1, [L] option 2, [G] neither","key_press":65,"name":"choice","trial_type":"html-keyboard-response","trial_index":48,"time_elapsed":150364,"internal_node_id":"0.0-48.0","response":"1st","certainty":"high","char":"A","transposition":-3,"order":["shifted","swapped"],"probe_pitches":[5,3,5,10,15,12,7,12,3,15,12,3,5,12,3,12],"shifted_pitches":[5,3,5,10,15,12,7,13,3,15,12,3,5,12,3,12],"swapped_pitches":[5,3,5,10,15,12,7,3,12,15,12,3,5,12,3,12],"shift_direction":1,"question_num":31,"has_decoy":false,"subject":"S1C1630","sona":"41916","block":1,"time":"2021-09-18T03:39:17.233Z"},{"rt":4602.19999999553,"stimulus":"[A] option 1, [L] option 2, [G] neither","key_press":65,"name":"choice","trial_type":"html-keyboard-response","trial_index":59,"time_elapsed":184238,"internal_node_id":"0.0-59.0","response":"1st","certainty":"high","char":"A","transposition":-2,"order":["swapped","shifted"],"probe_pitches":[3,7,5,9,15,7,6,14,7,9,10,4,8,11,3,7],"shifted_pitches":[3,7,5,9,15,7,6,13,7,9,10,4,8,11,3,7],"swapped_pitches":[3,7,5,9,15,7,6,7,14,9,10,4,8,11,3,7],"shift_direction":-1,"question_num":41,"has_decoy":false,"subject":"S1C1630","sona":"41916","block":1,"time":"2021-09-18T03:39:17.233Z"},{"rt":2566.5,"stimulus":"[A] option 1, [L] option 2, [G] neither","key_press":76,"name":"choice","trial_type":"html-keyboard-response","trial_index":70,"time_elapsed":213605,"internal_node_id":"0.0-70.0","response":"2nd","certainty":"high","char":"L","transposition":-3,"order":["shifted","swapped"],"probe_pitches":[4,8,11,4,5,8,13,8,10,7,11,14,12,3,6,14],"shifted_pitches":[4,8,11,4,5,8,13,9,10,7,11,14,12,3,6,14],"swapped_pitches":[4,8,11,4,5,8,13,10,8,7,11,14,12,3,6,14],"shift_direction":1,"question_num":51,"has_decoy":false,"subject":"S1C1630","sona":"41916","block":1,"time":"2021-09-18T03:39:17.233Z"},{"rt":5527.9000000059605,"stimulus":"[A] option 1, [L] option 2, [G] neither","key_press":76,"name":"choice","trial_type":"html-keyboard-response","trial_index":81,"time_elapsed":242903,"internal_node_id":"0.0-81.0","response":"2nd","certainty":"high","char":"L","transposition":-2,"order":["swapped","shifted"],"probe_pitches":[12,10,5,3,5,3,10,15,3,8,12,15,3,8,15,10],"shifted_pitches":[12,10,5,3,5,3,10,15,4,8,12,15,3,8,15,10],"swapped_pitches":[12,10,5,3,5,3,10,3,15,8,12,15,3,8,15,10],"shift_direction":1,"question_num":61,"has_decoy":false,"subject":"S1C1630","sona":"41916","block":1,"time":"2021-09-18T03:39:17.233Z"},{"rt":8322.19999999553,"stimulus":"[A] option 1, [L] option 2, [G] neither","key_press":65,"name":"choice","trial_type":"html-keyboard-response","trial_index":92,"time_elapsed":279677,"internal_node_id":"0.0-92.0","response":"1st","certainty":"high","char":"A","transposition":2,"order":["shifted","swapped"],"probe_pitches":[10,8,5,10,8,13,10,15,3,8,13,15,8,15,3,5],"shifted_pitches":[10,8,5,10,8,13,10,15,2,8,13,15,8,15,3,5],"swapped_pitches":[10,8,5,10,8,13,10,3,15,8,13,15,8,15,3,5],"shift_direction":-1,"question_num":71,"has_decoy":false,"subject":"S1C1630","sona":"41916","block":1,"time":"2021-09-18T03:39:17.233Z"},{"rt":6199.20000000298,"stimulus":"[A] option 1, [L] option 2, [G] neither","key_press":65,"name":"choice","trial_type":"html-keyboard-response","trial_index":103,"time_elapsed":309604,"internal_node_id":"0.0-103.0","response":"1st","certainty":"high","char":"A","transposition":3,"order":["shifted","swapped"],"probe_pitches":[15,13,10,8,6,15,8,3,6,8,10,15,13,6,3,8],"shifted_pitches":[15,13,10,8,6,15,8,3,5,8,10,15,13,6,3,8],"swapped_pitches":[15,13,10,8,6,15,8,6,3,8,10,15,13,6,3,8],"shift_direction":-1,"question_num":81,"has_decoy":false,"subject":"S1C1630","sona":"41916","block":1,"time":"2021-09-18T03:39:17.233Z"},{"rt":4503.19999999553,"stimulus":"[A] option 1, [L] option 2, [G] neither","key_press":76,"name":"choice","trial_type":"html-keyboard-response","trial_index":114,"time_elapsed":347939,"internal_node_id":"0.0-114.0","response":"2nd","certainty":"high","char":"L","transposition":-3,"order":["shifted","swapped"],"probe_pitches":[15,10,15,12,7,11,4,11,6,15,4,3,13,8,4,12],"shifted_pitches":[15,10,15,12,7,11,4,11,5,15,4,3,13,8,4,12],"swapped_pitches":[15,10,15,12,7,11,4,6,11,15,4,3,13,8,4,12],"shift_direction":-1,"question_num":91,"has_decoy":false,"subject":"S1C1630","sona":"41916","block":1,"time":"2021-09-18T03:39:17.233Z"},{"rt":6435.89999999851,"stimulus":"[A] option 1, [L] option 2, [G] neither","key_press":76,"name":"choice","trial_type":"html-keyboard-response","trial_index":125,"time_elapsed":377771,"internal_node_id":"0.0-125.0","response":"2nd","certainty":"high","char":"L","transposition":-2,"order":["swapped","shifted"],"probe_pitches":[8,13,11,6,3,11,15,3,8,6,11,8,3,8,6,3],"shifted_pitches":[8,13,11,6,3,11,15,3,7,6,11,8,3,8,6,3],"swapped_pitches":[8,13,11,6,3,11,15,8,3,6,11,8,3,8,6,3],"shift_direction":-1,"question_num":101,"has_decoy":false,"subject":"S1C1630","sona":"41916","block":1,"time":"2021-09-18T03:39:17.233Z"},{"rt":12633.5,"stimulus":"[A] option 1, [L] option 2, [G] neither","key_press":76,"name":"choice","trial_type":"html-keyboard-response","trial_index":136,"time_elapsed":415309,"internal_node_id":"0.0-136.0","response":"2nd","certainty":"high","char":"L","transposition":-1,"order":["shifted","swapped"],"probe_pitches":[7,3,10,5,10,15,7,3,5,12,15,3,15,12,3,12],"shifted_pitches":[7,3,10,5,10,15,7,4,5,12,15,3,15,12,3,12],"swapped_pitches":[7,3,10,5,10,15,7,5,3,12,15,3,15,12,3,12],"shift_direction":1,"question_num":111,"has_decoy":false,"subject":"S1C1630","sona":"41916","block":1,"time":"2021-09-18T03:39:17.233Z"},{"rt":15295.5,"stimulus":"[A] option 1, [L] option 2, [G] neither","key_press":76,"name":"choice","trial_type":"html-keyboard-response","trial_index":147,"time_elapsed":453570,"internal_node_id":"0.0-147.0","response":"2nd","certainty":"high","char":"L","transposition":-2,"order":["shifted","swapped"],"probe_pitches":[6,9,12,13,9,3,5,9,13,4,3,15,9,12,7,5],"shifted_pitches":[6,9,12,13,9,3,5,10,13,4,3,15,9,12,7,5],"swapped_pitches":[6,9,12,13,9,3,5,13,9,4,3,15,9,12,7,5],"shift_direction":1,"question_num":121,"has_decoy":false,"subject":"S1C1630","sona":"41916","block":1,"time":"2021-09-18T03:39:17.233Z"},{"rt":9969.09999999404,"stimulus":"[A] option 1, [L] option 2, [G] neither","key_press":76,"name":"choice","trial_type":"html-keyboard-response","trial_index":158,"time_elapsed":490605,"internal_node_id":"0.0-158.0","response":"2nd","certainty":"high","char":"L","transposition":0,"order":["swapped","shifted"],"probe_pitches":[6,10,11,6,12,5,8,11,6,13,5,15,6,10,3,6],"shifted_pitches":[6,10,11,6,12,5,8,11,7,13,5,15,6,10,3,6],"swapped_pitches":[6,10,11,6,12,5,8,6,11,13,5,15,6,10,3,6],"shift_direction":1,"question_num":131,"has_decoy":false,"subject":"S1C1630","sona":"41916","block":1,"time":"2021-09-18T03:39:17.233Z"},{"rt":6788.39999999851,"stimulus":"[A] option 1, [L] option 2, [G] neither","key_press":76,"name":"choice","trial_type":"html-keyboard-response","trial_index":169,"time_elapsed":532534,"internal_node_id":"0.0-169.0","response":"2nd","certainty":"high","char":"L","transposition":0,"order":["swapped","shifted"],"probe_pitches":[6,11,8,11,15,6,3,11,8,13,8,11,8,11,15,13],"shifted_pitches":[6,11,8,11,15,6,3,10,8,13,8,11,8,11,15,13],"swapped_pitches":[6,11,8,11,15,6,3,8,11,13,8,11,8,11,15,13],"shift_direction":-1,"question_num":141,"has_decoy":false,"subject":"S1C1630","sona":"41916","block":1,"time":"2021-09-18T03:39:17.233Z"},{"rt":1708,"stimulus":"[A] option 1, [L] option 2, [G] neither","key_press":76,"name":"choice","trial_type":"html-keyboard-response","trial_index":180,"time_elapsed":560582,"internal_node_id":"0.0-180.0","response":"2nd","certainty":"high","char":"L","transposition":-3,"order":["swapped","shifted"],"probe_pitches":[13,10,15,10,3,13,3,6,8,10,8,6,3,13,10,6],"shifted_pitches":[13,10,15,10,3,13,3,7,8,10,8,6,3,13,10,6],"swapped_pitches":[13,10,15,10,3,13,3,8,6,10,8,6,3,13,10,6],"shift_direction":1,"question_num":151,"has_decoy":false,"subject":"S1C1630","sona":"41916","block":1,"time":"2021-09-18T03:39:17.233Z"},{"rt":1637.1000000014901,"stimulus":"[A] option 1, [L] option 2, [G] neither","key_press":65,"name":"choice","trial_type":"html-keyboard-response","trial_index":191,"time_elapsed":586752,"internal_node_id":"0.0-191.0","response":"1st","certainty":"high","char":"A","transposition":-1,"order":["swapped","shifted"],"probe_pitches":[8,12,10,5,10,15,5,15,12,5,10,5,15,12,8,3],"shifted_pitches":[8,12,10,5,10,15,5,15,13,5,10,5,15,12,8,3],"swapped_pitches":[8,12,10,5,10,15,5,12,15,5,10,5,15,12,8,3],"shift_direction":1,"question_num":161,"has_decoy":false,"subject":"S1C1630","sona":"41916","block":1,"time":"2021-09-18T03:39:17.233Z"},{"rt":1702.3999999985099,"stimulus":"[A] option 1, [L] option 2, [G] neither","key_press":76,"name":"choice","trial_type":"html-keyboard-response","trial_index":202,"time_elapsed":612775,"internal_node_id":"0.0-202.0","response":"2nd","certainty":"high","char":"L","transposition":-1,"order":["swapped","shifted"],"probe_pitches":[15,13,8,11,9,10,11,15,12,8,9,5,15,4,11,7],"shifted_pitches":[15,13,8,11,9,10,11,14,12,8,9,5,15,4,11,7],"swapped_pitches":[15,13,8,11,9,10,11,12,15,8,9,5,15,4,11,7],"shift_direction":-1,"question_num":171,"has_decoy":false,"subject":"S1C1630","sona":"41916","block":1,"time":"2021-09-18T03:39:17.233Z"},{"rt":1943.1999999955297,"stimulus":"[A] option 1, [L] option 2, [G] neither","key_press":65,"name":"choice","trial_type":"html-keyboard-response","trial_index":213,"time_elapsed":639255,"internal_node_id":"0.0-213.0","response":"1st","certainty":"high","char":"A","transposition":1,"order":["shifted","swapped"],"probe_pitches":[13,10,3,5,8,15,10,8,13,15,3,13,15,3,5,10],"shifted_pitches":[13,10,3,5,8,15,10,7,13,15,3,13,15,3,5,10],"swapped_pitches":[13,10,3,5,8,15,10,13,8,15,3,13,15,3,5,10],"shift_direction":-1,"question_num":181,"has_decoy":false,"subject":"S1C1630","sona":"41916","block":1,"time":"2021-09-18T03:39:17.233Z"},{"rt":2469.7000000029802,"stimulus":"[A] option 1, [L] option 2, [G] neither","key_press":65,"name":"choice","trial_type":"html-keyboard-response","trial_index":224,"time_elapsed":664474,"internal_node_id":"0.0-224.0","response":"1st","certainty":"high","char":"A","transposition":2,"order":["swapped","shifted"],"probe_pitches":[9,7,4,12,5,7,10,12,5,14,11,3,9,15,14,9],"shifted_pitches":[9,7,4,12,5,7,10,12,6,14,11,3,9,15,14,9],"swapped_pitches":[9,7,4,12,5,7,10,5,12,14,11,3,9,15,14,9],"shift_direction":1,"question_num":191,"has_decoy":false,"subject":"S1C1630","sona":"41916","block":1,"time":"2021-09-18T03:39:17.233Z"}]