[{"rt":1740.0999999996275,"stimulus":"[A] option 1, [L] option 2, [G] neither","key_press":76,"name":"choice","trial_type":"html-keyboard-response","trial_index":10,"time_elapsed":25664,"internal_node_id":"0.0-10.0","subject":"S1C1608","sona":"41395","block":6,"time":"2021-09-11T23:14:08.170Z","response":"2nd","certainty":"high","char":"L","transposition":-2,"order":["swapped","shifted"],"probe_pitches":[5,3,10,2,11,9,10,5,9,12,13,11,4,5,10,5],"shifted_pitches":[5,3,10,2,11,9,10,5,8,12,13,11,4,5,10,5],"swapped_pitches":[5,3,10,2,11,9,10,9,5,12,13,11,4,5,10,5],"shift_direction":-1,"question_num":1,"has_decoy":false},{"rt":1652.9000000003725,"stimulus":"[A] option 1, [L] option 2, [G] neither","key_press":71,"name":"choice","trial_type":"html-keyboard-response","trial_index":21,"time_elapsed":49929,"internal_node_id":"0.0-21.0","subject":"S1C1608","sona":"41395","block":6,"time":"2021-09-11T23:14:08.170Z","response":"neither","certainty":"high","char":"G","transposition":-1,"order":["swapped","shifted"],"probe_pitches":[3,8,6,13,15,13,8,3,10,13,8,15,10,8,10,15],"shifted_pitches":[3,8,6,13,15,13,8,2,10,13,8,15,10,8,10,15],"swapped_pitches":[3,8,6,13,15,13,8,10,3,13,8,15,10,8,10,15],"shift_direction":-1,"question_num":11,"has_decoy":false},{"rt":743.2000000011176,"stimulus":"[A] option 1, [L] option 2, [G] neither","key_press":76,"name":"choice","trial_type":"html-keyboard-response","trial_index":32,"time_elapsed":75483,"internal_node_id":"0.0-32.0","subject":"S1C1608","sona":"41395","block":6,"time":"2021-09-11T23:14:08.170Z","response":"2nd","certainty":"high","char":"L","transposition":-2,"order":["shifted","swapped"],"probe_pitches":[8,3,8,12,3,8,10,12,3,15,3,5,3,15,3,10],"shifted_pitches":[8,3,8,12,3,8,10,12,2,15,3,5,3,15,3,10],"swapped_pitches":[8,3,8,12,3,8,10,3,12,15,3,5,3,15,3,10],"shift_direction":-1,"question_num":21,"has_decoy":false},{"rt":1198.699999999255,"stimulus":"[A] option 1, [L] option 2, [G] neither","key_press":71,"name":"choice","trial_type":"html-keyboard-response","trial_index":43,"time_elapsed":103245,"internal_node_id":"0.0-43.0","subject":"S1C1608","sona":"41395","block":6,"time":"2021-09-11T23:14:08.170Z","response":"neither","certainty":"high","char":"G","transposition":3,"order":["shifted","swapped"],"probe_pitches":[11,6,5,12,8,11,2,8,6,14,5,12,11,4,8,11],"shifted_pitches":[11,6,5,12,8,11,2,7,6,14,5,12,11,4,8,11],"swapped_pitches":[11,6,5,12,8,11,2,6,8,14,5,12,11,4,8,11],"shift_direction":-1,"question_num":31,"has_decoy":false},{"rt":1229.699999999255,"stimulus":"[A] option 1, [L] option 2, [G] neither","key_press":65,"name":"choice","trial_type":"html-keyboard-response","trial_index":54,"time_elapsed":128044,"internal_node_id":"0.0-54.0","subject":"S1C1608","sona":"41395","block":6,"time":"2021-09-11T23:14:08.170Z","response":"1st","certainty":"high","char":"A","transposition":-3,"order":["shifted","swapped"],"probe_pitches":[12,10,7,8,2,8,6,2,7,8,7,6,8,12,5,9],"shifted_pitches":[12,10,7,8,2,8,6,1,7,8,7,6,8,12,5,9],"swapped_pitches":[12,10,7,8,2,8,6,7,2,8,7,6,8,12,5,9],"shift_direction":-1,"question_num":41,"has_decoy":false},{"rt":3671.5,"stimulus":"[A] option 1, [L] option 2, [G] neither","key_press":71,"name":"choice","trial_type":"html-keyboard-response","trial_index":65,"time_elapsed":155096,"internal_node_id":"0.0-65.0","subject":"S1C1608","sona":"41395","block":6,"time":"2021-09-11T23:14:08.170Z","response":"neither","certainty":"high","char":"G","transposition":2,"order":["swapped","shifted"],"probe_pitches":[15,12,15,12,15,8,10,8,15,12,8,10,5,8,10,12],"shifted_pitches":[15,12,15,12,15,8,10,9,15,12,8,10,5,8,10,12],"swapped_pitches":[15,12,15,12,15,8,10,15,8,12,8,10,5,8,10,12],"shift_direction":1,"question_num":51,"has_decoy":false},{"rt":1171.800000000745,"stimulus":"[A] option 1, [L] option 2, [G] neither","key_press":71,"name":"choice","trial_type":"html-keyboard-response","trial_index":76,"time_elapsed":178781,"internal_node_id":"0.0-76.0","subject":"S1C1608","sona":"41395","block":6,"time":"2021-09-11T23:14:08.170Z","response":"neither","certainty":"high","char":"G","transposition":1,"order":["shifted","swapped"],"probe_pitches":[12,7,8,7,4,5,7,11,8,5,2,11,4,8,5,11],"shifted_pitches":[12,7,8,7,4,5,7,11,9,5,2,11,4,8,5,11],"swapped_pitches":[12,7,8,7,4,5,7,8,11,5,2,11,4,8,5,11],"shift_direction":1,"question_num":61,"has_decoy":false},{"rt":519.9000000003725,"stimulus":"[A] option 1, [L] option 2, [G] neither","key_press":71,"name":"choice","trial_type":"html-keyboard-response","trial_index":87,"time_elapsed":202011,"internal_node_id":"0.0-87.0","subject":"S1C1608","sona":"41395","block":6,"time":"2021-09-11T23:14:08.170Z","response":"neither","certainty":"high","char":"G","transposition":-3,"order":["swapped","shifted"],"probe_pitches":[6,8,6,8,3,13,3,6,15,11,6,11,3,8,13,8],"shifted_pitches":[6,8,6,8,3,13,3,7,15,11,6,11,3,8,13,8],"swapped_pitches":[6,8,6,8,3,13,3,15,6,11,6,11,3,8,13,8],"shift_direction":1,"question_num":71,"has_decoy":false},{"rt":2803.5999999996275,"stimulus":"[A] option 1, [L] option 2, [G] neither","key_press":71,"name":"choice","trial_type":"html-keyboard-response","trial_index":98,"time_elapsed":227698,"internal_node_id":"0.0-98.0","subject":"S1C1608","sona":"41395","block":6,"time":"2021-09-11T23:14:08.170Z","response":"neither","certainty":"high","char":"G","transposition":-3,"order":["swapped","shifted"],"probe_pitches":[10,8,10,8,13,5,10,5,13,15,3,5,3,5,3,8],"shifted_pitches":[10,8,10,8,13,5,10,5,12,15,3,5,3,5,3,8],"swapped_pitches":[10,8,10,8,13,5,10,13,5,15,3,5,3,5,3,8],"shift_direction":-1,"question_num":81,"has_decoy":false},{"rt":1815,"stimulus":"[A] option 1, [L] option 2, [G] neither","key_press":65,"name":"choice","trial_type":"html-keyboard-response","trial_index":109,"time_elapsed":252086,"internal_node_id":"0.0-109.0","subject":"S1C1608","sona":"41395","block":6,"time":"2021-09-11T23:14:08.170Z","response":"1st","certainty":"high","char":"A","transposition":0,"order":["swapped","shifted"],"probe_pitches":[13,9,3,7,13,10,3,11,9,13,5,11,10,4,3,10],"shifted_pitches":[13,9,3,7,13,10,3,12,9,13,5,11,10,4,3,10],"swapped_pitches":[13,9,3,7,13,10,3,9,11,13,5,11,10,4,3,10],"shift_direction":1,"question_num":91,"has_decoy":false},{"rt":2768.0999999996275,"stimulus":"[A] option 1, [L] option 2, [G] neither","key_press":71,"name":"choice","trial_type":"html-keyboard-response","trial_index":120,"time_elapsed":277881,"internal_node_id":"0.0-120.0","subject":"S1C1608","sona":"41395","block":6,"time":"2021-09-11T23:14:08.170Z","response":"neither","certainty":"high","char":"G","transposition":-1,"order":["shifted","swapped"],"probe_pitches":[3,6,3,8,11,13,3,6,11,8,13,15,8,6,13,6],"shifted_pitches":[3,6,3,8,11,13,3,6,12,8,13,15,8,6,13,6],"swapped_pitches":[3,6,3,8,11,13,3,11,6,8,13,15,8,6,13,6],"shift_direction":1,"question_num":101,"has_decoy":false},{"rt":405.7000000011176,"stimulus":"[A] option 1, [L] option 2, [G] neither","key_press":76,"name":"choice","trial_type":"html-keyboard-response","trial_index":131,"time_elapsed":301237,"internal_node_id":"0.0-131.0","subject":"S1C1608","sona":"41395","block":6,"time":"2021-09-11T23:14:08.170Z","response":"2nd","certainty":"high","char":"L","transposition":3,"order":["swapped","shifted"],"probe_pitches":[15,13,15,10,13,3,6,13,8,3,13,6,8,3,15,6],"shifted_pitches":[15,13,15,10,13,3,6,13,9,3,13,6,8,3,15,6],"swapped_pitches":[15,13,15,10,13,3,6,8,13,3,13,6,8,3,15,6],"shift_direction":1,"question_num":111,"has_decoy":false},{"rt":954.0999999996275,"stimulus":"[A] option 1, [L] option 2, [G] neither","key_press":76,"name":"choice","trial_type":"html-keyboard-response","trial_index":142,"time_elapsed":324515,"internal_node_id":"0.0-142.0","subject":"S1C1608","sona":"41395","block":6,"time":"2021-09-11T23:14:08.170Z","response":"2nd","certainty":"high","char":"L","transposition":-3,"order":["swapped","shifted"],"probe_pitches":[2,6,10,7,12,13,5,8,10,7,9,12,5,12,14,7],"shifted_pitches":[2,6,10,7,12,13,5,8,11,7,9,12,5,12,14,7],"swapped_pitches":[2,6,10,7,12,13,5,10,8,7,9,12,5,12,14,7],"shift_direction":1,"question_num":121,"has_decoy":false},{"rt":2161.60000000149,"stimulus":"[A] option 1, [L] option 2, [G] neither","key_press":71,"name":"choice","trial_type":"html-keyboard-response","trial_index":153,"time_elapsed":349659,"internal_node_id":"0.0-153.0","subject":"S1C1608","sona":"41395","block":6,"time":"2021-09-11T23:14:08.170Z","response":"neither","certainty":"high","char":"G","transposition":-1,"order":["swapped","shifted"],"probe_pitches":[4,3,5,2,7,6,7,6,9,2,3,6,13,4,13,5],"shifted_pitches":[4,3,5,2,7,6,7,6,10,2,3,6,13,4,13,5],"swapped_pitches":[4,3,5,2,7,6,7,9,6,2,3,6,13,4,13,5],"shift_direction":1,"question_num":131,"has_decoy":false},{"rt":1355.199999999255,"stimulus":"[A] option 1, [L] option 2, [G] neither","key_press":71,"name":"choice","trial_type":"html-keyboard-response","trial_index":164,"time_elapsed":374517,"internal_node_id":"0.0-164.0","subject":"S1C1608","sona":"41395","block":6,"time":"2021-09-11T23:14:08.170Z","response":"neither","certainty":"high","char":"G","transposition":2,"order":["shifted","swapped"],"probe_pitches":[9,6,7,8,7,8,12,4,10,14,12,2,9,7,9,4],"shifted_pitches":[9,6,7,8,7,8,12,5,10,14,12,2,9,7,9,4],"swapped_pitches":[9,6,7,8,7,8,12,10,4,14,12,2,9,7,9,4],"shift_direction":1,"question_num":141,"has_decoy":false},{"rt":1215.2999999988824,"stimulus":"[A] option 1, [L] option 2, [G] neither","key_press":71,"name":"choice","trial_type":"html-keyboard-response","trial_index":175,"time_elapsed":398313,"internal_node_id":"0.0-175.0","subject":"S1C1608","sona":"41395","block":6,"time":"2021-09-11T23:14:08.170Z","response":"neither","certainty":"high","char":"G","transposition":0,"order":["shifted","swapped"],"probe_pitches":[10,5,7,12,15,10,5,10,7,5,3,15,7,5,12,15],"shifted_pitches":[10,5,7,12,15,10,5,9,7,5,3,15,7,5,12,15],"swapped_pitches":[10,5,7,12,15,10,5,7,10,5,3,15,7,5,12,15],"shift_direction":-1,"question_num":151,"has_decoy":false},{"rt":1004.7999999988824,"stimulus":"[A] option 1, [L] option 2, [G] neither","key_press":76,"name":"choice","trial_type":"html-keyboard-response","trial_index":186,"time_elapsed":422241,"internal_node_id":"0.0-186.0","subject":"S1C1608","sona":"41395","block":6,"time":"2021-09-11T23:14:08.170Z","response":"2nd","certainty":"high","char":"L","transposition":-2,"order":["shifted","swapped"],"probe_pitches":[15,13,8,3,5,8,3,13,15,5,10,13,10,13,3,8],"shifted_pitches":[15,13,8,3,5,8,3,14,15,5,10,13,10,13,3,8],"swapped_pitches":[15,13,8,3,5,8,3,15,13,5,10,13,10,13,3,8],"shift_direction":1,"question_num":161,"has_decoy":false},{"rt":308.7999999988824,"stimulus":"[A] option 1, [L] option 2, [G] neither","key_press":65,"name":"choice","trial_type":"html-keyboard-response","trial_index":197,"time_elapsed":445427,"internal_node_id":"0.0-197.0","subject":"S1C1608","sona":"41395","block":6,"time":"2021-09-11T23:14:08.170Z","response":"1st","certainty":"high","char":"A","transposition":-2,"order":["swapped","shifted"],"probe_pitches":[2,4,2,3,7,8,13,7,3,4,14,3,5,3,7,5],"shifted_pitches":[2,4,2,3,7,8,13,6,3,4,14,3,5,3,7,5],"swapped_pitches":[2,4,2,3,7,8,13,3,7,4,14,3,5,3,7,5],"shift_direction":-1,"question_num":171,"has_decoy":false},{"rt":1705.8999999985099,"stimulus":"[A] option 1, [L] option 2, [G] neither","key_press":71,"name":"choice","trial_type":"html-keyboard-response","trial_index":208,"time_elapsed":469459,"internal_node_id":"0.0-208.0","subject":"S1C1608","sona":"41395","block":6,"time":"2021-09-11T23:14:08.170Z","response":"neither","certainty":"high","char":"G","transposition":-1,"order":["shifted","swapped"],"probe_pitches":[12,8,7,6,2,9,7,9,5,14,11,10,7,6,7,3],"shifted_pitches":[12,8,7,6,2,9,7,9,4,14,11,10,7,6,7,3],"swapped_pitches":[12,8,7,6,2,9,7,5,9,14,11,10,7,6,7,3],"shift_direction":-1,"question_num":181,"has_decoy":false},{"rt":1503,"stimulus":"[A] option 1, [L] option 2, [G] neither","key_press":71,"name":"choice","trial_type":"html-keyboard-response","trial_index":219,"time_elapsed":494067,"internal_node_id":"0.0-219.0","subject":"S1C1608","sona":"41395","block":6,"time":"2021-09-11T23:14:08.170Z","response":"neither","certainty":"high","char":"G","transposition":1,"order":["shifted","swapped"],"probe_pitches":[7,10,7,3,7,3,10,5,12,3,10,5,3,15,3,12],"shifted_pitches":[7,10,7,3,7,3,10,5,11,3,10,5,3,15,3,12],"swapped_pitches":[7,10,7,3,7,3,10,12,5,3,10,5,3,15,3,12],"shift_direction":-1,"question_num":191,"has_decoy":false}]