[{"rt":7916.700000001118,"stimulus":"[A] option 1, [L] option 2, [G] neither","key_press":76,"name":"choice","trial_type":"html-keyboard-response","trial_index":10,"time_elapsed":33140,"internal_node_id":"0.0-10.0","subject":"S1C1608","sona":"41395","block":4,"time":"2021-09-11T22:57:04.449Z","response":"2nd","certainty":"high","char":"L","transposition":0,"order":["swapped","shifted"],"probe_pitches":[6,2,-2,3,10,9,-1,9,8,1,3,-2,8,3,0,-1],"shifted_pitches":[6,2,-2,3,10,9,-1,9,7,1,3,-2,8,3,0,-1],"swapped_pitches":[6,2,-2,3,10,9,-1,8,9,1,3,-2,8,3,0,-1],"shift_direction":-1,"question_num":1,"has_decoy":false},{"rt":1558.199999999255,"stimulus":"[A] option 1, [L] option 2, [G] neither","key_press":71,"name":"choice","trial_type":"html-keyboard-response","trial_index":21,"time_elapsed":61896,"internal_node_id":"0.0-21.0","subject":"S1C1608","sona":"41395","block":4,"time":"2021-09-11T22:57:04.449Z","response":"neither","certainty":"high","char":"G","transposition":-1,"order":["shifted","swapped"],"probe_pitches":[11,9,11,9,4,11,6,11,-1,4,11,1,11,9,11,-1],"shifted_pitches":[11,9,11,9,4,11,6,10,-1,4,11,1,11,9,11,-1],"swapped_pitches":[11,9,11,9,4,11,6,-1,11,4,11,1,11,9,11,-1],"shift_direction":-1,"question_num":11,"has_decoy":false},{"rt":1879.0999999996275,"stimulus":"[A] option 1, [L] option 2, [G] neither","key_press":71,"name":"choice","trial_type":"html-keyboard-response","trial_index":32,"time_elapsed":86857,"internal_node_id":"0.0-32.0","subject":"S1C1608","sona":"41395","block":4,"time":"2021-09-11T22:57:04.449Z","response":"neither","certainty":"high","char":"G","transposition":-3,"order":["swapped","shifted"],"probe_pitches":[-2,3,9,5,9,2,9,-1,3,10,7,1,10,1,6,0],"shifted_pitches":[-2,3,9,5,9,2,9,-1,4,10,7,1,10,1,6,0],"swapped_pitches":[-2,3,9,5,9,2,9,3,-1,10,7,1,10,1,6,0],"shift_direction":1,"question_num":21,"has_decoy":false},{"rt":1828.5999999996275,"stimulus":"[A] option 1, [L] option 2, [G] neither","key_press":71,"name":"choice","trial_type":"html-keyboard-response","trial_index":43,"time_elapsed":111638,"internal_node_id":"0.0-43.0","subject":"S1C1608","sona":"41395","block":4,"time":"2021-09-11T22:57:04.449Z","response":"neither","certainty":"high","char":"G","transposition":2,"order":["shifted","swapped"],"probe_pitches":[10,8,7,2,3,4,6,-1,10,1,10,1,-1,3,9,-2],"shifted_pitches":[10,8,7,2,3,4,6,0,10,1,10,1,-1,3,9,-2],"swapped_pitches":[10,8,7,2,3,4,6,10,-1,1,10,1,-1,3,9,-2],"shift_direction":1,"question_num":31,"has_decoy":false},{"rt":1145.699999999255,"stimulus":"[A] option 1, [L] option 2, [G] neither","key_press":71,"name":"choice","trial_type":"html-keyboard-response","trial_index":54,"time_elapsed":137004,"internal_node_id":"0.0-54.0","subject":"S1C1608","sona":"41395","block":4,"time":"2021-09-11T22:57:04.449Z","response":"neither","certainty":"high","char":"G","transposition":1,"order":["shifted","swapped"],"probe_pitches":[9,4,9,6,11,2,4,2,11,9,-1,4,9,2,11,-1],"shifted_pitches":[9,4,9,6,11,2,4,2,12,9,-1,4,9,2,11,-1],"swapped_pitches":[9,4,9,6,11,2,4,11,2,9,-1,4,9,2,11,-1],"shift_direction":1,"question_num":41,"has_decoy":false},{"rt":1869.3999999985099,"stimulus":"[A] option 1, [L] option 2, [G] neither","key_press":76,"name":"choice","trial_type":"html-keyboard-response","trial_index":65,"time_elapsed":162069,"internal_node_id":"0.0-65.0","subject":"S1C1608","sona":"41395","block":4,"time":"2021-09-11T22:57:04.449Z","response":"2nd","certainty":"high","char":"L","transposition":-3,"order":["swapped","shifted"],"probe_pitches":[-1,3,6,5,3,1,5,8,6,1,5,7,10,6,5,1],"shifted_pitches":[-1,3,6,5,3,1,5,9,6,1,5,7,10,6,5,1],"swapped_pitches":[-1,3,6,5,3,1,5,6,8,1,5,7,10,6,5,1],"shift_direction":1,"question_num":51,"has_decoy":false},{"rt":1319.699999999255,"stimulus":"[A] option 1, [L] option 2, [G] neither","key_press":76,"name":"choice","trial_type":"html-keyboard-response","trial_index":76,"time_elapsed":186084,"internal_node_id":"0.0-76.0","subject":"S1C1608","sona":"41395","block":4,"time":"2021-09-11T22:57:04.449Z","response":"2nd","certainty":"high","char":"L","transposition":-1,"order":["shifted","swapped"],"probe_pitches":[9,10,3,5,7,9,-1,8,7,-2,0,9,8,5,10,2],"shifted_pitches":[9,10,3,5,7,9,-1,8,6,-2,0,9,8,5,10,2],"swapped_pitches":[9,10,3,5,7,9,-1,7,8,-2,0,9,8,5,10,2],"shift_direction":-1,"question_num":61,"has_decoy":false},{"rt":1533.300000000745,"stimulus":"[A] option 1, [L] option 2, [G] neither","key_press":71,"name":"choice","trial_type":"html-keyboard-response","trial_index":87,"time_elapsed":210576,"internal_node_id":"0.0-87.0","subject":"S1C1608","sona":"41395","block":4,"time":"2021-09-11T22:57:04.449Z","response":"neither","certainty":"high","char":"G","transposition":-3,"order":["swapped","shifted"],"probe_pitches":[4,-1,1,8,6,8,4,6,8,11,4,11,-1,1,8,11],"shifted_pitches":[4,-1,1,8,6,8,4,5,8,11,4,11,-1,1,8,11],"swapped_pitches":[4,-1,1,8,6,8,4,8,6,11,4,11,-1,1,8,11],"shift_direction":-1,"question_num":71,"has_decoy":false},{"rt":3109,"stimulus":"[A] option 1, [L] option 2, [G] neither","key_press":65,"name":"choice","trial_type":"html-keyboard-response","trial_index":98,"time_elapsed":237378,"internal_node_id":"0.0-98.0","subject":"S1C1608","sona":"41395","block":4,"time":"2021-09-11T22:57:04.449Z","response":"1st","certainty":"high","char":"A","transposition":0,"order":["swapped","shifted"],"probe_pitches":[2,4,-1,4,7,4,11,4,9,11,2,4,-1,2,-1,9],"shifted_pitches":[2,4,-1,4,7,4,11,4,10,11,2,4,-1,2,-1,9],"swapped_pitches":[2,4,-1,4,7,4,11,9,4,11,2,4,-1,2,-1,9],"shift_direction":1,"question_num":81,"has_decoy":false},{"rt":2418.9000000003725,"stimulus":"[A] option 1, [L] option 2, [G] neither","key_press":71,"name":"choice","trial_type":"html-keyboard-response","trial_index":109,"time_elapsed":262960,"internal_node_id":"0.0-109.0","subject":"S1C1608","sona":"41395","block":4,"time":"2021-09-11T22:57:04.449Z","response":"neither","certainty":"high","char":"G","transposition":-2,"order":["shifted","swapped"],"probe_pitches":[-1,1,3,1,3,6,3,6,8,1,11,8,-1,1,-1,11],"shifted_pitches":[-1,1,3,1,3,6,3,6,7,1,11,8,-1,1,-1,11],"swapped_pitches":[-1,1,3,1,3,6,3,8,6,1,11,8,-1,1,-1,11],"shift_direction":-1,"question_num":91,"has_decoy":false},{"rt":1931.0999999996275,"stimulus":"[A] option 1, [L] option 2, [G] neither","key_press":71,"name":"choice","trial_type":"html-keyboard-response","trial_index":120,"time_elapsed":288253,"internal_node_id":"0.0-120.0","subject":"S1C1608","sona":"41395","block":4,"time":"2021-09-11T22:57:04.449Z","response":"neither","certainty":"high","char":"G","transposition":3,"order":["shifted","swapped"],"probe_pitches":[-1,3,8,3,8,6,3,-1,1,6,11,1,-1,8,-1,1],"shifted_pitches":[-1,3,8,3,8,6,3,0,1,6,11,1,-1,8,-1,1],"swapped_pitches":[-1,3,8,3,8,6,3,1,-1,6,11,1,-1,8,-1,1],"shift_direction":1,"question_num":101,"has_decoy":false},{"rt":1626.8999999985099,"stimulus":"[A] option 1, [L] option 2, [G] neither","key_press":76,"name":"choice","trial_type":"html-keyboard-response","trial_index":131,"time_elapsed":315096,"internal_node_id":"0.0-131.0","subject":"S1C1608","sona":"41395","block":4,"time":"2021-09-11T22:57:04.449Z","response":"2nd","certainty":"high","char":"L","transposition":3,"order":["swapped","shifted"],"probe_pitches":[5,7,6,0,9,8,3,0,8,5,4,9,4,0,4,0],"shifted_pitches":[5,7,6,0,9,8,3,1,8,5,4,9,4,0,4,0],"swapped_pitches":[5,7,6,0,9,8,3,8,0,5,4,9,4,0,4,0],"shift_direction":1,"question_num":111,"has_decoy":false},{"rt":1333.6000000014901,"stimulus":"[A] option 1, [L] option 2, [G] neither","key_press":71,"name":"choice","trial_type":"html-keyboard-response","trial_index":142,"time_elapsed":339080,"internal_node_id":"0.0-142.0","subject":"S1C1608","sona":"41395","block":4,"time":"2021-09-11T22:57:04.449Z","response":"neither","certainty":"high","char":"G","transposition":-2,"order":["shifted","swapped"],"probe_pitches":[7,2,0,-2,5,10,0,9,-1,10,1,3,7,9,0,-1],"shifted_pitches":[7,2,0,-2,5,10,0,8,-1,10,1,3,7,9,0,-1],"swapped_pitches":[7,2,0,-2,5,10,0,-1,9,10,1,3,7,9,0,-1],"shift_direction":-1,"question_num":121,"has_decoy":false},{"rt":386.1000000014901,"stimulus":"[A] option 1, [L] option 2, [G] neither","key_press":76,"name":"choice","trial_type":"html-keyboard-response","trial_index":153,"time_elapsed":367743,"internal_node_id":"0.0-153.0","subject":"S1C1608","sona":"41395","block":4,"time":"2021-09-11T22:57:04.449Z","response":"2nd","certainty":"high","char":"L","transposition":-3,"order":["swapped","shifted"],"probe_pitches":[1,-1,6,4,8,-1,4,6,1,8,-1,4,1,6,1,-1],"shifted_pitches":[1,-1,6,4,8,-1,4,7,1,8,-1,4,1,6,1,-1],"swapped_pitches":[1,-1,6,4,8,-1,4,1,6,8,-1,4,1,6,1,-1],"shift_direction":1,"question_num":131,"has_decoy":false},{"rt":2000.3999999985099,"stimulus":"[A] option 1, [L] option 2, [G] neither","key_press":65,"name":"choice","trial_type":"html-keyboard-response","trial_index":164,"time_elapsed":392920,"internal_node_id":"0.0-164.0","subject":"S1C1608","sona":"41395","block":4,"time":"2021-09-11T22:57:04.449Z","response":"1st","certainty":"high","char":"A","transposition":-1,"order":["shifted","swapped"],"probe_pitches":[2,-1,2,6,11,4,9,4,11,2,4,-1,4,6,11,9],"shifted_pitches":[2,-1,2,6,11,4,9,4,10,2,4,-1,4,6,11,9],"swapped_pitches":[2,-1,2,6,11,4,9,11,4,2,4,-1,4,6,11,9],"shift_direction":-1,"question_num":141,"has_decoy":false},{"rt":1700,"stimulus":"[A] option 1, [L] option 2, [G] neither","key_press":71,"name":"choice","trial_type":"html-keyboard-response","trial_index":175,"time_elapsed":423382,"internal_node_id":"0.0-175.0","subject":"S1C1608","sona":"41395","block":4,"time":"2021-09-11T22:57:04.449Z","response":"neither","certainty":"high","char":"G","transposition":-1,"order":["shifted","swapped"],"probe_pitches":[-1,5,7,0,6,8,1,10,3,7,0,1,3,-2,5,-1],"shifted_pitches":[-1,5,7,0,6,8,1,10,2,7,0,1,3,-2,5,-1],"swapped_pitches":[-1,5,7,0,6,8,1,3,10,7,0,1,3,-2,5,-1],"shift_direction":-1,"question_num":151,"has_decoy":false},{"rt":1143.7000000011176,"stimulus":"[A] option 1, [L] option 2, [G] neither","key_press":76,"name":"choice","trial_type":"html-keyboard-response","trial_index":186,"time_elapsed":448415,"internal_node_id":"0.0-186.0","subject":"S1C1608","sona":"41395","block":4,"time":"2021-09-11T22:57:04.449Z","response":"2nd","certainty":"high","char":"L","transposition":1,"order":["shifted","swapped"],"probe_pitches":[4,10,4,3,-1,0,2,7,4,-1,3,-2,10,1,6,3],"shifted_pitches":[4,10,4,3,-1,0,2,7,5,-1,3,-2,10,1,6,3],"swapped_pitches":[4,10,4,3,-1,0,2,4,7,-1,3,-2,10,1,6,3],"shift_direction":1,"question_num":161,"has_decoy":false},{"rt":2448,"stimulus":"[A] option 1, [L] option 2, [G] neither","key_press":71,"name":"choice","trial_type":"html-keyboard-response","trial_index":197,"time_elapsed":473890,"internal_node_id":"0.0-197.0","subject":"S1C1608","sona":"41395","block":4,"time":"2021-09-11T22:57:04.449Z","response":"neither","certainty":"high","char":"G","transposition":2,"order":["swapped","shifted"],"probe_pitches":[9,4,11,4,11,1,6,9,4,11,6,-1,9,-1,11,-1],"shifted_pitches":[9,4,11,4,11,1,6,10,4,11,6,-1,9,-1,11,-1],"swapped_pitches":[9,4,11,4,11,1,6,4,9,11,6,-1,9,-1,11,-1],"shift_direction":1,"question_num":171,"has_decoy":false},{"rt":1667.5,"stimulus":"[A] option 1, [L] option 2, [G] neither","key_press":71,"name":"choice","trial_type":"html-keyboard-response","trial_index":208,"time_elapsed":498784,"internal_node_id":"0.0-208.0","subject":"S1C1608","sona":"41395","block":4,"time":"2021-09-11T22:57:04.449Z","response":"neither","certainty":"high","char":"G","transposition":-2,"order":["swapped","shifted"],"probe_pitches":[-1,2,-1,7,11,2,9,7,2,9,4,11,7,4,-1,4],"shifted_pitches":[-1,2,-1,7,11,2,9,7,1,9,4,11,7,4,-1,4],"swapped_pitches":[-1,2,-1,7,11,2,9,2,7,9,4,11,7,4,-1,4],"shift_direction":-1,"question_num":181,"has_decoy":false},{"rt":2124.89999999851,"stimulus":"[A] option 1, [L] option 2, [G] neither","key_press":71,"name":"choice","trial_type":"html-keyboard-response","trial_index":219,"time_elapsed":524949,"internal_node_id":"0.0-219.0","subject":"S1C1608","sona":"41395","block":4,"time":"2021-09-11T22:57:04.449Z","response":"neither","certainty":"high","char":"G","transposition":-2,"order":["swapped","shifted"],"probe_pitches":[7,4,0,6,10,2,5,4,-1,10,8,-1,5,0,-1,1],"shifted_pitches":[7,4,0,6,10,2,5,3,-1,10,8,-1,5,0,-1,1],"swapped_pitches":[7,4,0,6,10,2,5,-1,4,10,8,-1,5,0,-1,1],"shift_direction":-1,"question_num":191,"has_decoy":false}]