[{"rt":6836.399999999441,"stimulus":"[A] option 1, [L] option 2, [G] neither","key_press":65,"name":"choice","trial_type":"html-keyboard-response","trial_index":15,"time_elapsed":96017,"internal_node_id":"0.0-15.0","response":"1st","certainty":"high","char":"A","transposition":3,"order":["swapped","shifted"],"probe_pitches":[4,1,0,4,8,11,5,7,4,1,9,11,4,5,2,0],"shifted_pitches":[4,1,0,4,8,11,5,7,3,1,9,11,4,5,2,0],"swapped_pitches":[4,1,0,4,8,11,5,4,7,1,9,11,4,5,2,0],"shift_direction":-1,"question_num":1,"has_decoy":false,"subject":"S1C1608","sona":"41395","block":1,"time":"2021-09-11T22:29:51.443Z"},{"rt":5330.799999999814,"stimulus":"[A] option 1, [L] option 2, [G] neither","key_press":71,"name":"choice","trial_type":"html-keyboard-response","trial_index":26,"time_elapsed":126896,"internal_node_id":"0.0-26.0","response":"neither","certainty":"high","char":"G","transposition":-3,"order":["swapped","shifted"],"probe_pitches":[1,4,-1,1,10,11,0,4,5,1,5,11,-1,8,3,2],"shifted_pitches":[1,4,-1,1,10,11,0,4,6,1,5,11,-1,8,3,2],"swapped_pitches":[1,4,-1,1,10,11,0,5,4,1,5,11,-1,8,3,2],"shift_direction":1,"question_num":11,"has_decoy":false,"subject":"S1C1608","sona":"41395","block":1,"time":"2021-09-11T22:29:51.443Z"},{"rt":2220.0999999996275,"stimulus":"[A] option 1, [L] option 2, [G] neither","key_press":76,"name":"choice","trial_type":"html-keyboard-response","trial_index":37,"time_elapsed":154292,"internal_node_id":"0.0-37.0","response":"2nd","certainty":"high","char":"L","transposition":3,"order":["swapped","shifted"],"probe_pitches":[-1,1,6,8,6,11,4,1,11,8,11,-1,11,6,11,8],"shifted_pitches":[-1,1,6,8,6,11,4,1,10,8,11,-1,11,6,11,8],"swapped_pitches":[-1,1,6,8,6,11,4,11,1,8,11,-1,11,6,11,8],"shift_direction":-1,"question_num":21,"has_decoy":false,"subject":"S1C1608","sona":"41395","block":1,"time":"2021-09-11T22:29:51.443Z"},{"rt":1901.300000000745,"stimulus":"[A] option 1, [L] option 2, [G] neither","key_press":76,"name":"choice","trial_type":"html-keyboard-response","trial_index":48,"time_elapsed":181898,"internal_node_id":"0.0-48.0","response":"2nd","certainty":"high","char":"L","transposition":-2,"order":["shifted","swapped"],"probe_pitches":[1,6,4,-1,6,4,11,1,4,9,1,9,-1,4,1,11],"shifted_pitches":[1,6,4,-1,6,4,11,0,4,9,1,9,-1,4,1,11],"swapped_pitches":[1,6,4,-1,6,4,11,4,1,9,1,9,-1,4,1,11],"shift_direction":-1,"question_num":31,"has_decoy":false,"subject":"S1C1608","sona":"41395","block":1,"time":"2021-09-11T22:29:51.443Z"},{"rt":2107.5,"stimulus":"[A] option 1, [L] option 2, [G] neither","key_press":71,"name":"choice","trial_type":"html-keyboard-response","trial_index":59,"time_elapsed":207544,"internal_node_id":"0.0-59.0","response":"neither","certainty":"high","char":"G","transposition":0,"order":["shifted","swapped"],"probe_pitches":[10,9,7,10,2,5,1,5,9,3,7,11,10,11,0,9],"shifted_pitches":[10,9,7,10,2,5,1,4,9,3,7,11,10,11,0,9],"swapped_pitches":[10,9,7,10,2,5,1,9,5,3,7,11,10,11,0,9],"shift_direction":-1,"question_num":41,"has_decoy":false,"subject":"S1C1608","sona":"41395","block":1,"time":"2021-09-11T22:29:51.443Z"},{"rt":1716,"stimulus":"[A] option 1, [L] option 2, [G] neither","key_press":76,"name":"choice","trial_type":"html-keyboard-response","trial_index":70,"time_elapsed":233117,"internal_node_id":"0.0-70.0","response":"2nd","certainty":"high","char":"L","transposition":1,"order":["swapped","shifted"],"probe_pitches":[-1,3,5,1,0,9,1,-1,6,9,8,2,9,11,1,8],"shifted_pitches":[-1,3,5,1,0,9,1,-1,7,9,8,2,9,11,1,8],"swapped_pitches":[-1,3,5,1,0,9,1,6,-1,9,8,2,9,11,1,8],"shift_direction":1,"question_num":51,"has_decoy":false,"subject":"S1C1608","sona":"41395","block":1,"time":"2021-09-11T22:29:51.443Z"},{"rt":1546.300000000745,"stimulus":"[A] option 1, [L] option 2, [G] neither","key_press":76,"name":"choice","trial_type":"html-keyboard-response","trial_index":81,"time_elapsed":258418,"internal_node_id":"0.0-81.0","response":"2nd","certainty":"high","char":"L","transposition":-3,"order":["shifted","swapped"],"probe_pitches":[8,3,8,6,8,11,8,11,-1,6,1,-1,8,3,6,8],"shifted_pitches":[8,3,8,6,8,11,8,10,-1,6,1,-1,8,3,6,8],"swapped_pitches":[8,3,8,6,8,11,8,-1,11,6,1,-1,8,3,6,8],"shift_direction":-1,"question_num":61,"has_decoy":false,"subject":"S1C1608","sona":"41395","block":1,"time":"2021-09-11T22:29:51.443Z"},{"rt":1508.9000000003725,"stimulus":"[A] option 1, [L] option 2, [G] neither","key_press":76,"name":"choice","trial_type":"html-keyboard-response","trial_index":92,"time_elapsed":283308,"internal_node_id":"0.0-92.0","response":"2nd","certainty":"high","char":"L","transposition":-1,"order":["shifted","swapped"],"probe_pitches":[0,-1,0,1,4,1,7,3,5,-1,10,-1,8,11,1,11],"shifted_pitches":[0,-1,0,1,4,1,7,2,5,-1,10,-1,8,11,1,11],"swapped_pitches":[0,-1,0,1,4,1,7,5,3,-1,10,-1,8,11,1,11],"shift_direction":-1,"question_num":71,"has_decoy":false,"subject":"S1C1608","sona":"41395","block":1,"time":"2021-09-11T22:29:51.443Z"},{"rt":1819.800000000745,"stimulus":"[A] option 1, [L] option 2, [G] neither","key_press":71,"name":"choice","trial_type":"html-keyboard-response","trial_index":103,"time_elapsed":308804,"internal_node_id":"0.0-103.0","response":"neither","certainty":"high","char":"G","transposition":-1,"order":["swapped","shifted"],"probe_pitches":[-1,2,9,2,-1,9,-1,9,6,4,11,2,6,2,4,2],"shifted_pitches":[-1,2,9,2,-1,9,-1,9,7,4,11,2,6,2,4,2],"swapped_pitches":[-1,2,9,2,-1,9,-1,6,9,4,11,2,6,2,4,2],"shift_direction":1,"question_num":81,"has_decoy":false,"subject":"S1C1608","sona":"41395","block":1,"time":"2021-09-11T22:29:51.443Z"},{"rt":1798.199999999255,"stimulus":"[A] option 1, [L] option 2, [G] neither","key_press":76,"name":"choice","trial_type":"html-keyboard-response","trial_index":114,"time_elapsed":334104,"internal_node_id":"0.0-114.0","response":"2nd","certainty":"high","char":"L","transposition":0,"order":["swapped","shifted"],"probe_pitches":[6,9,6,4,1,-1,4,6,9,1,4,9,6,9,6,1],"shifted_pitches":[6,9,6,4,1,-1,4,5,9,1,4,9,6,9,6,1],"swapped_pitches":[6,9,6,4,1,-1,4,9,6,1,4,9,6,9,6,1],"shift_direction":-1,"question_num":91,"has_decoy":false,"subject":"S1C1608","sona":"41395","block":1,"time":"2021-09-11T22:29:51.443Z"},{"rt":3835,"stimulus":"[A] option 1, [L] option 2, [G] neither","key_press":76,"name":"choice","trial_type":"html-keyboard-response","trial_index":125,"time_elapsed":361528,"internal_node_id":"0.0-125.0","response":"2nd","certainty":"high","char":"L","transposition":-2,"order":["swapped","shifted"],"probe_pitches":[2,8,3,1,2,1,3,11,6,7,1,0,7,5,11,-1],"shifted_pitches":[2,8,3,1,2,1,3,10,6,7,1,0,7,5,11,-1],"swapped_pitches":[2,8,3,1,2,1,3,6,11,7,1,0,7,5,11,-1],"shift_direction":-1,"question_num":101,"has_decoy":false,"subject":"S1C1608","sona":"41395","block":1,"time":"2021-09-11T22:29:51.443Z"},{"rt":1937.4000000003725,"stimulus":"[A] option 1, [L] option 2, [G] neither","key_press":65,"name":"choice","trial_type":"html-keyboard-response","trial_index":136,"time_elapsed":386969,"internal_node_id":"0.0-136.0","response":"1st","certainty":"high","char":"A","transposition":-3,"order":["shifted","swapped"],"probe_pitches":[11,7,4,2,8,3,6,4,0,3,1,8,7,3,1,4],"shifted_pitches":[11,7,4,2,8,3,6,5,0,3,1,8,7,3,1,4],"swapped_pitches":[11,7,4,2,8,3,6,0,4,3,1,8,7,3,1,4],"shift_direction":1,"question_num":111,"has_decoy":false,"subject":"S1C1608","sona":"41395","block":1,"time":"2021-09-11T22:29:51.443Z"},{"rt":2027.2999999988824,"stimulus":"[A] option 1, [L] option 2, [G] neither","key_press":65,"name":"choice","trial_type":"html-keyboard-response","trial_index":147,"time_elapsed":412243,"internal_node_id":"0.0-147.0","response":"1st","certainty":"high","char":"A","transposition":-1,"order":["shifted","swapped"],"probe_pitches":[9,7,11,9,4,9,11,7,-1,9,-1,9,2,7,4,2],"shifted_pitches":[9,7,11,9,4,9,11,7,0,9,-1,9,2,7,4,2],"swapped_pitches":[9,7,11,9,4,9,11,-1,7,9,-1,9,2,7,4,2],"shift_direction":1,"question_num":121,"has_decoy":false,"subject":"S1C1608","sona":"41395","block":1,"time":"2021-09-11T22:29:51.443Z"},{"rt":4475.700000001118,"stimulus":"[A] option 1, [L] option 2, [G] neither","key_press":71,"name":"choice","trial_type":"html-keyboard-response","trial_index":158,"time_elapsed":439982,"internal_node_id":"0.0-158.0","response":"neither","certainty":"high","char":"G","transposition":2,"order":["shifted","swapped"],"probe_pitches":[2,4,-1,2,11,4,11,7,4,9,4,11,2,11,4,-1],"shifted_pitches":[2,4,-1,2,11,4,11,7,5,9,4,11,2,11,4,-1],"swapped_pitches":[2,4,-1,2,11,4,11,4,7,9,4,11,2,11,4,-1],"shift_direction":1,"question_num":131,"has_decoy":false,"subject":"S1C1608","sona":"41395","block":1,"time":"2021-09-11T22:29:51.443Z"},{"rt":1602.199999999255,"stimulus":"[A] option 1, [L] option 2, [G] neither","key_press":71,"name":"choice","trial_type":"html-keyboard-response","trial_index":169,"time_elapsed":465322,"internal_node_id":"0.0-169.0","response":"neither","certainty":"high","char":"G","transposition":-2,"order":["swapped","shifted"],"probe_pitches":[8,11,8,3,8,-1,6,1,3,8,11,6,-1,1,8,3],"shifted_pitches":[8,11,8,3,8,-1,6,1,2,8,11,6,-1,1,8,3],"swapped_pitches":[8,11,8,3,8,-1,6,3,1,8,11,6,-1,1,8,3],"shift_direction":-1,"question_num":141,"has_decoy":false,"subject":"S1C1608","sona":"41395","block":1,"time":"2021-09-11T22:29:51.443Z"},{"rt":1445.800000000745,"stimulus":"[A] option 1, [L] option 2, [G] neither","key_press":65,"name":"choice","trial_type":"html-keyboard-response","trial_index":180,"time_elapsed":490317,"internal_node_id":"0.0-180.0","response":"1st","certainty":"high","char":"A","transposition":-1,"order":["shifted","swapped"],"probe_pitches":[7,3,7,1,4,5,7,4,9,11,10,2,0,5,11,1],"shifted_pitches":[7,3,7,1,4,5,7,4,8,11,10,2,0,5,11,1],"swapped_pitches":[7,3,7,1,4,5,7,9,4,11,10,2,0,5,11,1],"shift_direction":-1,"question_num":151,"has_decoy":false,"subject":"S1C1608","sona":"41395","block":1,"time":"2021-09-11T22:29:51.443Z"},{"rt":1526.2999999988824,"stimulus":"[A] option 1, [L] option 2, [G] neither","key_press":71,"name":"choice","trial_type":"html-keyboard-response","trial_index":191,"time_elapsed":514973,"internal_node_id":"0.0-191.0","response":"neither","certainty":"high","char":"G","transposition":1,"order":["shifted","swapped"],"probe_pitches":[1,-1,1,8,1,4,-1,6,1,11,8,1,4,8,4,-1],"shifted_pitches":[1,-1,1,8,1,4,-1,7,1,11,8,1,4,8,4,-1],"swapped_pitches":[1,-1,1,8,1,4,-1,1,6,11,8,1,4,8,4,-1],"shift_direction":1,"question_num":161,"has_decoy":false,"subject":"S1C1608","sona":"41395","block":1,"time":"2021-09-11T22:29:51.443Z"},{"rt":1423.199999999255,"stimulus":"[A] option 1, [L] option 2, [G] neither","key_press":65,"name":"choice","trial_type":"html-keyboard-response","trial_index":202,"time_elapsed":539916,"internal_node_id":"0.0-202.0","response":"1st","certainty":"high","char":"A","transposition":2,"order":["shifted","swapped"],"probe_pitches":[6,2,-1,3,6,2,10,8,4,7,8,3,5,-1,4,6],"shifted_pitches":[6,2,-1,3,6,2,10,9,4,7,8,3,5,-1,4,6],"swapped_pitches":[6,2,-1,3,6,2,10,4,8,7,8,3,5,-1,4,6],"shift_direction":1,"question_num":171,"has_decoy":false,"subject":"S1C1608","sona":"41395","block":1,"time":"2021-09-11T22:29:51.443Z"},{"rt":1412.2000000011176,"stimulus":"[A] option 1, [L] option 2, [G] neither","key_press":71,"name":"choice","trial_type":"html-keyboard-response","trial_index":213,"time_elapsed":564417,"internal_node_id":"0.0-213.0","response":"neither","certainty":"high","char":"G","transposition":-2,"order":["swapped","shifted"],"probe_pitches":[6,4,8,7,8,0,4,8,0,11,7,5,11,2,6,7],"shifted_pitches":[6,4,8,7,8,0,4,8,1,11,7,5,11,2,6,7],"swapped_pitches":[6,4,8,7,8,0,4,0,8,11,7,5,11,2,6,7],"shift_direction":1,"question_num":181,"has_decoy":false,"subject":"S1C1608","sona":"41395","block":1,"time":"2021-09-11T22:29:51.443Z"},{"rt":1403,"stimulus":"[A] option 1, [L] option 2, [G] neither","key_press":76,"name":"choice","trial_type":"html-keyboard-response","trial_index":224,"time_elapsed":589709,"internal_node_id":"0.0-224.0","response":"2nd","certainty":"high","char":"L","transposition":-3,"order":["swapped","shifted"],"probe_pitches":[6,2,6,11,6,2,9,4,11,6,4,6,11,4,2,9],"shifted_pitches":[6,2,6,11,6,2,9,5,11,6,4,6,11,4,2,9],"swapped_pitches":[6,2,6,11,6,2,9,11,4,6,4,6,11,4,2,9],"shift_direction":1,"question_num":191,"has_decoy":false,"subject":"S1C1608","sona":"41395","block":1,"time":"2021-09-11T22:29:51.443Z"}]