[{"rt":2966.800000000745,"stimulus":"[A] option 1, [L] option 2, [G] neither","key_press":65,"name":"choice","trial_type":"html-keyboard-response","trial_index":10,"time_elapsed":29501,"internal_node_id":"0.0-10.0","subject":"S1C1608","sona":"41395","block":3,"time":"2021-09-11T22:48:14.122Z","response":"1st","certainty":"high","char":"A","transposition":-3,"order":["shifted","swapped"],"probe_pitches":[9,4,7,9,2,4,7,2,-3,0,7,0,2,4,0,4],"shifted_pitches":[9,4,7,9,2,4,7,2,-4,0,7,0,2,4,0,4],"swapped_pitches":[9,4,7,9,2,4,7,-3,2,0,7,0,2,4,0,4],"shift_direction":-1,"question_num":1,"has_decoy":false},{"rt":2838.10000000149,"stimulus":"[A] option 1, [L] option 2, [G] neither","key_press":71,"name":"choice","trial_type":"html-keyboard-response","trial_index":21,"time_elapsed":60957,"internal_node_id":"0.0-21.0","subject":"S1C1608","sona":"41395","block":3,"time":"2021-09-11T22:48:14.122Z","response":"neither","certainty":"high","char":"G","transposition":-1,"order":["shifted","swapped"],"probe_pitches":[9,3,2,4,1,5,11,8,9,3,-1,1,7,5,0,7],"shifted_pitches":[9,3,2,4,1,5,11,8,10,3,-1,1,7,5,0,7],"swapped_pitches":[9,3,2,4,1,5,11,9,8,3,-1,1,7,5,0,7],"shift_direction":1,"question_num":11,"has_decoy":false},{"rt":5473,"stimulus":"[A] option 1, [L] option 2, [G] neither","key_press":71,"name":"choice","trial_type":"html-keyboard-response","trial_index":32,"time_elapsed":90706,"internal_node_id":"0.0-32.0","subject":"S1C1608","sona":"41395","block":3,"time":"2021-09-11T22:48:14.122Z","response":"neither","certainty":"high","char":"G","transposition":1,"order":["swapped","shifted"],"probe_pitches":[7,9,2,5,9,7,2,5,7,0,5,7,9,0,2,9],"shifted_pitches":[7,9,2,5,9,7,2,4,7,0,5,7,9,0,2,9],"swapped_pitches":[7,9,2,5,9,7,2,7,5,0,5,7,9,0,2,9],"shift_direction":-1,"question_num":21,"has_decoy":false},{"rt":1211.699999999255,"stimulus":"[A] option 1, [L] option 2, [G] neither","key_press":76,"name":"choice","trial_type":"html-keyboard-response","trial_index":43,"time_elapsed":119949,"internal_node_id":"0.0-43.0","subject":"S1C1608","sona":"41395","block":3,"time":"2021-09-11T22:48:14.122Z","response":"2nd","certainty":"high","char":"L","transposition":2,"order":["swapped","shifted"],"probe_pitches":[-3,2,9,6,4,-1,4,2,6,9,4,-3,6,-1,-3,4],"shifted_pitches":[-3,2,9,6,4,-1,4,2,5,9,4,-3,6,-1,-3,4],"swapped_pitches":[-3,2,9,6,4,-1,4,6,2,9,4,-3,6,-1,-3,4],"shift_direction":-1,"question_num":31,"has_decoy":false},{"rt":2733.2000000011176,"stimulus":"[A] option 1, [L] option 2, [G] neither","key_press":71,"name":"choice","trial_type":"html-keyboard-response","trial_index":54,"time_elapsed":146025,"internal_node_id":"0.0-54.0","subject":"S1C1608","sona":"41395","block":3,"time":"2021-09-11T22:48:14.122Z","response":"neither","certainty":"high","char":"G","transposition":-2,"order":["shifted","swapped"],"probe_pitches":[10,4,1,5,9,0,5,8,4,-1,0,3,11,3,8,0],"shifted_pitches":[10,4,1,5,9,0,5,7,4,-1,0,3,11,3,8,0],"swapped_pitches":[10,4,1,5,9,0,5,4,8,-1,0,3,11,3,8,0],"shift_direction":-1,"question_num":41,"has_decoy":false},{"rt":1096.0999999996275,"stimulus":"[A] option 1, [L] option 2, [G] neither","key_press":71,"name":"choice","trial_type":"html-keyboard-response","trial_index":65,"time_elapsed":170489,"internal_node_id":"0.0-65.0","subject":"S1C1608","sona":"41395","block":3,"time":"2021-09-11T22:48:14.122Z","response":"neither","certainty":"high","char":"G","transposition":-2,"order":["swapped","shifted"],"probe_pitches":[-1,4,-3,-1,2,-3,2,-1,4,-3,7,4,-3,7,4,-3],"shifted_pitches":[-1,4,-3,-1,2,-3,2,0,4,-3,7,4,-3,7,4,-3],"swapped_pitches":[-1,4,-3,-1,2,-3,2,4,-1,-3,7,4,-3,7,4,-3],"shift_direction":1,"question_num":51,"has_decoy":false},{"rt":1173,"stimulus":"[A] option 1, [L] option 2, [G] neither","key_press":76,"name":"choice","trial_type":"html-keyboard-response","trial_index":76,"time_elapsed":194737,"internal_node_id":"0.0-76.0","subject":"S1C1608","sona":"41395","block":3,"time":"2021-09-11T22:48:14.122Z","response":"2nd","certainty":"high","char":"L","transposition":-1,"order":["swapped","shifted"],"probe_pitches":[6,1,6,9,1,4,1,4,9,-3,9,1,6,1,6,-1],"shifted_pitches":[6,1,6,9,1,4,1,3,9,-3,9,1,6,1,6,-1],"swapped_pitches":[6,1,6,9,1,4,1,9,4,-3,9,1,6,1,6,-1],"shift_direction":-1,"question_num":61,"has_decoy":false},{"rt":1489.5999999996275,"stimulus":"[A] option 1, [L] option 2, [G] neither","key_press":71,"name":"choice","trial_type":"html-keyboard-response","trial_index":87,"time_elapsed":219267,"internal_node_id":"0.0-87.0","subject":"S1C1608","sona":"41395","block":3,"time":"2021-09-11T22:48:14.122Z","response":"neither","certainty":"high","char":"G","transposition":-3,"order":["shifted","swapped"],"probe_pitches":[9,6,1,9,4,9,6,-3,9,4,6,-1,9,6,9,-1],"shifted_pitches":[9,6,1,9,4,9,6,-4,9,4,6,-1,9,6,9,-1],"swapped_pitches":[9,6,1,9,4,9,6,9,-3,4,6,-1,9,6,9,-1],"shift_direction":-1,"question_num":71,"has_decoy":false},{"rt":949.9000000003725,"stimulus":"[A] option 1, [L] option 2, [G] neither","key_press":71,"name":"choice","trial_type":"html-keyboard-response","trial_index":98,"time_elapsed":243826,"internal_node_id":"0.0-98.0","subject":"S1C1608","sona":"41395","block":3,"time":"2021-09-11T22:48:14.122Z","response":"neither","certainty":"high","char":"G","transposition":0,"order":["shifted","swapped"],"probe_pitches":[0,-3,0,7,9,0,9,4,0,2,0,9,4,0,-3,0],"shifted_pitches":[0,-3,0,7,9,0,9,4,1,2,0,9,4,0,-3,0],"swapped_pitches":[0,-3,0,7,9,0,9,0,4,2,0,9,4,0,-3,0],"shift_direction":1,"question_num":81,"has_decoy":false},{"rt":1095.5999999996275,"stimulus":"[A] option 1, [L] option 2, [G] neither","key_press":71,"name":"choice","trial_type":"html-keyboard-response","trial_index":109,"time_elapsed":271556,"internal_node_id":"0.0-109.0","subject":"S1C1608","sona":"41395","block":3,"time":"2021-09-11T22:48:14.122Z","response":"neither","certainty":"high","char":"G","transposition":3,"order":["swapped","shifted"],"probe_pitches":[2,-3,0,5,9,7,2,7,9,-3,2,5,2,5,0,-3],"shifted_pitches":[2,-3,0,5,9,7,2,7,10,-3,2,5,2,5,0,-3],"swapped_pitches":[2,-3,0,5,9,7,2,9,7,-3,2,5,2,5,0,-3],"shift_direction":1,"question_num":91,"has_decoy":false},{"rt":4478,"stimulus":"[A] option 1, [L] option 2, [G] neither","key_press":71,"name":"choice","trial_type":"html-keyboard-response","trial_index":120,"time_elapsed":298736,"internal_node_id":"0.0-120.0","subject":"S1C1608","sona":"41395","block":3,"time":"2021-09-11T22:48:14.122Z","response":"neither","certainty":"high","char":"G","transposition":3,"order":["swapped","shifted"],"probe_pitches":[11,9,8,7,5,4,2,4,7,2,11,8,1,2,10,4],"shifted_pitches":[11,9,8,7,5,4,2,4,6,2,11,8,1,2,10,4],"swapped_pitches":[11,9,8,7,5,4,2,7,4,2,11,8,1,2,10,4],"shift_direction":-1,"question_num":101,"has_decoy":false},{"rt":2825,"stimulus":"[A] option 1, [L] option 2, [G] neither","key_press":71,"name":"choice","trial_type":"html-keyboard-response","trial_index":131,"time_elapsed":329669,"internal_node_id":"0.0-131.0","subject":"S1C1608","sona":"41395","block":3,"time":"2021-09-11T22:48:14.122Z","response":"neither","certainty":"high","char":"G","transposition":-2,"order":["shifted","swapped"],"probe_pitches":[4,9,4,2,4,-1,9,-1,4,6,9,4,-1,9,-3,6],"shifted_pitches":[4,9,4,2,4,-1,9,0,4,6,9,4,-1,9,-3,6],"swapped_pitches":[4,9,4,2,4,-1,9,4,-1,6,9,4,-1,9,-3,6],"shift_direction":1,"question_num":111,"has_decoy":false},{"rt":1479.199999999255,"stimulus":"[A] option 1, [L] option 2, [G] neither","key_press":71,"name":"choice","trial_type":"html-keyboard-response","trial_index":142,"time_elapsed":359769,"internal_node_id":"0.0-142.0","subject":"S1C1608","sona":"41395","block":3,"time":"2021-09-11T22:48:14.122Z","response":"neither","certainty":"high","char":"G","transposition":1,"order":["swapped","shifted"],"probe_pitches":[3,1,3,1,4,11,9,3,-1,8,3,0,8,7,9,6],"shifted_pitches":[3,1,3,1,4,11,9,2,-1,8,3,0,8,7,9,6],"swapped_pitches":[3,1,3,1,4,11,9,-1,3,8,3,0,8,7,9,6],"shift_direction":-1,"question_num":121,"has_decoy":false},{"rt":2141.300000000745,"stimulus":"[A] option 1, [L] option 2, [G] neither","key_press":71,"name":"choice","trial_type":"html-keyboard-response","trial_index":153,"time_elapsed":386106,"internal_node_id":"0.0-153.0","subject":"S1C1608","sona":"41395","block":3,"time":"2021-09-11T22:48:14.122Z","response":"neither","certainty":"high","char":"G","transposition":0,"order":["swapped","shifted"],"probe_pitches":[10,5,3,10,11,9,6,5,0,3,0,10,7,10,0,1],"shifted_pitches":[10,5,3,10,11,9,6,4,0,3,0,10,7,10,0,1],"swapped_pitches":[10,5,3,10,11,9,6,0,5,3,0,10,7,10,0,1],"shift_direction":-1,"question_num":131,"has_decoy":false},{"rt":1924.5,"stimulus":"[A] option 1, [L] option 2, [G] neither","key_press":76,"name":"choice","trial_type":"html-keyboard-response","trial_index":164,"time_elapsed":412214,"internal_node_id":"0.0-164.0","subject":"S1C1608","sona":"41395","block":3,"time":"2021-09-11T22:48:14.122Z","response":"2nd","certainty":"high","char":"L","transposition":-1,"order":["swapped","shifted"],"probe_pitches":[2,0,6,8,2,6,2,4,-1,1,6,-1,8,7,11,4],"shifted_pitches":[2,0,6,8,2,6,2,3,-1,1,6,-1,8,7,11,4],"swapped_pitches":[2,0,6,8,2,6,2,-1,4,1,6,-1,8,7,11,4],"shift_direction":-1,"question_num":141,"has_decoy":false},{"rt":2075.699999999255,"stimulus":"[A] option 1, [L] option 2, [G] neither","key_press":71,"name":"choice","trial_type":"html-keyboard-response","trial_index":175,"time_elapsed":437283,"internal_node_id":"0.0-175.0","subject":"S1C1608","sona":"41395","block":3,"time":"2021-09-11T22:48:14.122Z","response":"neither","certainty":"high","char":"G","transposition":-1,"order":["shifted","swapped"],"probe_pitches":[2,-1,4,2,9,4,-1,9,-3,2,9,4,-3,9,7,4],"shifted_pitches":[2,-1,4,2,9,4,-1,9,-2,2,9,4,-3,9,7,4],"swapped_pitches":[2,-1,4,2,9,4,-1,-3,9,2,9,4,-3,9,7,4],"shift_direction":1,"question_num":151,"has_decoy":false},{"rt":2189.800000000745,"stimulus":"[A] option 1, [L] option 2, [G] neither","key_press":71,"name":"choice","trial_type":"html-keyboard-response","trial_index":186,"time_elapsed":462517,"internal_node_id":"0.0-186.0","subject":"S1C1608","sona":"41395","block":3,"time":"2021-09-11T22:48:14.122Z","response":"neither","certainty":"high","char":"G","transposition":-2,"order":["swapped","shifted"],"probe_pitches":[10,6,3,6,5,-1,2,4,0,-1,11,10,9,4,7,9],"shifted_pitches":[10,6,3,6,5,-1,2,4,1,-1,11,10,9,4,7,9],"swapped_pitches":[10,6,3,6,5,-1,2,0,4,-1,11,10,9,4,7,9],"shift_direction":1,"question_num":161,"has_decoy":false},{"rt":3393.2999999988824,"stimulus":"[A] option 1, [L] option 2, [G] neither","key_press":76,"name":"choice","trial_type":"html-keyboard-response","trial_index":197,"time_elapsed":489224,"internal_node_id":"0.0-197.0","subject":"S1C1608","sona":"41395","block":3,"time":"2021-09-11T22:48:14.122Z","response":"2nd","certainty":"high","char":"L","transposition":-3,"order":["shifted","swapped"],"probe_pitches":[1,7,0,3,5,0,6,7,-1,1,5,9,10,2,5,10],"shifted_pitches":[1,7,0,3,5,0,6,8,-1,1,5,9,10,2,5,10],"swapped_pitches":[1,7,0,3,5,0,6,-1,7,1,5,9,10,2,5,10],"shift_direction":1,"question_num":171,"has_decoy":false},{"rt":2774.300000000745,"stimulus":"[A] option 1, [L] option 2, [G] neither","key_press":71,"name":"choice","trial_type":"html-keyboard-response","trial_index":208,"time_elapsed":530237,"internal_node_id":"0.0-208.0","subject":"S1C1608","sona":"41395","block":3,"time":"2021-09-11T22:48:14.122Z","response":"neither","certainty":"high","char":"G","transposition":2,"order":["shifted","swapped"],"probe_pitches":[4,1,8,3,5,1,10,7,8,4,10,0,7,6,3,-1],"shifted_pitches":[4,1,8,3,5,1,10,7,9,4,10,0,7,6,3,-1],"swapped_pitches":[4,1,8,3,5,1,10,8,7,4,10,0,7,6,3,-1],"shift_direction":1,"question_num":181,"has_decoy":false},{"rt":1090.300000000745,"stimulus":"[A] option 1, [L] option 2, [G] neither","key_press":76,"name":"choice","trial_type":"html-keyboard-response","trial_index":219,"time_elapsed":559817,"internal_node_id":"0.0-219.0","subject":"S1C1608","sona":"41395","block":3,"time":"2021-09-11T22:48:14.122Z","response":"2nd","certainty":"high","char":"L","transposition":-3,"order":["shifted","swapped"],"probe_pitches":[3,2,3,0,2,9,11,7,4,-1,11,4,10,0,9,7],"shifted_pitches":[3,2,3,0,2,9,11,7,5,-1,11,4,10,0,9,7],"swapped_pitches":[3,2,3,0,2,9,11,4,7,-1,11,4,10,0,9,7],"shift_direction":1,"question_num":191,"has_decoy":false}]