[{"rt":1042.0999999996275,"stimulus":"[A] option 1, [L] option 2, [G] neither","key_press":71,"name":"choice","trial_type":"html-keyboard-response","trial_index":10,"time_elapsed":24982,"internal_node_id":"0.0-10.0","subject":"S1C1608","sona":"41395","block":5,"time":"2021-09-11T23:05:50.419Z","response":"neither","certainty":"high","char":"G","transposition":-1,"order":["swapped","shifted"],"probe_pitches":[12,14,7,5,12,5,12,2,5,14,12,5,9,2,14,12],"shifted_pitches":[12,14,7,5,12,5,12,3,5,14,12,5,9,2,14,12],"swapped_pitches":[12,14,7,5,12,5,12,5,2,14,12,5,9,2,14,12],"shift_direction":1,"question_num":1,"has_decoy":false},{"rt":2453.5999999996275,"stimulus":"[A] option 1, [L] option 2, [G] neither","key_press":71,"name":"choice","trial_type":"html-keyboard-response","trial_index":21,"time_elapsed":50020,"internal_node_id":"0.0-21.0","subject":"S1C1608","sona":"41395","block":5,"time":"2021-09-11T23:05:50.419Z","response":"neither","certainty":"high","char":"G","transposition":-3,"order":["shifted","swapped"],"probe_pitches":[-3,1,-3,-2,4,7,6,7,-3,2,6,5,7,0,1,-2],"shifted_pitches":[-3,1,-3,-2,4,7,6,8,-3,2,6,5,7,0,1,-2],"swapped_pitches":[-3,1,-3,-2,4,7,6,-3,7,2,6,5,7,0,1,-2],"shift_direction":1,"question_num":11,"has_decoy":false},{"rt":1584.2999999988824,"stimulus":"[A] option 1, [L] option 2, [G] neither","key_press":76,"name":"choice","trial_type":"html-keyboard-response","trial_index":32,"time_elapsed":78399,"internal_node_id":"0.0-32.0","subject":"S1C1608","sona":"41395","block":5,"time":"2021-09-11T23:05:50.419Z","response":"2nd","certainty":"high","char":"L","transposition":1,"order":["swapped","shifted"],"probe_pitches":[2,7,9,7,14,4,2,4,9,2,9,14,4,2,12,14],"shifted_pitches":[2,7,9,7,14,4,2,4,10,2,9,14,4,2,12,14],"swapped_pitches":[2,7,9,7,14,4,2,9,4,2,9,14,4,2,12,14],"shift_direction":1,"question_num":21,"has_decoy":false},{"rt":1853.5999999996275,"stimulus":"[A] option 1, [L] option 2, [G] neither","key_press":71,"name":"choice","trial_type":"html-keyboard-response","trial_index":43,"time_elapsed":103756,"internal_node_id":"0.0-43.0","subject":"S1C1608","sona":"41395","block":5,"time":"2021-09-11T23:05:50.419Z","response":"neither","certainty":"high","char":"G","transposition":-3,"order":["shifted","swapped"],"probe_pitches":[11,9,2,6,9,6,9,11,14,9,6,14,6,4,9,6],"shifted_pitches":[11,9,2,6,9,6,9,11,13,9,6,14,6,4,9,6],"swapped_pitches":[11,9,2,6,9,6,9,14,11,9,6,14,6,4,9,6],"shift_direction":-1,"question_num":31,"has_decoy":false},{"rt":1288.2000000011176,"stimulus":"[A] option 1, [L] option 2, [G] neither","key_press":76,"name":"choice","trial_type":"html-keyboard-response","trial_index":54,"time_elapsed":129879,"internal_node_id":"0.0-54.0","subject":"S1C1608","sona":"41395","block":5,"time":"2021-09-11T23:05:50.419Z","response":"2nd","certainty":"high","char":"L","transposition":-3,"order":["shifted","swapped"],"probe_pitches":[4,3,2,5,2,8,2,-2,9,5,6,1,2,-2,0,4],"shifted_pitches":[4,3,2,5,2,8,2,-1,9,5,6,1,2,-2,0,4],"swapped_pitches":[4,3,2,5,2,8,2,9,-2,5,6,1,2,-2,0,4],"shift_direction":1,"question_num":41,"has_decoy":false},{"rt":1479.7000000011176,"stimulus":"[A] option 1, [L] option 2, [G] neither","key_press":71,"name":"choice","trial_type":"html-keyboard-response","trial_index":65,"time_elapsed":153846,"internal_node_id":"0.0-65.0","subject":"S1C1608","sona":"41395","block":5,"time":"2021-09-11T23:05:50.419Z","response":"neither","certainty":"high","char":"G","transposition":-3,"order":["shifted","swapped"],"probe_pitches":[10,7,12,14,5,14,10,14,5,12,14,10,12,10,2,14],"shifted_pitches":[10,7,12,14,5,14,10,14,6,12,14,10,12,10,2,14],"swapped_pitches":[10,7,12,14,5,14,10,5,14,12,14,10,12,10,2,14],"shift_direction":1,"question_num":51,"has_decoy":false},{"rt":2437.7000000011176,"stimulus":"[A] option 1, [L] option 2, [G] neither","key_press":76,"name":"choice","trial_type":"html-keyboard-response","trial_index":76,"time_elapsed":182122,"internal_node_id":"0.0-76.0","subject":"S1C1608","sona":"41395","block":5,"time":"2021-09-11T23:05:50.419Z","response":"2nd","certainty":"high","char":"L","transposition":-1,"order":["swapped","shifted"],"probe_pitches":[10,12,14,10,2,12,10,5,12,10,14,7,10,12,5,10],"shifted_pitches":[10,12,14,10,2,12,10,4,12,10,14,7,10,12,5,10],"swapped_pitches":[10,12,14,10,2,12,10,12,5,10,14,7,10,12,5,10],"shift_direction":-1,"question_num":61,"has_decoy":false},{"rt":1499,"stimulus":"[A] option 1, [L] option 2, [G] neither","key_press":71,"name":"choice","trial_type":"html-keyboard-response","trial_index":87,"time_elapsed":206921,"internal_node_id":"0.0-87.0","subject":"S1C1608","sona":"41395","block":5,"time":"2021-09-11T23:05:50.419Z","response":"neither","certainty":"high","char":"G","transposition":-2,"order":["swapped","shifted"],"probe_pitches":[4,7,2,7,9,7,2,14,11,2,7,11,9,11,4,2],"shifted_pitches":[4,7,2,7,9,7,2,13,11,2,7,11,9,11,4,2],"swapped_pitches":[4,7,2,7,9,7,2,11,14,2,7,11,9,11,4,2],"shift_direction":-1,"question_num":71,"has_decoy":false},{"rt":1059,"stimulus":"[A] option 1, [L] option 2, [G] neither","key_press":76,"name":"choice","trial_type":"html-keyboard-response","trial_index":98,"time_elapsed":233533,"internal_node_id":"0.0-98.0","subject":"S1C1608","sona":"41395","block":5,"time":"2021-09-11T23:05:50.419Z","response":"2nd","certainty":"high","char":"L","transposition":-2,"order":["swapped","shifted"],"probe_pitches":[-3,-1,4,-2,1,0,5,3,6,0,3,0,5,9,-2,3],"shifted_pitches":[-3,-1,4,-2,1,0,5,2,6,0,3,0,5,9,-2,3],"swapped_pitches":[-3,-1,4,-2,1,0,5,6,3,0,3,0,5,9,-2,3],"shift_direction":-1,"question_num":81,"has_decoy":false},{"rt":2048.5999999996275,"stimulus":"[A] option 1, [L] option 2, [G] neither","key_press":71,"name":"choice","trial_type":"html-keyboard-response","trial_index":109,"time_elapsed":260143,"internal_node_id":"0.0-109.0","subject":"S1C1608","sona":"41395","block":5,"time":"2021-09-11T23:05:50.419Z","response":"neither","certainty":"high","char":"G","transposition":1,"order":["shifted","swapped"],"probe_pitches":[-2,2,8,3,5,-1,7,1,-3,6,-2,-3,2,7,1,-2],"shifted_pitches":[-2,2,8,3,5,-1,7,0,-3,6,-2,-3,2,7,1,-2],"swapped_pitches":[-2,2,8,3,5,-1,7,-3,1,6,-2,-3,2,7,1,-2],"shift_direction":-1,"question_num":91,"has_decoy":false},{"rt":1012.5999999996275,"stimulus":"[A] option 1, [L] option 2, [G] neither","key_press":65,"name":"choice","trial_type":"html-keyboard-response","trial_index":120,"time_elapsed":284718,"internal_node_id":"0.0-120.0","subject":"S1C1608","sona":"41395","block":5,"time":"2021-09-11T23:05:50.419Z","response":"1st","certainty":"high","char":"A","transposition":-1,"order":["swapped","shifted"],"probe_pitches":[2,-2,1,0,6,2,0,7,6,8,9,8,9,7,3,7],"shifted_pitches":[2,-2,1,0,6,2,0,7,5,8,9,8,9,7,3,7],"swapped_pitches":[2,-2,1,0,6,2,0,6,7,8,9,8,9,7,3,7],"shift_direction":-1,"question_num":101,"has_decoy":false},{"rt":1203.5,"stimulus":"[A] option 1, [L] option 2, [G] neither","key_press":71,"name":"choice","trial_type":"html-keyboard-response","trial_index":131,"time_elapsed":309315,"internal_node_id":"0.0-131.0","subject":"S1C1608","sona":"41395","block":5,"time":"2021-09-11T23:05:50.419Z","response":"neither","certainty":"high","char":"G","transposition":3,"order":["shifted","swapped"],"probe_pitches":[2,6,-1,3,2,9,-1,0,2,8,0,6,4,-2,5,9],"shifted_pitches":[2,6,-1,3,2,9,-1,0,1,8,0,6,4,-2,5,9],"swapped_pitches":[2,6,-1,3,2,9,-1,2,0,8,0,6,4,-2,5,9],"shift_direction":-1,"question_num":111,"has_decoy":false},{"rt":1096.5999999996275,"stimulus":"[A] option 1, [L] option 2, [G] neither","key_press":71,"name":"choice","trial_type":"html-keyboard-response","trial_index":142,"time_elapsed":333645,"internal_node_id":"0.0-142.0","subject":"S1C1608","sona":"41395","block":5,"time":"2021-09-11T23:05:50.419Z","response":"neither","certainty":"high","char":"G","transposition":3,"order":["swapped","shifted"],"probe_pitches":[7,4,2,4,2,7,12,2,7,14,2,4,9,4,7,14],"shifted_pitches":[7,4,2,4,2,7,12,2,8,14,2,4,9,4,7,14],"swapped_pitches":[7,4,2,4,2,7,12,7,2,14,2,4,9,4,7,14],"shift_direction":1,"question_num":121,"has_decoy":false},{"rt":1286.0999999996275,"stimulus":"[A] option 1, [L] option 2, [G] neither","key_press":71,"name":"choice","trial_type":"html-keyboard-response","trial_index":153,"time_elapsed":357237,"internal_node_id":"0.0-153.0","subject":"S1C1608","sona":"41395","block":5,"time":"2021-09-11T23:05:50.419Z","response":"neither","certainty":"high","char":"G","transposition":-1,"order":["swapped","shifted"],"probe_pitches":[9,3,-1,2,8,4,2,-2,5,7,1,3,2,-1,-2,-1],"shifted_pitches":[9,3,-1,2,8,4,2,-2,6,7,1,3,2,-1,-2,-1],"swapped_pitches":[9,3,-1,2,8,4,2,5,-2,7,1,3,2,-1,-2,-1],"shift_direction":1,"question_num":131,"has_decoy":false},{"rt":940.9000000003725,"stimulus":"[A] option 1, [L] option 2, [G] neither","key_press":76,"name":"choice","trial_type":"html-keyboard-response","trial_index":164,"time_elapsed":382972,"internal_node_id":"0.0-164.0","subject":"S1C1608","sona":"41395","block":5,"time":"2021-09-11T23:05:50.419Z","response":"2nd","certainty":"high","char":"L","transposition":-2,"order":["swapped","shifted"],"probe_pitches":[2,0,-3,5,9,1,6,1,2,7,8,-3,-2,9,-2,4],"shifted_pitches":[2,0,-3,5,9,1,6,1,3,7,8,-3,-2,9,-2,4],"swapped_pitches":[2,0,-3,5,9,1,6,2,1,7,8,-3,-2,9,-2,4],"shift_direction":1,"question_num":141,"has_decoy":false},{"rt":1728.300000000745,"stimulus":"[A] option 1, [L] option 2, [G] neither","key_press":71,"name":"choice","trial_type":"html-keyboard-response","trial_index":175,"time_elapsed":407354,"internal_node_id":"0.0-175.0","subject":"S1C1608","sona":"41395","block":5,"time":"2021-09-11T23:05:50.419Z","response":"neither","certainty":"high","char":"G","transposition":0,"order":["shifted","swapped"],"probe_pitches":[7,2,4,9,11,2,11,9,2,14,4,14,11,2,7,9],"shifted_pitches":[7,2,4,9,11,2,11,10,2,14,4,14,11,2,7,9],"swapped_pitches":[7,2,4,9,11,2,11,2,9,14,4,14,11,2,7,9],"shift_direction":1,"question_num":151,"has_decoy":false},{"rt":2489.7999999988824,"stimulus":"[A] option 1, [L] option 2, [G] neither","key_press":71,"name":"choice","trial_type":"html-keyboard-response","trial_index":186,"time_elapsed":446270,"internal_node_id":"0.0-186.0","subject":"S1C1608","sona":"41395","block":5,"time":"2021-09-11T23:05:50.419Z","response":"neither","certainty":"high","char":"G","transposition":0,"order":["swapped","shifted"],"probe_pitches":[9,5,3,5,-1,0,-1,3,9,1,9,-1,0,-1,5,-2],"shifted_pitches":[9,5,3,5,-1,0,-1,4,9,1,9,-1,0,-1,5,-2],"swapped_pitches":[9,5,3,5,-1,0,-1,9,3,1,9,-1,0,-1,5,-2],"shift_direction":1,"question_num":161,"has_decoy":false},{"rt":3188.5,"stimulus":"[A] option 1, [L] option 2, [G] neither","key_press":71,"name":"choice","trial_type":"html-keyboard-response","trial_index":197,"time_elapsed":472419,"internal_node_id":"0.0-197.0","subject":"S1C1608","sona":"41395","block":5,"time":"2021-09-11T23:05:50.419Z","response":"neither","certainty":"high","char":"G","transposition":2,"order":["shifted","swapped"],"probe_pitches":[1,0,2,5,4,3,4,-3,8,3,8,5,3,6,3,8],"shifted_pitches":[1,0,2,5,4,3,4,-3,7,3,8,5,3,6,3,8],"swapped_pitches":[1,0,2,5,4,3,4,8,-3,3,8,5,3,6,3,8],"shift_direction":-1,"question_num":171,"has_decoy":false},{"rt":3028.9000000003725,"stimulus":"[A] option 1, [L] option 2, [G] neither","key_press":71,"name":"choice","trial_type":"html-keyboard-response","trial_index":208,"time_elapsed":498404,"internal_node_id":"0.0-208.0","subject":"S1C1608","sona":"41395","block":5,"time":"2021-09-11T23:05:50.419Z","response":"neither","certainty":"high","char":"G","transposition":-2,"order":["shifted","swapped"],"probe_pitches":[11,6,11,14,11,4,9,6,11,9,4,11,2,14,4,11],"shifted_pitches":[11,6,11,14,11,4,9,6,10,9,4,11,2,14,4,11],"swapped_pitches":[11,6,11,14,11,4,9,11,6,9,4,11,2,14,4,11],"shift_direction":-1,"question_num":181,"has_decoy":false},{"rt":1362.7999999988824,"stimulus":"[A] option 1, [L] option 2, [G] neither","key_press":65,"name":"choice","trial_type":"html-keyboard-response","trial_index":219,"time_elapsed":522647,"internal_node_id":"0.0-219.0","subject":"S1C1608","sona":"41395","block":5,"time":"2021-09-11T23:05:50.419Z","response":"1st","certainty":"high","char":"A","transposition":2,"order":["shifted","swapped"],"probe_pitches":[9,12,7,5,2,9,7,9,2,7,14,5,9,2,12,5],"shifted_pitches":[9,12,7,5,2,9,7,8,2,7,14,5,9,2,12,5],"swapped_pitches":[9,12,7,5,2,9,7,2,9,7,14,5,9,2,12,5],"shift_direction":-1,"question_num":191,"has_decoy":false}]