[{"rt":3498.5,"stimulus":"[A] option 1, [L] option 2, [G] neither","key_press":65,"name":"choice","trial_type":"html-keyboard-response","trial_index":10,"time_elapsed":33138,"internal_node_id":"0.0-10.0","subject":"S1C1608","sona":"41395","block":2,"time":"2021-09-11T22:38:43.443Z","response":"1st","certainty":"high","char":"A","transposition":-1,"order":["shifted","swapped"],"probe_pitches":[11,7,4,2,9,11,7,9,4,11,9,2,7,4,11,9],"shifted_pitches":[11,7,4,2,9,11,7,9,3,11,9,2,7,4,11,9],"swapped_pitches":[11,7,4,2,9,11,7,4,9,11,9,2,7,4,11,9],"shift_direction":-1,"question_num":1,"has_decoy":false},{"rt":1793.9000000003725,"stimulus":"[A] option 1, [L] option 2, [G] neither","key_press":71,"name":"choice","trial_type":"html-keyboard-response","trial_index":21,"time_elapsed":57759,"internal_node_id":"0.0-21.0","subject":"S1C1608","sona":"41395","block":2,"time":"2021-09-11T22:38:43.443Z","response":"neither","certainty":"high","char":"G","transposition":-3,"order":["shifted","swapped"],"probe_pitches":[11,6,1,6,4,-1,8,4,11,8,11,6,11,-1,11,4],"shifted_pitches":[11,6,1,6,4,-1,8,5,11,8,11,6,11,-1,11,4],"swapped_pitches":[11,6,1,6,4,-1,8,11,4,8,11,6,11,-1,11,4],"shift_direction":1,"question_num":11,"has_decoy":false},{"rt":1587,"stimulus":"[A] option 1, [L] option 2, [G] neither","key_press":71,"name":"choice","trial_type":"html-keyboard-response","trial_index":32,"time_elapsed":82586,"internal_node_id":"0.0-32.0","subject":"S1C1608","sona":"41395","block":2,"time":"2021-09-11T22:38:43.443Z","response":"neither","certainty":"high","char":"G","transposition":-2,"order":["shifted","swapped"],"probe_pitches":[10,12,9,12,6,10,5,11,8,10,12,3,13,14,4,13],"shifted_pitches":[10,12,9,12,6,10,5,11,7,10,12,3,13,14,4,13],"swapped_pitches":[10,12,9,12,6,10,5,8,11,10,12,3,13,14,4,13],"shift_direction":-1,"question_num":21,"has_decoy":false},{"rt":3297.9000000003725,"stimulus":"[A] option 1, [L] option 2, [G] neither","key_press":76,"name":"choice","trial_type":"html-keyboard-response","trial_index":43,"time_elapsed":109972,"internal_node_id":"0.0-43.0","subject":"S1C1608","sona":"41395","block":2,"time":"2021-09-11T22:38:43.443Z","response":"2nd","certainty":"high","char":"L","transposition":2,"order":["swapped","shifted"],"probe_pitches":[11,6,-1,6,1,8,1,11,-1,8,3,-1,8,-1,6,1],"shifted_pitches":[11,6,-1,6,1,8,1,10,-1,8,3,-1,8,-1,6,1],"swapped_pitches":[11,6,-1,6,1,8,1,-1,11,8,3,-1,8,-1,6,1],"shift_direction":-1,"question_num":31,"has_decoy":false},{"rt":4124.800000000745,"stimulus":"[A] option 1, [L] option 2, [G] neither","key_press":71,"name":"choice","trial_type":"html-keyboard-response","trial_index":54,"time_elapsed":136943,"internal_node_id":"0.0-54.0","subject":"S1C1608","sona":"41395","block":2,"time":"2021-09-11T22:38:43.443Z","response":"neither","certainty":"high","char":"G","transposition":3,"order":["swapped","shifted"],"probe_pitches":[11,12,8,7,9,4,8,6,4,8,3,9,12,13,12,15],"shifted_pitches":[11,12,8,7,9,4,8,5,4,8,3,9,12,13,12,15],"swapped_pitches":[11,12,8,7,9,4,8,4,6,8,3,9,12,13,12,15],"shift_direction":-1,"question_num":41,"has_decoy":false},{"rt":1657.9000000003725,"stimulus":"[A] option 1, [L] option 2, [G] neither","key_press":76,"name":"choice","trial_type":"html-keyboard-response","trial_index":65,"time_elapsed":161884,"internal_node_id":"0.0-65.0","subject":"S1C1608","sona":"41395","block":2,"time":"2021-09-11T22:38:43.443Z","response":"2nd","certainty":"high","char":"L","transposition":-1,"order":["shifted","swapped"],"probe_pitches":[2,4,-1,4,11,6,11,4,6,11,2,11,9,2,4,6],"shifted_pitches":[2,4,-1,4,11,6,11,4,7,11,2,11,9,2,4,6],"swapped_pitches":[2,4,-1,4,11,6,11,6,4,11,2,11,9,2,4,6],"shift_direction":1,"question_num":51,"has_decoy":false},{"rt":1781.300000000745,"stimulus":"[A] option 1, [L] option 2, [G] neither","key_press":71,"name":"choice","trial_type":"html-keyboard-response","trial_index":76,"time_elapsed":186951,"internal_node_id":"0.0-76.0","subject":"S1C1608","sona":"41395","block":2,"time":"2021-09-11T22:38:43.443Z","response":"neither","certainty":"high","char":"G","transposition":-2,"order":["shifted","swapped"],"probe_pitches":[6,11,9,6,1,9,1,6,4,-1,6,1,9,4,11,6],"shifted_pitches":[6,11,9,6,1,9,1,6,5,-1,6,1,9,4,11,6],"swapped_pitches":[6,11,9,6,1,9,1,4,6,-1,6,1,9,4,11,6],"shift_direction":1,"question_num":61,"has_decoy":false},{"rt":1126.5999999996275,"stimulus":"[A] option 1, [L] option 2, [G] neither","key_press":71,"name":"choice","trial_type":"html-keyboard-response","trial_index":87,"time_elapsed":212494,"internal_node_id":"0.0-87.0","subject":"S1C1608","sona":"41395","block":2,"time":"2021-09-11T22:38:43.443Z","response":"neither","certainty":"high","char":"G","transposition":-3,"order":["swapped","shifted"],"probe_pitches":[5,4,5,13,11,14,7,13,9,6,8,7,13,11,12,8],"shifted_pitches":[5,4,5,13,11,14,7,13,10,6,8,7,13,11,12,8],"swapped_pitches":[5,4,5,13,11,14,7,9,13,6,8,7,13,11,12,8],"shift_direction":1,"question_num":71,"has_decoy":false},{"rt":1120.0999999996275,"stimulus":"[A] option 1, [L] option 2, [G] neither","key_press":76,"name":"choice","trial_type":"html-keyboard-response","trial_index":98,"time_elapsed":238920,"internal_node_id":"0.0-98.0","subject":"S1C1608","sona":"41395","block":2,"time":"2021-09-11T22:38:43.443Z","response":"2nd","certainty":"high","char":"L","transposition":3,"order":["swapped","shifted"],"probe_pitches":[11,9,7,4,2,7,11,9,2,11,-1,11,4,-1,9,4],"shifted_pitches":[11,9,7,4,2,7,11,9,1,11,-1,11,4,-1,9,4],"swapped_pitches":[11,9,7,4,2,7,11,2,9,11,-1,11,4,-1,9,4],"shift_direction":-1,"question_num":81,"has_decoy":false},{"rt":1529,"stimulus":"[A] option 1, [L] option 2, [G] neither","key_press":76,"name":"choice","trial_type":"html-keyboard-response","trial_index":109,"time_elapsed":263766,"internal_node_id":"0.0-109.0","subject":"S1C1608","sona":"41395","block":2,"time":"2021-09-11T22:38:43.443Z","response":"2nd","certainty":"high","char":"L","transposition":-2,"order":["shifted","swapped"],"probe_pitches":[4,8,10,12,6,4,12,10,8,14,4,7,3,5,13,6],"shifted_pitches":[4,8,10,12,6,4,12,11,8,14,4,7,3,5,13,6],"swapped_pitches":[4,8,10,12,6,4,12,8,10,14,4,7,3,5,13,6],"shift_direction":1,"question_num":91,"has_decoy":false},{"rt":1201.2000000011176,"stimulus":"[A] option 1, [L] option 2, [G] neither","key_press":71,"name":"choice","trial_type":"html-keyboard-response","trial_index":120,"time_elapsed":288580,"internal_node_id":"0.0-120.0","subject":"S1C1608","sona":"41395","block":2,"time":"2021-09-11T22:38:43.443Z","response":"neither","certainty":"high","char":"G","transposition":2,"order":["swapped","shifted"],"probe_pitches":[4,7,13,10,13,8,11,8,10,4,13,5,10,8,3,13],"shifted_pitches":[4,7,13,10,13,8,11,8,9,4,13,5,10,8,3,13],"swapped_pitches":[4,7,13,10,13,8,11,10,8,4,13,5,10,8,3,13],"shift_direction":-1,"question_num":101,"has_decoy":false},{"rt":1211.800000000745,"stimulus":"[A] option 1, [L] option 2, [G] neither","key_press":71,"name":"choice","trial_type":"html-keyboard-response","trial_index":131,"time_elapsed":312761,"internal_node_id":"0.0-131.0","subject":"S1C1608","sona":"41395","block":2,"time":"2021-09-11T22:38:43.443Z","response":"neither","certainty":"high","char":"G","transposition":-3,"order":["shifted","swapped"],"probe_pitches":[8,3,9,5,13,12,4,8,7,13,7,8,12,4,14,8],"shifted_pitches":[8,3,9,5,13,12,4,8,6,13,7,8,12,4,14,8],"swapped_pitches":[8,3,9,5,13,12,4,7,8,13,7,8,12,4,14,8],"shift_direction":-1,"question_num":111,"has_decoy":false},{"rt":1053.5,"stimulus":"[A] option 1, [L] option 2, [G] neither","key_press":76,"name":"choice","trial_type":"html-keyboard-response","trial_index":142,"time_elapsed":339578,"internal_node_id":"0.0-142.0","subject":"S1C1608","sona":"41395","block":2,"time":"2021-09-11T22:38:43.443Z","response":"2nd","certainty":"high","char":"L","transposition":-3,"order":["swapped","shifted"],"probe_pitches":[9,6,11,9,11,6,11,9,6,11,9,4,6,1,11,-1],"shifted_pitches":[9,6,11,9,11,6,11,9,5,11,9,4,6,1,11,-1],"swapped_pitches":[9,6,11,9,11,6,11,6,9,11,9,4,6,1,11,-1],"shift_direction":-1,"question_num":121,"has_decoy":false},{"rt":1377.5999999996275,"stimulus":"[A] option 1, [L] option 2, [G] neither","key_press":76,"name":"choice","trial_type":"html-keyboard-response","trial_index":153,"time_elapsed":364650,"internal_node_id":"0.0-153.0","subject":"S1C1608","sona":"41395","block":2,"time":"2021-09-11T22:38:43.443Z","response":"2nd","certainty":"high","char":"L","transposition":-2,"order":["swapped","shifted"],"probe_pitches":[8,11,4,1,4,8,1,4,-1,1,8,1,6,1,8,4],"shifted_pitches":[8,11,4,1,4,8,1,3,-1,1,8,1,6,1,8,4],"swapped_pitches":[8,11,4,1,4,8,1,-1,4,1,8,1,6,1,8,4],"shift_direction":-1,"question_num":131,"has_decoy":false},{"rt":6890.0999999996275,"stimulus":"[A] option 1, [L] option 2, [G] neither","key_press":76,"name":"choice","trial_type":"html-keyboard-response","trial_index":164,"time_elapsed":394972,"internal_node_id":"0.0-164.0","subject":"S1C1608","sona":"41395","block":2,"time":"2021-09-11T22:38:43.443Z","response":"2nd","certainty":"high","char":"L","transposition":0,"order":["swapped","shifted"],"probe_pitches":[6,4,6,9,8,5,14,11,9,15,3,4,14,5,9,5],"shifted_pitches":[6,4,6,9,8,5,14,12,9,15,3,4,14,5,9,5],"swapped_pitches":[6,4,6,9,8,5,14,9,11,15,3,4,14,5,9,5],"shift_direction":1,"question_num":141,"has_decoy":false},{"rt":1085.2999999988824,"stimulus":"[A] option 1, [L] option 2, [G] neither","key_press":71,"name":"choice","trial_type":"html-keyboard-response","trial_index":175,"time_elapsed":424655,"internal_node_id":"0.0-175.0","subject":"S1C1608","sona":"41395","block":2,"time":"2021-09-11T22:38:43.443Z","response":"neither","certainty":"high","char":"G","transposition":0,"order":["swapped","shifted"],"probe_pitches":[11,6,-1,3,11,8,1,3,6,8,-1,6,-1,8,11,6],"shifted_pitches":[11,6,-1,3,11,8,1,4,6,8,-1,6,-1,8,11,6],"swapped_pitches":[11,6,-1,3,11,8,1,6,3,8,-1,6,-1,8,11,6],"shift_direction":1,"question_num":151,"has_decoy":false},{"rt":1645.5,"stimulus":"[A] option 1, [L] option 2, [G] neither","key_press":65,"name":"choice","trial_type":"html-keyboard-response","trial_index":186,"time_elapsed":449515,"internal_node_id":"0.0-186.0","subject":"S1C1608","sona":"41395","block":2,"time":"2021-09-11T22:38:43.443Z","response":"1st","certainty":"high","char":"A","transposition":1,"order":["shifted","swapped"],"probe_pitches":[3,9,11,3,12,5,6,12,5,8,15,14,12,5,15,4],"shifted_pitches":[3,9,11,3,12,5,6,13,5,8,15,14,12,5,15,4],"swapped_pitches":[3,9,11,3,12,5,6,5,12,8,15,14,12,5,15,4],"shift_direction":1,"question_num":161,"has_decoy":false},{"rt":1733.4000000003725,"stimulus":"[A] option 1, [L] option 2, [G] neither","key_press":71,"name":"choice","trial_type":"html-keyboard-response","trial_index":197,"time_elapsed":475373,"internal_node_id":"0.0-197.0","subject":"S1C1608","sona":"41395","block":2,"time":"2021-09-11T22:38:43.443Z","response":"neither","certainty":"high","char":"G","transposition":1,"order":["shifted","swapped"],"probe_pitches":[-1,4,9,6,2,-1,4,9,6,4,9,6,2,4,-1,11],"shifted_pitches":[-1,4,9,6,2,-1,4,10,6,4,9,6,2,4,-1,11],"swapped_pitches":[-1,4,9,6,2,-1,4,6,9,4,9,6,2,4,-1,11],"shift_direction":1,"question_num":171,"has_decoy":false},{"rt":1497.300000000745,"stimulus":"[A] option 1, [L] option 2, [G] neither","key_press":76,"name":"choice","trial_type":"html-keyboard-response","trial_index":208,"time_elapsed":500331,"internal_node_id":"0.0-208.0","subject":"S1C1608","sona":"41395","block":2,"time":"2021-09-11T22:38:43.443Z","response":"2nd","certainty":"high","char":"L","transposition":-1,"order":["shifted","swapped"],"probe_pitches":[7,9,15,7,10,11,10,9,7,10,5,6,11,7,3,9],"shifted_pitches":[7,9,15,7,10,11,10,8,7,10,5,6,11,7,3,9],"swapped_pitches":[7,9,15,7,10,11,10,7,9,10,5,6,11,7,3,9],"shift_direction":-1,"question_num":181,"has_decoy":false},{"rt":1364.9000000003725,"stimulus":"[A] option 1, [L] option 2, [G] neither","key_press":71,"name":"choice","trial_type":"html-keyboard-response","trial_index":219,"time_elapsed":524530,"internal_node_id":"0.0-219.0","subject":"S1C1608","sona":"41395","block":2,"time":"2021-09-11T22:38:43.443Z","response":"neither","certainty":"high","char":"G","transposition":-1,"order":["swapped","shifted"],"probe_pitches":[11,10,15,9,6,12,5,9,13,7,6,12,3,11,5,15],"shifted_pitches":[11,10,15,9,6,12,5,9,14,7,6,12,3,11,5,15],"swapped_pitches":[11,10,15,9,6,12,5,13,9,7,6,12,3,11,5,15],"shift_direction":1,"question_num":191,"has_decoy":false}]