[{"rt":8219.599999999627,"stimulus":"[A] option 1, [L] option 2, [G] neither","key_press":65,"name":"choice","trial_type":"html-keyboard-response","trial_index":15,"time_elapsed":86079,"internal_node_id":"0.0-15.0","response":"1st","certainty":"high","char":"A","transposition":-3,"order":["swapped","shifted"],"probe_pitches":[1,-1,-3,-1,-3,6,1,-3,6,1,4,-3,1,6,-1,4],"shifted_pitches":[1,-1,-3,-1,-3,6,1,-3,5,1,4,-3,1,6,-1,4],"swapped_pitches":[1,-1,-3,-1,-3,6,1,6,-3,1,4,-3,1,6,-1,4],"shift_direction":-1,"question_num":1,"has_decoy":false,"subject":"S1C1655","sona":"41687","block":1,"time":"2021-09-22T18:43:29.949Z"},{"rt":546.5,"stimulus":"[A] option 1, [L] option 2, [G] neither","key_press":76,"name":"choice","trial_type":"html-keyboard-response","trial_index":26,"time_elapsed":110059,"internal_node_id":"0.0-26.0","response":"2nd","certainty":"high","char":"L","transposition":-3,"order":["shifted","swapped"],"probe_pitches":[9,7,9,7,4,-1,4,9,7,-1,9,2,-1,7,4,-3],"shifted_pitches":[9,7,9,7,4,-1,4,9,8,-1,9,2,-1,7,4,-3],"swapped_pitches":[9,7,9,7,4,-1,4,7,9,-1,9,2,-1,7,4,-3],"shift_direction":1,"question_num":11,"has_decoy":false,"subject":"S1C1655","sona":"41687","block":1,"time":"2021-09-22T18:43:29.949Z"},{"rt":1150.8000000002794,"stimulus":"[A] option 1, [L] option 2, [G] neither","key_press":76,"name":"choice","trial_type":"html-keyboard-response","trial_index":37,"time_elapsed":134391,"internal_node_id":"0.0-37.0","response":"2nd","certainty":"high","char":"L","transposition":2,"order":["swapped","shifted"],"probe_pitches":[9,5,0,7,2,5,9,7,0,-3,2,9,2,7,9,0],"shifted_pitches":[9,5,0,7,2,5,9,7,-1,-3,2,9,2,7,9,0],"swapped_pitches":[9,5,0,7,2,5,9,0,7,-3,2,9,2,7,9,0],"shift_direction":-1,"question_num":21,"has_decoy":false,"subject":"S1C1655","sona":"41687","block":1,"time":"2021-09-22T18:43:29.949Z"},{"rt":435.60000000009313,"stimulus":"[A] option 1, [L] option 2, [G] neither","key_press":65,"name":"choice","trial_type":"html-keyboard-response","trial_index":48,"time_elapsed":158403,"internal_node_id":"0.0-48.0","response":"1st","certainty":"high","char":"A","transposition":-2,"order":["swapped","shifted"],"probe_pitches":[-3,2,6,4,2,6,2,-1,4,9,2,6,9,-1,-3,4],"shifted_pitches":[-3,2,6,4,2,6,2,-2,4,9,2,6,9,-1,-3,4],"swapped_pitches":[-3,2,6,4,2,6,2,4,-1,9,2,6,9,-1,-3,4],"shift_direction":-1,"question_num":31,"has_decoy":false,"subject":"S1C1655","sona":"41687","block":1,"time":"2021-09-22T18:43:29.949Z"},{"rt":1455.2000000001863,"stimulus":"[A] option 1, [L] option 2, [G] neither","key_press":65,"name":"choice","trial_type":"html-keyboard-response","trial_index":59,"time_elapsed":183511,"internal_node_id":"0.0-59.0","response":"1st","certainty":"high","char":"A","transposition":0,"order":["shifted","swapped"],"probe_pitches":[0,-3,0,7,5,0,5,7,9,0,9,-3,0,2,7,-3],"shifted_pitches":[0,-3,0,7,5,0,5,6,9,0,9,-3,0,2,7,-3],"swapped_pitches":[0,-3,0,7,5,0,5,9,7,0,9,-3,0,2,7,-3],"shift_direction":-1,"question_num":41,"has_decoy":false,"subject":"S1C1655","sona":"41687","block":1,"time":"2021-09-22T18:43:29.949Z"},{"rt":581.6999999997206,"stimulus":"[A] option 1, [L] option 2, [G] neither","key_press":76,"name":"choice","trial_type":"html-keyboard-response","trial_index":70,"time_elapsed":206627,"internal_node_id":"0.0-70.0","response":"2nd","certainty":"high","char":"L","transposition":-2,"order":["swapped","shifted"],"probe_pitches":[-2,0,1,7,2,0,-1,8,10,3,2,-1,6,2,5,4],"shifted_pitches":[-2,0,1,7,2,0,-1,9,10,3,2,-1,6,2,5,4],"swapped_pitches":[-2,0,1,7,2,0,-1,10,8,3,2,-1,6,2,5,4],"shift_direction":1,"question_num":51,"has_decoy":false,"subject":"S1C1655","sona":"41687","block":1,"time":"2021-09-22T18:43:29.949Z"},{"rt":424.79999999981374,"stimulus":"[A] option 1, [L] option 2, [G] neither","key_press":65,"name":"choice","trial_type":"html-keyboard-response","trial_index":81,"time_elapsed":229988,"internal_node_id":"0.0-81.0","response":"1st","certainty":"high","char":"A","transposition":3,"order":["swapped","shifted"],"probe_pitches":[5,4,5,3,9,2,1,7,10,1,5,9,0,10,6,10],"shifted_pitches":[5,4,5,3,9,2,1,8,10,1,5,9,0,10,6,10],"swapped_pitches":[5,4,5,3,9,2,1,10,7,1,5,9,0,10,6,10],"shift_direction":1,"question_num":61,"has_decoy":false,"subject":"S1C1655","sona":"41687","block":1,"time":"2021-09-22T18:43:29.949Z"},{"rt":4009.2000000001863,"stimulus":"[A] option 1, [L] option 2, [G] neither","key_press":65,"name":"choice","trial_type":"html-keyboard-response","trial_index":92,"time_elapsed":257558,"internal_node_id":"0.0-92.0","response":"1st","certainty":"high","char":"A","transposition":-2,"order":["swapped","shifted"],"probe_pitches":[7,5,-2,1,2,8,1,2,4,0,-2,7,1,-1,2,-1],"shifted_pitches":[7,5,-2,1,2,8,1,2,3,0,-2,7,1,-1,2,-1],"swapped_pitches":[7,5,-2,1,2,8,1,4,2,0,-2,7,1,-1,2,-1],"shift_direction":-1,"question_num":71,"has_decoy":false,"subject":"S1C1655","sona":"41687","block":1,"time":"2021-09-22T18:43:29.949Z"},{"rt":3768.9000000003725,"stimulus":"[A] option 1, [L] option 2, [G] neither","key_press":71,"name":"choice","trial_type":"html-keyboard-response","trial_index":103,"time_elapsed":283579,"internal_node_id":"0.0-103.0","response":"neither","certainty":"high","char":"G","transposition":-1,"order":["shifted","swapped"],"probe_pitches":[5,6,2,7,0,2,9,7,2,10,-2,9,6,2,3,0],"shifted_pitches":[5,6,2,7,0,2,9,7,1,10,-2,9,6,2,3,0],"swapped_pitches":[5,6,2,7,0,2,9,2,7,10,-2,9,6,2,3,0],"shift_direction":-1,"question_num":81,"has_decoy":false,"subject":"S1C1655","sona":"41687","block":1,"time":"2021-09-22T18:43:29.949Z"},{"rt":1738.6999999997206,"stimulus":"[A] option 1, [L] option 2, [G] neither","key_press":76,"name":"choice","trial_type":"html-keyboard-response","trial_index":114,"time_elapsed":307597,"internal_node_id":"0.0-114.0","response":"2nd","certainty":"high","char":"L","transposition":-1,"order":["shifted","swapped"],"probe_pitches":[7,2,-3,2,-3,2,0,4,7,2,4,0,4,9,-3,4],"shifted_pitches":[7,2,-3,2,-3,2,0,3,7,2,4,0,4,9,-3,4],"swapped_pitches":[7,2,-3,2,-3,2,0,7,4,2,4,0,4,9,-3,4],"shift_direction":-1,"question_num":91,"has_decoy":false,"subject":"S1C1655","sona":"41687","block":1,"time":"2021-09-22T18:43:29.949Z"},{"rt":577.3999999999069,"stimulus":"[A] option 1, [L] option 2, [G] neither","key_press":65,"name":"choice","trial_type":"html-keyboard-response","trial_index":125,"time_elapsed":330570,"internal_node_id":"0.0-125.0","response":"1st","certainty":"high","char":"A","transposition":3,"order":["shifted","swapped"],"probe_pitches":[4,1,-1,-3,6,-3,6,-3,4,-1,-3,4,9,1,4,9],"shifted_pitches":[4,1,-1,-3,6,-3,6,-3,5,-1,-3,4,9,1,4,9],"swapped_pitches":[4,1,-1,-3,6,-3,6,4,-3,-1,-3,4,9,1,4,9],"shift_direction":1,"question_num":101,"has_decoy":false,"subject":"S1C1655","sona":"41687","block":1,"time":"2021-09-22T18:43:29.949Z"},{"rt":1781.3999999999069,"stimulus":"[A] option 1, [L] option 2, [G] neither","key_press":76,"name":"choice","trial_type":"html-keyboard-response","trial_index":136,"time_elapsed":355822,"internal_node_id":"0.0-136.0","response":"2nd","certainty":"high","char":"L","transposition":0,"order":["swapped","shifted"],"probe_pitches":[-1,2,1,-1,-2,7,8,1,6,3,2,3,6,-2,9,8],"shifted_pitches":[-1,2,1,-1,-2,7,8,1,5,3,2,3,6,-2,9,8],"swapped_pitches":[-1,2,1,-1,-2,7,8,6,1,3,2,3,6,-2,9,8],"shift_direction":-1,"question_num":111,"has_decoy":false,"subject":"S1C1655","sona":"41687","block":1,"time":"2021-09-22T18:43:29.949Z"},{"rt":1173.6000000000931,"stimulus":"[A] option 1, [L] option 2, [G] neither","key_press":76,"name":"choice","trial_type":"html-keyboard-response","trial_index":147,"time_elapsed":379279,"internal_node_id":"0.0-147.0","response":"2nd","certainty":"high","char":"L","transposition":2,"order":["swapped","shifted"],"probe_pitches":[4,-1,3,10,2,7,2,-2,5,8,5,0,-1,0,3,0],"shifted_pitches":[4,-1,3,10,2,7,2,-2,6,8,5,0,-1,0,3,0],"swapped_pitches":[4,-1,3,10,2,7,2,5,-2,8,5,0,-1,0,3,0],"shift_direction":1,"question_num":121,"has_decoy":false,"subject":"S1C1655","sona":"41687","block":1,"time":"2021-09-22T18:43:29.949Z"},{"rt":2230.0999999996275,"stimulus":"[A] option 1, [L] option 2, [G] neither","key_press":76,"name":"choice","trial_type":"html-keyboard-response","trial_index":158,"time_elapsed":404018,"internal_node_id":"0.0-158.0","response":"2nd","certainty":"high","char":"L","transposition":-1,"order":["swapped","shifted"],"probe_pitches":[-1,2,4,-3,2,4,9,-1,4,-3,6,-1,-3,4,2,9],"shifted_pitches":[-1,2,4,-3,2,4,9,0,4,-3,6,-1,-3,4,2,9],"swapped_pitches":[-1,2,4,-3,2,4,9,4,-1,-3,6,-1,-3,4,2,9],"shift_direction":1,"question_num":131,"has_decoy":false,"subject":"S1C1655","sona":"41687","block":1,"time":"2021-09-22T18:43:29.949Z"},{"rt":454.09999999962747,"stimulus":"[A] option 1, [L] option 2, [G] neither","key_press":76,"name":"choice","trial_type":"html-keyboard-response","trial_index":169,"time_elapsed":426819,"internal_node_id":"0.0-169.0","response":"2nd","certainty":"high","char":"L","transposition":-3,"order":["shifted","swapped"],"probe_pitches":[2,5,3,10,6,1,-2,9,-1,7,9,5,6,-1,10,1],"shifted_pitches":[2,5,3,10,6,1,-2,9,0,7,9,5,6,-1,10,1],"swapped_pitches":[2,5,3,10,6,1,-2,-1,9,7,9,5,6,-1,10,1],"shift_direction":1,"question_num":141,"has_decoy":false,"subject":"S1C1655","sona":"41687","block":1,"time":"2021-09-22T18:43:29.949Z"},{"rt":4010.5,"stimulus":"[A] option 1, [L] option 2, [G] neither","key_press":71,"name":"choice","trial_type":"html-keyboard-response","trial_index":180,"time_elapsed":453107,"internal_node_id":"0.0-180.0","response":"neither","certainty":"high","char":"G","transposition":1,"order":["shifted","swapped"],"probe_pitches":[7,8,5,0,1,-1,4,3,-2,4,8,1,8,-2,1,4],"shifted_pitches":[7,8,5,0,1,-1,4,2,-2,4,8,1,8,-2,1,4],"swapped_pitches":[7,8,5,0,1,-1,4,-2,3,4,8,1,8,-2,1,4],"shift_direction":-1,"question_num":151,"has_decoy":false,"subject":"S1C1655","sona":"41687","block":1,"time":"2021-09-22T18:43:29.949Z"},{"rt":998.0999999996275,"stimulus":"[A] option 1, [L] option 2, [G] neither","key_press":76,"name":"choice","trial_type":"html-keyboard-response","trial_index":191,"time_elapsed":476707,"internal_node_id":"0.0-191.0","response":"2nd","certainty":"high","char":"L","transposition":-1,"order":["shifted","swapped"],"probe_pitches":[10,6,2,1,10,0,10,5,8,-1,2,0,9,0,8,0],"shifted_pitches":[10,6,2,1,10,0,10,4,8,-1,2,0,9,0,8,0],"swapped_pitches":[10,6,2,1,10,0,10,8,5,-1,2,0,9,0,8,0],"shift_direction":-1,"question_num":161,"has_decoy":false,"subject":"S1C1655","sona":"41687","block":1,"time":"2021-09-22T18:43:29.949Z"},{"rt":446.70000000018626,"stimulus":"[A] option 1, [L] option 2, [G] neither","key_press":76,"name":"choice","trial_type":"html-keyboard-response","trial_index":202,"time_elapsed":499474,"internal_node_id":"0.0-202.0","response":"2nd","certainty":"high","char":"L","transposition":1,"order":["shifted","swapped"],"probe_pitches":[4,7,4,7,-1,4,2,7,4,-1,9,7,4,-3,9,7],"shifted_pitches":[4,7,4,7,-1,4,2,8,4,-1,9,7,4,-3,9,7],"swapped_pitches":[4,7,4,7,-1,4,2,4,7,-1,9,7,4,-3,9,7],"shift_direction":1,"question_num":171,"has_decoy":false,"subject":"S1C1655","sona":"41687","block":1,"time":"2021-09-22T18:43:29.949Z"},{"rt":1704.5999999996275,"stimulus":"[A] option 1, [L] option 2, [G] neither","key_press":71,"name":"choice","trial_type":"html-keyboard-response","trial_index":213,"time_elapsed":523473,"internal_node_id":"0.0-213.0","response":"neither","certainty":"high","char":"G","transposition":-3,"order":["shifted","swapped"],"probe_pitches":[2,4,-2,2,9,-1,8,6,10,1,9,1,3,10,3,-2],"shifted_pitches":[2,4,-2,2,9,-1,8,7,10,1,9,1,3,10,3,-2],"swapped_pitches":[2,4,-2,2,9,-1,8,10,6,1,9,1,3,10,3,-2],"shift_direction":1,"question_num":181,"has_decoy":false,"subject":"S1C1655","sona":"41687","block":1,"time":"2021-09-22T18:43:29.949Z"},{"rt":1019.6000000000931,"stimulus":"[A] option 1, [L] option 2, [G] neither","key_press":65,"name":"choice","trial_type":"html-keyboard-response","trial_index":224,"time_elapsed":546954,"internal_node_id":"0.0-224.0","response":"1st","certainty":"high","char":"A","transposition":-2,"order":["swapped","shifted"],"probe_pitches":[2,0,2,-3,4,0,4,0,9,4,0,9,-3,7,4,9],"shifted_pitches":[2,0,2,-3,4,0,4,0,10,4,0,9,-3,7,4,9],"swapped_pitches":[2,0,2,-3,4,0,4,9,0,4,0,9,-3,7,4,9],"shift_direction":1,"question_num":191,"has_decoy":false,"subject":"S1C1655","sona":"41687","block":1,"time":"2021-09-22T18:43:29.949Z"}]