[{"rt":2192.5,"stimulus":"[A] option 1, [L] option 2, [G] neither","key_press":76,"name":"choice","trial_type":"html-keyboard-response","trial_index":10,"time_elapsed":28808,"internal_node_id":"0.0-10.0","subject":"S1C1655","sona":"41687","block":2,"time":"2021-09-22T18:51:32.804Z","response":"2nd","certainty":"high","char":"L","transposition":-2,"order":["swapped","shifted"],"probe_pitches":[6,9,7,10,14,6,14,7,11,13,3,14,7,10,11,15],"shifted_pitches":[6,9,7,10,14,6,14,8,11,13,3,14,7,10,11,15],"swapped_pitches":[6,9,7,10,14,6,14,11,7,13,3,14,7,10,11,15],"shift_direction":1,"question_num":1,"has_decoy":false},{"rt":485.29999999981374,"stimulus":"[A] option 1, [L] option 2, [G] neither","key_press":65,"name":"choice","trial_type":"html-keyboard-response","trial_index":21,"time_elapsed":53410,"internal_node_id":"0.0-21.0","subject":"S1C1655","sona":"41687","block":2,"time":"2021-09-22T18:51:32.804Z","response":"1st","certainty":"high","char":"A","transposition":-1,"order":["shifted","swapped"],"probe_pitches":[-3,-1,1,-3,1,-3,4,6,-3,4,-3,1,6,9,6,9],"shifted_pitches":[-3,-1,1,-3,1,-3,4,6,-4,4,-3,1,6,9,6,9],"swapped_pitches":[-3,-1,1,-3,1,-3,4,-3,6,4,-3,1,6,9,6,9],"shift_direction":-1,"question_num":11,"has_decoy":false},{"rt":3046.5,"stimulus":"[A] option 1, [L] option 2, [G] neither","key_press":71,"name":"choice","trial_type":"html-keyboard-response","trial_index":32,"time_elapsed":78809,"internal_node_id":"0.0-32.0","subject":"S1C1655","sona":"41687","block":2,"time":"2021-09-22T18:51:32.804Z","response":"neither","certainty":"high","char":"G","transposition":-1,"order":["swapped","shifted"],"probe_pitches":[10,14,7,12,15,7,8,10,11,15,5,8,12,4,15,11],"shifted_pitches":[10,14,7,12,15,7,8,9,11,15,5,8,12,4,15,11],"swapped_pitches":[10,14,7,12,15,7,8,11,10,15,5,8,12,4,15,11],"shift_direction":-1,"question_num":21,"has_decoy":false},{"rt":440.5,"stimulus":"[A] option 1, [L] option 2, [G] neither","key_press":76,"name":"choice","trial_type":"html-keyboard-response","trial_index":43,"time_elapsed":101552,"internal_node_id":"0.0-43.0","subject":"S1C1655","sona":"41687","block":2,"time":"2021-09-22T18:51:32.804Z","response":"2nd","certainty":"high","char":"L","transposition":-2,"order":["swapped","shifted"],"probe_pitches":[6,1,6,-1,4,1,9,1,-3,6,-1,4,1,9,4,-3],"shifted_pitches":[6,1,6,-1,4,1,9,1,-4,6,-1,4,1,9,4,-3],"swapped_pitches":[6,1,6,-1,4,1,9,-3,1,6,-1,4,1,9,4,-3],"shift_direction":-1,"question_num":31,"has_decoy":false},{"rt":450.1999999997206,"stimulus":"[A] option 1, [L] option 2, [G] neither","key_press":76,"name":"choice","trial_type":"html-keyboard-response","trial_index":54,"time_elapsed":124448,"internal_node_id":"0.0-54.0","subject":"S1C1655","sona":"41687","block":2,"time":"2021-09-22T18:51:32.804Z","response":"2nd","certainty":"high","char":"L","transposition":1,"order":["shifted","swapped"],"probe_pitches":[12,14,13,10,4,7,6,3,12,14,8,9,6,7,5,10],"shifted_pitches":[12,14,13,10,4,7,6,3,11,14,8,9,6,7,5,10],"swapped_pitches":[12,14,13,10,4,7,6,12,3,14,8,9,6,7,5,10],"shift_direction":-1,"question_num":41,"has_decoy":false},{"rt":1300.3999999999069,"stimulus":"[A] option 1, [L] option 2, [G] neither","key_press":65,"name":"choice","trial_type":"html-keyboard-response","trial_index":65,"time_elapsed":148085,"internal_node_id":"0.0-65.0","subject":"S1C1655","sona":"41687","block":2,"time":"2021-09-22T18:51:32.804Z","response":"1st","certainty":"high","char":"A","transposition":2,"order":["shifted","swapped"],"probe_pitches":[7,9,5,-3,0,-3,0,9,7,2,5,-3,5,7,5,-3],"shifted_pitches":[7,9,5,-3,0,-3,0,8,7,2,5,-3,5,7,5,-3],"swapped_pitches":[7,9,5,-3,0,-3,0,7,9,2,5,-3,5,7,5,-3],"shift_direction":-1,"question_num":51,"has_decoy":false},{"rt":1916.6000000000931,"stimulus":"[A] option 1, [L] option 2, [G] neither","key_press":71,"name":"choice","trial_type":"html-keyboard-response","trial_index":76,"time_elapsed":172336,"internal_node_id":"0.0-76.0","subject":"S1C1655","sona":"41687","block":2,"time":"2021-09-22T18:51:32.804Z","response":"neither","certainty":"high","char":"G","transposition":-2,"order":["swapped","shifted"],"probe_pitches":[12,11,15,10,5,4,10,5,3,9,15,11,4,11,9,13],"shifted_pitches":[12,11,15,10,5,4,10,6,3,9,15,11,4,11,9,13],"swapped_pitches":[12,11,15,10,5,4,10,3,5,9,15,11,4,11,9,13],"shift_direction":1,"question_num":61,"has_decoy":false},{"rt":607,"stimulus":"[A] option 1, [L] option 2, [G] neither","key_press":65,"name":"choice","trial_type":"html-keyboard-response","trial_index":87,"time_elapsed":196179,"internal_node_id":"0.0-87.0","subject":"S1C1655","sona":"41687","block":2,"time":"2021-09-22T18:51:32.804Z","response":"1st","certainty":"high","char":"A","transposition":0,"order":["shifted","swapped"],"probe_pitches":[7,2,5,-3,2,7,5,2,7,-3,2,5,7,0,9,7],"shifted_pitches":[7,2,5,-3,2,7,5,1,7,-3,2,5,7,0,9,7],"swapped_pitches":[7,2,5,-3,2,7,5,7,2,-3,2,5,7,0,9,7],"shift_direction":-1,"question_num":71,"has_decoy":false},{"rt":1384.8000000002794,"stimulus":"[A] option 1, [L] option 2, [G] neither","key_press":65,"name":"choice","trial_type":"html-keyboard-response","trial_index":98,"time_elapsed":219805,"internal_node_id":"0.0-98.0","subject":"S1C1655","sona":"41687","block":2,"time":"2021-09-22T18:51:32.804Z","response":"1st","certainty":"high","char":"A","transposition":-3,"order":["swapped","shifted"],"probe_pitches":[9,6,4,-1,-3,6,9,4,-1,9,2,-3,-1,6,9,-3],"shifted_pitches":[9,6,4,-1,-3,6,9,4,0,9,2,-3,-1,6,9,-3],"swapped_pitches":[9,6,4,-1,-3,6,9,-1,4,9,2,-3,-1,6,9,-3],"shift_direction":1,"question_num":81,"has_decoy":false},{"rt":1076.8999999999069,"stimulus":"[A] option 1, [L] option 2, [G] neither","key_press":76,"name":"choice","trial_type":"html-keyboard-response","trial_index":109,"time_elapsed":243285,"internal_node_id":"0.0-109.0","subject":"S1C1655","sona":"41687","block":2,"time":"2021-09-22T18:51:32.804Z","response":"2nd","certainty":"high","char":"L","transposition":-1,"order":["shifted","swapped"],"probe_pitches":[11,10,15,7,4,11,13,10,6,13,12,15,10,15,9,13],"shifted_pitches":[11,10,15,7,4,11,13,10,5,13,12,15,10,15,9,13],"swapped_pitches":[11,10,15,7,4,11,13,6,10,13,12,15,10,15,9,13],"shift_direction":-1,"question_num":91,"has_decoy":false},{"rt":393.60000000009313,"stimulus":"[A] option 1, [L] option 2, [G] neither","key_press":65,"name":"choice","trial_type":"html-keyboard-response","trial_index":120,"time_elapsed":265939,"internal_node_id":"0.0-120.0","subject":"S1C1655","sona":"41687","block":2,"time":"2021-09-22T18:51:32.804Z","response":"1st","certainty":"high","char":"A","transposition":-1,"order":["shifted","swapped"],"probe_pitches":[7,4,2,4,-1,4,7,4,-1,7,-3,4,7,2,7,9],"shifted_pitches":[7,4,2,4,-1,4,7,5,-1,7,-3,4,7,2,7,9],"swapped_pitches":[7,4,2,4,-1,4,7,-1,4,7,-3,4,7,2,7,9],"shift_direction":1,"question_num":101,"has_decoy":false},{"rt":1087,"stimulus":"[A] option 1, [L] option 2, [G] neither","key_press":71,"name":"choice","trial_type":"html-keyboard-response","trial_index":131,"time_elapsed":290436,"internal_node_id":"0.0-131.0","subject":"S1C1655","sona":"41687","block":2,"time":"2021-09-22T18:51:32.804Z","response":"neither","certainty":"high","char":"G","transposition":-3,"order":["shifted","swapped"],"probe_pitches":[10,11,6,13,12,4,13,8,6,13,11,10,15,6,11,8],"shifted_pitches":[10,11,6,13,12,4,13,8,7,13,11,10,15,6,11,8],"swapped_pitches":[10,11,6,13,12,4,13,6,8,13,11,10,15,6,11,8],"shift_direction":1,"question_num":111,"has_decoy":false},{"rt":385.10000000009313,"stimulus":"[A] option 1, [L] option 2, [G] neither","key_press":65,"name":"choice","trial_type":"html-keyboard-response","trial_index":142,"time_elapsed":313863,"internal_node_id":"0.0-142.0","subject":"S1C1655","sona":"41687","block":2,"time":"2021-09-22T18:51:32.804Z","response":"1st","certainty":"high","char":"A","transposition":0,"order":["swapped","shifted"],"probe_pitches":[9,15,8,14,15,8,5,9,15,11,3,13,3,4,15,12],"shifted_pitches":[9,15,8,14,15,8,5,10,15,11,3,13,3,4,15,12],"swapped_pitches":[9,15,8,14,15,8,5,15,9,11,3,13,3,4,15,12],"shift_direction":1,"question_num":121,"has_decoy":false},{"rt":878.1999999997206,"stimulus":"[A] option 1, [L] option 2, [G] neither","key_press":76,"name":"choice","trial_type":"html-keyboard-response","trial_index":153,"time_elapsed":337034,"internal_node_id":"0.0-153.0","subject":"S1C1655","sona":"41687","block":2,"time":"2021-09-22T18:51:32.804Z","response":"2nd","certainty":"high","char":"L","transposition":3,"order":["swapped","shifted"],"probe_pitches":[-3,-1,4,7,9,4,-3,7,2,9,7,2,4,7,9,-3],"shifted_pitches":[-3,-1,4,7,9,4,-3,8,2,9,7,2,4,7,9,-3],"swapped_pitches":[-3,-1,4,7,9,4,-3,2,7,9,7,2,4,7,9,-3],"shift_direction":1,"question_num":131,"has_decoy":false},{"rt":1414.2999999998137,"stimulus":"[A] option 1, [L] option 2, [G] neither","key_press":65,"name":"choice","trial_type":"html-keyboard-response","trial_index":164,"time_elapsed":360728,"internal_node_id":"0.0-164.0","subject":"S1C1655","sona":"41687","block":2,"time":"2021-09-22T18:51:32.804Z","response":"1st","certainty":"high","char":"A","transposition":2,"order":["shifted","swapped"],"probe_pitches":[10,4,10,3,11,8,5,4,3,7,13,9,11,5,13,5],"shifted_pitches":[10,4,10,3,11,8,5,4,2,7,13,9,11,5,13,5],"swapped_pitches":[10,4,10,3,11,8,5,3,4,7,13,9,11,5,13,5],"shift_direction":-1,"question_num":141,"has_decoy":false},{"rt":475.20000000018626,"stimulus":"[A] option 1, [L] option 2, [G] neither","key_press":65,"name":"choice","trial_type":"html-keyboard-response","trial_index":175,"time_elapsed":383352,"internal_node_id":"0.0-175.0","subject":"S1C1655","sona":"41687","block":2,"time":"2021-09-22T18:51:32.804Z","response":"1st","certainty":"high","char":"A","transposition":-2,"order":["shifted","swapped"],"probe_pitches":[6,2,-1,4,-3,4,6,-1,-3,2,6,2,-3,2,-3,-1],"shifted_pitches":[6,2,-1,4,-3,4,6,0,-3,2,6,2,-3,2,-3,-1],"swapped_pitches":[6,2,-1,4,-3,4,6,-3,-1,2,6,2,-3,2,-3,-1],"shift_direction":1,"question_num":151,"has_decoy":false},{"rt":766.5,"stimulus":"[A] option 1, [L] option 2, [G] neither","key_press":65,"name":"choice","trial_type":"html-keyboard-response","trial_index":186,"time_elapsed":406363,"internal_node_id":"0.0-186.0","subject":"S1C1655","sona":"41687","block":2,"time":"2021-09-22T18:51:32.804Z","response":"1st","certainty":"high","char":"A","transposition":-3,"order":["shifted","swapped"],"probe_pitches":[7,5,3,7,6,10,9,4,11,15,14,8,6,9,6,10],"shifted_pitches":[7,5,3,7,6,10,9,4,12,15,14,8,6,9,6,10],"swapped_pitches":[7,5,3,7,6,10,9,11,4,15,14,8,6,9,6,10],"shift_direction":1,"question_num":161,"has_decoy":false},{"rt":1111,"stimulus":"[A] option 1, [L] option 2, [G] neither","key_press":76,"name":"choice","trial_type":"html-keyboard-response","trial_index":197,"time_elapsed":429689,"internal_node_id":"0.0-197.0","subject":"S1C1655","sona":"41687","block":2,"time":"2021-09-22T18:51:32.804Z","response":"2nd","certainty":"high","char":"L","transposition":-3,"order":["swapped","shifted"],"probe_pitches":[4,2,9,7,2,7,4,0,-3,4,-3,2,0,7,4,2],"shifted_pitches":[4,2,9,7,2,7,4,0,-2,4,-3,2,0,7,4,2],"swapped_pitches":[4,2,9,7,2,7,4,-3,0,4,-3,2,0,7,4,2],"shift_direction":1,"question_num":171,"has_decoy":false},{"rt":2142.2000000001863,"stimulus":"[A] option 1, [L] option 2, [G] neither","key_press":76,"name":"choice","trial_type":"html-keyboard-response","trial_index":208,"time_elapsed":454086,"internal_node_id":"0.0-208.0","subject":"S1C1655","sona":"41687","block":2,"time":"2021-09-22T18:51:32.804Z","response":"2nd","certainty":"high","char":"L","transposition":3,"order":["swapped","shifted"],"probe_pitches":[9,15,12,6,15,8,7,14,6,7,6,10,8,5,4,3],"shifted_pitches":[9,15,12,6,15,8,7,13,6,7,6,10,8,5,4,3],"swapped_pitches":[9,15,12,6,15,8,7,6,14,7,6,10,8,5,4,3],"shift_direction":-1,"question_num":181,"has_decoy":false},{"rt":720.2000000001863,"stimulus":"[A] option 1, [L] option 2, [G] neither","key_press":76,"name":"choice","trial_type":"html-keyboard-response","trial_index":219,"time_elapsed":477123,"internal_node_id":"0.0-219.0","subject":"S1C1655","sona":"41687","block":2,"time":"2021-09-22T18:51:32.804Z","response":"2nd","certainty":"high","char":"L","transposition":1,"order":["swapped","shifted"],"probe_pitches":[7,4,9,7,0,2,-3,4,9,0,7,-3,0,9,0,2],"shifted_pitches":[7,4,9,7,0,2,-3,4,8,0,7,-3,0,9,0,2],"swapped_pitches":[7,4,9,7,0,2,-3,9,4,0,7,-3,0,9,0,2],"shift_direction":-1,"question_num":191,"has_decoy":false}]