[{"rt":2205.9000000003725,"stimulus":"[A] option 1, [L] option 2, [G] neither","key_press":71,"name":"choice","trial_type":"html-keyboard-response","trial_index":10,"time_elapsed":26363,"internal_node_id":"0.0-10.0","subject":"S1C1655","sona":"41687","block":6,"time":"2021-09-22T19:26:18.292Z","response":"neither","certainty":"high","char":"G","transposition":-2,"order":["swapped","shifted"],"probe_pitches":[11,7,3,5,1,9,-1,1,8,10,9,8,4,11,9,8],"shifted_pitches":[11,7,3,5,1,9,-1,2,8,10,9,8,4,11,9,8],"swapped_pitches":[11,7,3,5,1,9,-1,8,1,10,9,8,4,11,9,8],"shift_direction":1,"question_num":1,"has_decoy":false},{"rt":2302.7000000001863,"stimulus":"[A] option 1, [L] option 2, [G] neither","key_press":76,"name":"choice","trial_type":"html-keyboard-response","trial_index":21,"time_elapsed":51115,"internal_node_id":"0.0-21.0","subject":"S1C1655","sona":"41687","block":6,"time":"2021-09-22T19:26:18.292Z","response":"2nd","certainty":"high","char":"L","transposition":-1,"order":["shifted","swapped"],"probe_pitches":[5,9,7,0,5,9,2,0,5,7,9,2,-3,0,5,-3],"shifted_pitches":[5,9,7,0,5,9,2,-1,5,7,9,2,-3,0,5,-3],"swapped_pitches":[5,9,7,0,5,9,2,5,0,7,9,2,-3,0,5,-3],"shift_direction":-1,"question_num":11,"has_decoy":false},{"rt":7630.5,"stimulus":"[A] option 1, [L] option 2, [G] neither","key_press":65,"name":"choice","trial_type":"html-keyboard-response","trial_index":32,"time_elapsed":80909,"internal_node_id":"0.0-32.0","subject":"S1C1655","sona":"41687","block":6,"time":"2021-09-22T19:26:18.292Z","response":"1st","certainty":"high","char":"A","transposition":1,"order":["shifted","swapped"],"probe_pitches":[4,-1,-3,2,-1,7,2,-3,4,2,-1,4,9,2,-3,2],"shifted_pitches":[4,-1,-3,2,-1,7,2,-2,4,2,-1,4,9,2,-3,2],"swapped_pitches":[4,-1,-3,2,-1,7,2,4,-3,2,-1,4,9,2,-3,2],"shift_direction":1,"question_num":21,"has_decoy":false},{"rt":362.1000000005588,"stimulus":"[A] option 1, [L] option 2, [G] neither","key_press":76,"name":"choice","trial_type":"html-keyboard-response","trial_index":43,"time_elapsed":104472,"internal_node_id":"0.0-43.0","subject":"S1C1655","sona":"41687","block":6,"time":"2021-09-22T19:26:18.292Z","response":"2nd","certainty":"high","char":"L","transposition":-1,"order":["swapped","shifted"],"probe_pitches":[0,6,1,6,0,4,1,10,6,4,3,1,3,6,8,2],"shifted_pitches":[0,6,1,6,0,4,1,10,5,4,3,1,3,6,8,2],"swapped_pitches":[0,6,1,6,0,4,1,6,10,4,3,1,3,6,8,2],"shift_direction":-1,"question_num":31,"has_decoy":false},{"rt":624,"stimulus":"[A] option 1, [L] option 2, [G] neither","key_press":76,"name":"choice","trial_type":"html-keyboard-response","trial_index":54,"time_elapsed":127348,"internal_node_id":"0.0-54.0","subject":"S1C1655","sona":"41687","block":6,"time":"2021-09-22T19:26:18.292Z","response":"2nd","certainty":"high","char":"L","transposition":3,"order":["swapped","shifted"],"probe_pitches":[8,2,-1,6,-1,9,11,6,0,11,9,5,3,8,-1,11],"shifted_pitches":[8,2,-1,6,-1,9,11,6,1,11,9,5,3,8,-1,11],"swapped_pitches":[8,2,-1,6,-1,9,11,0,6,11,9,5,3,8,-1,11],"shift_direction":1,"question_num":41,"has_decoy":false},{"rt":551,"stimulus":"[A] option 1, [L] option 2, [G] neither","key_press":65,"name":"choice","trial_type":"html-keyboard-response","trial_index":65,"time_elapsed":150331,"internal_node_id":"0.0-65.0","subject":"S1C1655","sona":"41687","block":6,"time":"2021-09-22T19:26:18.292Z","response":"1st","certainty":"high","char":"A","transposition":-3,"order":["swapped","shifted"],"probe_pitches":[7,4,0,7,0,-3,0,4,2,9,-3,2,7,0,9,2],"shifted_pitches":[7,4,0,7,0,-3,0,4,3,9,-3,2,7,0,9,2],"swapped_pitches":[7,4,0,7,0,-3,0,2,4,9,-3,2,7,0,9,2],"shift_direction":1,"question_num":51,"has_decoy":false},{"rt":685,"stimulus":"[A] option 1, [L] option 2, [G] neither","key_press":76,"name":"choice","trial_type":"html-keyboard-response","trial_index":76,"time_elapsed":173463,"internal_node_id":"0.0-76.0","subject":"S1C1655","sona":"41687","block":6,"time":"2021-09-22T19:26:18.292Z","response":"2nd","certainty":"high","char":"L","transposition":-1,"order":["shifted","swapped"],"probe_pitches":[-3,0,2,7,2,7,2,-3,0,9,5,0,5,0,-3,5],"shifted_pitches":[-3,0,2,7,2,7,2,-3,-1,9,5,0,5,0,-3,5],"swapped_pitches":[-3,0,2,7,2,7,2,0,-3,9,5,0,5,0,-3,5],"shift_direction":-1,"question_num":61,"has_decoy":false},{"rt":2421.7999999998137,"stimulus":"[A] option 1, [L] option 2, [G] neither","key_press":76,"name":"choice","trial_type":"html-keyboard-response","trial_index":87,"time_elapsed":198334,"internal_node_id":"0.0-87.0","subject":"S1C1655","sona":"41687","block":6,"time":"2021-09-22T19:26:18.292Z","response":"2nd","certainty":"high","char":"L","transposition":-2,"order":["shifted","swapped"],"probe_pitches":[2,0,-3,4,-3,4,7,4,2,-3,4,-3,0,9,2,7],"shifted_pitches":[2,0,-3,4,-3,4,7,3,2,-3,4,-3,0,9,2,7],"swapped_pitches":[2,0,-3,4,-3,4,7,2,4,-3,4,-3,0,9,2,7],"shift_direction":-1,"question_num":71,"has_decoy":false},{"rt":2448.5999999996275,"stimulus":"[A] option 1, [L] option 2, [G] neither","key_press":76,"name":"choice","trial_type":"html-keyboard-response","trial_index":98,"time_elapsed":223078,"internal_node_id":"0.0-98.0","subject":"S1C1655","sona":"41687","block":6,"time":"2021-09-22T19:26:18.292Z","response":"2nd","certainty":"high","char":"L","transposition":-1,"order":["swapped","shifted"],"probe_pitches":[1,7,6,0,-1,3,4,3,10,2,3,7,2,4,-1,10],"shifted_pitches":[1,7,6,0,-1,3,4,3,9,2,3,7,2,4,-1,10],"swapped_pitches":[1,7,6,0,-1,3,4,10,3,2,3,7,2,4,-1,10],"shift_direction":-1,"question_num":81,"has_decoy":false},{"rt":7188.800000000745,"stimulus":"[A] option 1, [L] option 2, [G] neither","key_press":76,"name":"choice","trial_type":"html-keyboard-response","trial_index":109,"time_elapsed":252585,"internal_node_id":"0.0-109.0","subject":"S1C1655","sona":"41687","block":6,"time":"2021-09-22T19:26:18.292Z","response":"2nd","certainty":"high","char":"L","transposition":1,"order":["shifted","swapped"],"probe_pitches":[1,7,10,2,0,-1,6,-1,7,10,3,2,0,6,1,9],"shifted_pitches":[1,7,10,2,0,-1,6,-1,8,10,3,2,0,6,1,9],"swapped_pitches":[1,7,10,2,0,-1,6,7,-1,10,3,2,0,6,1,9],"shift_direction":1,"question_num":91,"has_decoy":false},{"rt":1285.4000000003725,"stimulus":"[A] option 1, [L] option 2, [G] neither","key_press":71,"name":"choice","trial_type":"html-keyboard-response","trial_index":120,"time_elapsed":276347,"internal_node_id":"0.0-120.0","subject":"S1C1655","sona":"41687","block":6,"time":"2021-09-22T19:26:18.292Z","response":"neither","certainty":"high","char":"G","transposition":0,"order":["swapped","shifted"],"probe_pitches":[0,4,10,11,7,2,6,4,9,6,0,4,7,11,6,8],"shifted_pitches":[0,4,10,11,7,2,6,3,9,6,0,4,7,11,6,8],"swapped_pitches":[0,4,10,11,7,2,6,9,4,6,0,4,7,11,6,8],"shift_direction":-1,"question_num":101,"has_decoy":false},{"rt":1064.7000000001863,"stimulus":"[A] option 1, [L] option 2, [G] neither","key_press":76,"name":"choice","trial_type":"html-keyboard-response","trial_index":131,"time_elapsed":299770,"internal_node_id":"0.0-131.0","subject":"S1C1655","sona":"41687","block":6,"time":"2021-09-22T19:26:18.292Z","response":"2nd","certainty":"high","char":"L","transposition":0,"order":["swapped","shifted"],"probe_pitches":[4,2,-1,4,2,-3,2,9,4,-1,4,9,-1,-3,4,6],"shifted_pitches":[4,2,-1,4,2,-3,2,9,5,-1,4,9,-1,-3,4,6],"swapped_pitches":[4,2,-1,4,2,-3,2,4,9,-1,4,9,-1,-3,4,6],"shift_direction":1,"question_num":111,"has_decoy":false},{"rt":445,"stimulus":"[A] option 1, [L] option 2, [G] neither","key_press":76,"name":"choice","trial_type":"html-keyboard-response","trial_index":142,"time_elapsed":322676,"internal_node_id":"0.0-142.0","subject":"S1C1655","sona":"41687","block":6,"time":"2021-09-22T19:26:18.292Z","response":"2nd","certainty":"high","char":"L","transposition":3,"order":["swapped","shifted"],"probe_pitches":[7,4,-1,4,7,9,2,-1,7,2,7,2,-1,4,2,-3],"shifted_pitches":[7,4,-1,4,7,9,2,-2,7,2,7,2,-1,4,2,-3],"swapped_pitches":[7,4,-1,4,7,9,2,7,-1,2,7,2,-1,4,2,-3],"shift_direction":-1,"question_num":121,"has_decoy":false},{"rt":2027,"stimulus":"[A] option 1, [L] option 2, [G] neither","key_press":76,"name":"choice","trial_type":"html-keyboard-response","trial_index":153,"time_elapsed":347015,"internal_node_id":"0.0-153.0","subject":"S1C1655","sona":"41687","block":6,"time":"2021-09-22T19:26:18.292Z","response":"2nd","certainty":"high","char":"L","transposition":-2,"order":["swapped","shifted"],"probe_pitches":[4,6,4,-3,2,4,-3,-1,2,9,6,-3,4,-1,2,6],"shifted_pitches":[4,6,4,-3,2,4,-3,-1,3,9,6,-3,4,-1,2,6],"swapped_pitches":[4,6,4,-3,2,4,-3,2,-1,9,6,-3,4,-1,2,6],"shift_direction":1,"question_num":131,"has_decoy":false},{"rt":1270.2999999998137,"stimulus":"[A] option 1, [L] option 2, [G] neither","key_press":71,"name":"choice","trial_type":"html-keyboard-response","trial_index":164,"time_elapsed":370599,"internal_node_id":"0.0-164.0","subject":"S1C1655","sona":"41687","block":6,"time":"2021-09-22T19:26:18.292Z","response":"neither","certainty":"high","char":"G","transposition":-3,"order":["shifted","swapped"],"probe_pitches":[6,11,6,-1,2,3,2,3,6,8,5,9,0,10,11,6],"shifted_pitches":[6,11,6,-1,2,3,2,4,6,8,5,9,0,10,11,6],"swapped_pitches":[6,11,6,-1,2,3,2,6,3,8,5,9,0,10,11,6],"shift_direction":1,"question_num":141,"has_decoy":false},{"rt":1753.8999999994412,"stimulus":"[A] option 1, [L] option 2, [G] neither","key_press":65,"name":"choice","trial_type":"html-keyboard-response","trial_index":175,"time_elapsed":395026,"internal_node_id":"0.0-175.0","subject":"S1C1655","sona":"41687","block":6,"time":"2021-09-22T19:26:18.292Z","response":"1st","certainty":"high","char":"A","transposition":-3,"order":["shifted","swapped"],"probe_pitches":[2,-1,2,-1,2,0,9,8,11,10,0,4,1,9,-1,3],"shifted_pitches":[2,-1,2,-1,2,0,9,7,11,10,0,4,1,9,-1,3],"swapped_pitches":[2,-1,2,-1,2,0,9,11,8,10,0,4,1,9,-1,3],"shift_direction":-1,"question_num":151,"has_decoy":false},{"rt":1921.699999999255,"stimulus":"[A] option 1, [L] option 2, [G] neither","key_press":71,"name":"choice","trial_type":"html-keyboard-response","trial_index":186,"time_elapsed":419438,"internal_node_id":"0.0-186.0","subject":"S1C1655","sona":"41687","block":6,"time":"2021-09-22T19:26:18.292Z","response":"neither","certainty":"high","char":"G","transposition":2,"order":["shifted","swapped"],"probe_pitches":[0,2,9,7,5,-1,1,2,9,7,11,5,-1,7,11,8],"shifted_pitches":[0,2,9,7,5,-1,1,2,10,7,11,5,-1,7,11,8],"swapped_pitches":[0,2,9,7,5,-1,1,9,2,7,11,5,-1,7,11,8],"shift_direction":1,"question_num":161,"has_decoy":false},{"rt":1839.5,"stimulus":"[A] option 1, [L] option 2, [G] neither","key_press":76,"name":"choice","trial_type":"html-keyboard-response","trial_index":197,"time_elapsed":443592,"internal_node_id":"0.0-197.0","subject":"S1C1655","sona":"41687","block":6,"time":"2021-09-22T19:26:18.292Z","response":"2nd","certainty":"high","char":"L","transposition":-2,"order":["shifted","swapped"],"probe_pitches":[11,7,2,7,2,4,11,7,2,11,1,10,7,3,9,11],"shifted_pitches":[11,7,2,7,2,4,11,6,2,11,1,10,7,3,9,11],"swapped_pitches":[11,7,2,7,2,4,11,2,7,11,1,10,7,3,9,11],"shift_direction":-1,"question_num":171,"has_decoy":false},{"rt":1057.300000000745,"stimulus":"[A] option 1, [L] option 2, [G] neither","key_press":65,"name":"choice","trial_type":"html-keyboard-response","trial_index":208,"time_elapsed":467322,"internal_node_id":"0.0-208.0","subject":"S1C1655","sona":"41687","block":6,"time":"2021-09-22T19:26:18.292Z","response":"1st","certainty":"high","char":"A","transposition":2,"order":["shifted","swapped"],"probe_pitches":[9,4,9,6,-1,9,4,-3,6,9,6,1,4,1,9,-1],"shifted_pitches":[9,4,9,6,-1,9,4,-4,6,9,6,1,4,1,9,-1],"swapped_pitches":[9,4,9,6,-1,9,4,6,-3,9,6,1,4,1,9,-1],"shift_direction":-1,"question_num":181,"has_decoy":false},{"rt":770.5,"stimulus":"[A] option 1, [L] option 2, [G] neither","key_press":76,"name":"choice","trial_type":"html-keyboard-response","trial_index":219,"time_elapsed":490460,"internal_node_id":"0.0-219.0","subject":"S1C1655","sona":"41687","block":6,"time":"2021-09-22T19:26:18.292Z","response":"2nd","certainty":"high","char":"L","transposition":-3,"order":["swapped","shifted"],"probe_pitches":[9,6,9,6,1,-3,1,4,9,-1,-3,-1,-3,1,-3,-1],"shifted_pitches":[9,6,9,6,1,-3,1,4,10,-1,-3,-1,-3,1,-3,-1],"swapped_pitches":[9,6,9,6,1,-3,1,9,4,-1,-3,-1,-3,1,-3,-1],"shift_direction":1,"question_num":191,"has_decoy":false}]