[{"rt":2026,"stimulus":"[A] option 1, [L] option 2, [G] neither","key_press":76,"name":"choice","trial_type":"html-keyboard-response","trial_index":10,"time_elapsed":30825,"internal_node_id":"0.0-10.0","subject":"S1C1655","sona":"41687","block":5,"time":"2021-09-22T19:18:02.353Z","response":"2nd","certainty":"high","char":"L","transposition":-1,"order":["shifted","swapped"],"probe_pitches":[1,2,-1,2,6,9,7,6,-2,9,0,-1,9,4,8,2],"shifted_pitches":[1,2,-1,2,6,9,7,5,-2,9,0,-1,9,4,8,2],"swapped_pitches":[1,2,-1,2,6,9,7,-2,6,9,0,-1,9,4,8,2],"shift_direction":-1,"question_num":1,"has_decoy":false},{"rt":812.5,"stimulus":"[A] option 1, [L] option 2, [G] neither","key_press":71,"name":"choice","trial_type":"html-keyboard-response","trial_index":21,"time_elapsed":53863,"internal_node_id":"0.0-21.0","subject":"S1C1655","sona":"41687","block":5,"time":"2021-09-22T19:18:02.353Z","response":"neither","certainty":"high","char":"G","transposition":-3,"order":["shifted","swapped"],"probe_pitches":[9,6,8,0,7,6,4,0,10,8,7,-1,10,4,6,3],"shifted_pitches":[9,6,8,0,7,6,4,1,10,8,7,-1,10,4,6,3],"swapped_pitches":[9,6,8,0,7,6,4,10,0,8,7,-1,10,4,6,3],"shift_direction":1,"question_num":11,"has_decoy":false},{"rt":1709.7999999998137,"stimulus":"[A] option 1, [L] option 2, [G] neither","key_press":71,"name":"choice","trial_type":"html-keyboard-response","trial_index":32,"time_elapsed":77950,"internal_node_id":"0.0-32.0","subject":"S1C1655","sona":"41687","block":5,"time":"2021-09-22T19:18:02.353Z","response":"neither","certainty":"high","char":"G","transposition":-1,"order":["shifted","swapped"],"probe_pitches":[2,-3,0,-3,0,-3,7,0,5,2,5,9,2,9,0,5],"shifted_pitches":[2,-3,0,-3,0,-3,7,0,6,2,5,9,2,9,0,5],"swapped_pitches":[2,-3,0,-3,0,-3,7,5,0,2,5,9,2,9,0,5],"shift_direction":1,"question_num":21,"has_decoy":false},{"rt":3848,"stimulus":"[A] option 1, [L] option 2, [G] neither","key_press":76,"name":"choice","trial_type":"html-keyboard-response","trial_index":43,"time_elapsed":104002,"internal_node_id":"0.0-43.0","subject":"S1C1655","sona":"41687","block":5,"time":"2021-09-22T19:18:02.353Z","response":"2nd","certainty":"high","char":"L","transposition":-2,"order":["swapped","shifted"],"probe_pitches":[9,7,2,7,2,0,5,0,-3,2,5,9,-3,7,9,2],"shifted_pitches":[9,7,2,7,2,0,5,-1,-3,2,5,9,-3,7,9,2],"swapped_pitches":[9,7,2,7,2,0,5,-3,0,2,5,9,-3,7,9,2],"shift_direction":-1,"question_num":31,"has_decoy":false},{"rt":396.5,"stimulus":"[A] option 1, [L] option 2, [G] neither","key_press":76,"name":"choice","trial_type":"html-keyboard-response","trial_index":54,"time_elapsed":126791,"internal_node_id":"0.0-54.0","subject":"S1C1655","sona":"41687","block":5,"time":"2021-09-22T19:18:02.353Z","response":"2nd","certainty":"high","char":"L","transposition":-2,"order":["swapped","shifted"],"probe_pitches":[7,2,4,0,9,0,7,-3,4,2,-3,7,2,-3,7,0],"shifted_pitches":[7,2,4,0,9,0,7,-4,4,2,-3,7,2,-3,7,0],"swapped_pitches":[7,2,4,0,9,0,7,4,-3,2,-3,7,2,-3,7,0],"shift_direction":-1,"question_num":41,"has_decoy":false},{"rt":1685.3999999994412,"stimulus":"[A] option 1, [L] option 2, [G] neither","key_press":76,"name":"choice","trial_type":"html-keyboard-response","trial_index":65,"time_elapsed":151851,"internal_node_id":"0.0-65.0","subject":"S1C1655","sona":"41687","block":5,"time":"2021-09-22T19:18:02.353Z","response":"2nd","certainty":"high","char":"L","transposition":3,"order":["swapped","shifted"],"probe_pitches":[4,6,9,1,-1,9,6,-1,4,9,4,1,6,4,-3,6],"shifted_pitches":[4,6,9,1,-1,9,6,-1,3,9,4,1,6,4,-3,6],"swapped_pitches":[4,6,9,1,-1,9,6,4,-1,9,4,1,6,4,-3,6],"shift_direction":-1,"question_num":51,"has_decoy":false},{"rt":1704.2999999998137,"stimulus":"[A] option 1, [L] option 2, [G] neither","key_press":71,"name":"choice","trial_type":"html-keyboard-response","trial_index":76,"time_elapsed":175880,"internal_node_id":"0.0-76.0","subject":"S1C1655","sona":"41687","block":5,"time":"2021-09-22T19:18:02.353Z","response":"neither","certainty":"high","char":"G","transposition":-3,"order":["shifted","swapped"],"probe_pitches":[-1,4,2,4,7,9,2,7,9,-3,4,9,7,2,7,-1],"shifted_pitches":[-1,4,2,4,7,9,2,8,9,-3,4,9,7,2,7,-1],"swapped_pitches":[-1,4,2,4,7,9,2,9,7,-3,4,9,7,2,7,-1],"shift_direction":1,"question_num":61,"has_decoy":false},{"rt":1421.8999999994412,"stimulus":"[A] option 1, [L] option 2, [G] neither","key_press":76,"name":"choice","trial_type":"html-keyboard-response","trial_index":87,"time_elapsed":199492,"internal_node_id":"0.0-87.0","subject":"S1C1655","sona":"41687","block":5,"time":"2021-09-22T19:18:02.353Z","response":"2nd","certainty":"high","char":"L","transposition":-1,"order":["swapped","shifted"],"probe_pitches":[7,10,5,1,10,7,2,-1,3,9,0,-1,5,1,3,5],"shifted_pitches":[7,10,5,1,10,7,2,-1,4,9,0,-1,5,1,3,5],"swapped_pitches":[7,10,5,1,10,7,2,3,-1,9,0,-1,5,1,3,5],"shift_direction":1,"question_num":71,"has_decoy":false},{"rt":12039.200000000186,"stimulus":"[A] option 1, [L] option 2, [G] neither","key_press":71,"name":"choice","trial_type":"html-keyboard-response","trial_index":98,"time_elapsed":234307,"internal_node_id":"0.0-98.0","subject":"S1C1655","sona":"41687","block":5,"time":"2021-09-22T19:18:02.353Z","response":"neither","certainty":"high","char":"G","transposition":-1,"order":["shifted","swapped"],"probe_pitches":[6,4,6,9,6,-3,4,-3,2,-1,2,9,2,-3,-1,-3],"shifted_pitches":[6,4,6,9,6,-3,4,-3,1,-1,2,9,2,-3,-1,-3],"swapped_pitches":[6,4,6,9,6,-3,4,2,-3,-1,2,9,2,-3,-1,-3],"shift_direction":-1,"question_num":81,"has_decoy":false},{"rt":27773.5,"stimulus":"[A] option 1, [L] option 2, [G] neither","key_press":71,"name":"choice","trial_type":"html-keyboard-response","trial_index":109,"time_elapsed":284308,"internal_node_id":"0.0-109.0","subject":"S1C1655","sona":"41687","block":5,"time":"2021-09-22T19:18:02.353Z","response":"neither","certainty":"high","char":"G","transposition":0,"order":["shifted","swapped"],"probe_pitches":[4,-1,6,9,6,4,6,1,4,-1,1,4,-1,1,-3,9],"shifted_pitches":[4,-1,6,9,6,4,6,2,4,-1,1,4,-1,1,-3,9],"swapped_pitches":[4,-1,6,9,6,4,6,4,1,-1,1,4,-1,1,-3,9],"shift_direction":1,"question_num":91,"has_decoy":false},{"rt":1419.3999999994412,"stimulus":"[A] option 1, [L] option 2, [G] neither","key_press":76,"name":"choice","trial_type":"html-keyboard-response","trial_index":120,"time_elapsed":308237,"internal_node_id":"0.0-120.0","subject":"S1C1655","sona":"41687","block":5,"time":"2021-09-22T19:18:02.353Z","response":"2nd","certainty":"high","char":"L","transposition":2,"order":["shifted","swapped"],"probe_pitches":[-3,-1,4,9,4,7,-1,2,4,-1,2,-1,2,7,4,-1],"shifted_pitches":[-3,-1,4,9,4,7,-1,2,5,-1,2,-1,2,7,4,-1],"swapped_pitches":[-3,-1,4,9,4,7,-1,4,2,-1,2,-1,2,7,4,-1],"shift_direction":1,"question_num":101,"has_decoy":false},{"rt":380.40000000037253,"stimulus":"[A] option 1, [L] option 2, [G] neither","key_press":76,"name":"choice","trial_type":"html-keyboard-response","trial_index":131,"time_elapsed":330932,"internal_node_id":"0.0-131.0","subject":"S1C1655","sona":"41687","block":5,"time":"2021-09-22T19:18:02.353Z","response":"2nd","certainty":"high","char":"L","transposition":1,"order":["swapped","shifted"],"probe_pitches":[9,7,2,9,4,0,-3,4,9,2,-3,0,7,2,-3,2],"shifted_pitches":[9,7,2,9,4,0,-3,4,10,2,-3,0,7,2,-3,2],"swapped_pitches":[9,7,2,9,4,0,-3,9,4,2,-3,0,7,2,-3,2],"shift_direction":1,"question_num":111,"has_decoy":false},{"rt":1279.3999999994412,"stimulus":"[A] option 1, [L] option 2, [G] neither","key_press":71,"name":"choice","trial_type":"html-keyboard-response","trial_index":142,"time_elapsed":354338,"internal_node_id":"0.0-142.0","subject":"S1C1655","sona":"41687","block":5,"time":"2021-09-22T19:18:02.353Z","response":"neither","certainty":"high","char":"G","transposition":1,"order":["shifted","swapped"],"probe_pitches":[4,9,5,7,2,4,1,3,9,5,1,5,-2,6,-1,0],"shifted_pitches":[4,9,5,7,2,4,1,3,8,5,1,5,-2,6,-1,0],"swapped_pitches":[4,9,5,7,2,4,1,9,3,5,1,5,-2,6,-1,0],"shift_direction":-1,"question_num":121,"has_decoy":false},{"rt":507.29999999981374,"stimulus":"[A] option 1, [L] option 2, [G] neither","key_press":76,"name":"choice","trial_type":"html-keyboard-response","trial_index":153,"time_elapsed":378185,"internal_node_id":"0.0-153.0","subject":"S1C1655","sona":"41687","block":5,"time":"2021-09-22T19:18:02.353Z","response":"2nd","certainty":"high","char":"L","transposition":3,"order":["swapped","shifted"],"probe_pitches":[4,8,10,3,4,7,-2,0,7,1,8,5,8,4,10,0],"shifted_pitches":[4,8,10,3,4,7,-2,0,6,1,8,5,8,4,10,0],"swapped_pitches":[4,8,10,3,4,7,-2,7,0,1,8,5,8,4,10,0],"shift_direction":-1,"question_num":131,"has_decoy":false},{"rt":848.3000000007451,"stimulus":"[A] option 1, [L] option 2, [G] neither","key_press":71,"name":"choice","trial_type":"html-keyboard-response","trial_index":164,"time_elapsed":401407,"internal_node_id":"0.0-164.0","subject":"S1C1655","sona":"41687","block":5,"time":"2021-09-22T19:18:02.353Z","response":"neither","certainty":"high","char":"G","transposition":2,"order":["shifted","swapped"],"probe_pitches":[10,7,5,3,4,-1,3,6,8,-2,5,1,7,0,3,4],"shifted_pitches":[10,7,5,3,4,-1,3,6,9,-2,5,1,7,0,3,4],"swapped_pitches":[10,7,5,3,4,-1,3,8,6,-2,5,1,7,0,3,4],"shift_direction":1,"question_num":141,"has_decoy":false},{"rt":992.6999999992549,"stimulus":"[A] option 1, [L] option 2, [G] neither","key_press":71,"name":"choice","trial_type":"html-keyboard-response","trial_index":175,"time_elapsed":424714,"internal_node_id":"0.0-175.0","subject":"S1C1655","sona":"41687","block":5,"time":"2021-09-22T19:18:02.353Z","response":"neither","certainty":"high","char":"G","transposition":-2,"order":["swapped","shifted"],"probe_pitches":[6,3,1,4,5,7,4,1,3,10,-2,8,1,10,7,1],"shifted_pitches":[6,3,1,4,5,7,4,2,3,10,-2,8,1,10,7,1],"swapped_pitches":[6,3,1,4,5,7,4,3,1,10,-2,8,1,10,7,1],"shift_direction":1,"question_num":151,"has_decoy":false},{"rt":380.40000000037253,"stimulus":"[A] option 1, [L] option 2, [G] neither","key_press":65,"name":"choice","trial_type":"html-keyboard-response","trial_index":186,"time_elapsed":447382,"internal_node_id":"0.0-186.0","subject":"S1C1655","sona":"41687","block":5,"time":"2021-09-22T19:18:02.353Z","response":"1st","certainty":"high","char":"A","transposition":-3,"order":["swapped","shifted"],"probe_pitches":[3,9,6,8,0,1,-2,6,5,-2,6,5,3,9,10,-1],"shifted_pitches":[3,9,6,8,0,1,-2,7,5,-2,6,5,3,9,10,-1],"swapped_pitches":[3,9,6,8,0,1,-2,5,6,-2,6,5,3,9,10,-1],"shift_direction":1,"question_num":161,"has_decoy":false},{"rt":3413.0999999996275,"stimulus":"[A] option 1, [L] option 2, [G] neither","key_press":76,"name":"choice","trial_type":"html-keyboard-response","trial_index":197,"time_elapsed":475178,"internal_node_id":"0.0-197.0","subject":"S1C1655","sona":"41687","block":5,"time":"2021-09-22T19:18:02.353Z","response":"2nd","certainty":"high","char":"L","transposition":-2,"order":["swapped","shifted"],"probe_pitches":[-1,2,9,10,2,9,3,1,7,-2,-1,7,-1,9,6,5],"shifted_pitches":[-1,2,9,10,2,9,3,0,7,-2,-1,7,-1,9,6,5],"swapped_pitches":[-1,2,9,10,2,9,3,7,1,-2,-1,7,-1,9,6,5],"shift_direction":-1,"question_num":171,"has_decoy":false},{"rt":970.8999999994412,"stimulus":"[A] option 1, [L] option 2, [G] neither","key_press":76,"name":"choice","trial_type":"html-keyboard-response","trial_index":208,"time_elapsed":498496,"internal_node_id":"0.0-208.0","subject":"S1C1655","sona":"41687","block":5,"time":"2021-09-22T19:18:02.353Z","response":"2nd","certainty":"high","char":"L","transposition":-3,"order":["swapped","shifted"],"probe_pitches":[4,-1,4,-3,2,-3,-1,6,9,-1,-3,-1,6,-3,6,-3],"shifted_pitches":[4,-1,4,-3,2,-3,-1,5,9,-1,-3,-1,6,-3,6,-3],"swapped_pitches":[4,-1,4,-3,2,-3,-1,9,6,-1,-3,-1,6,-3,6,-3],"shift_direction":-1,"question_num":181,"has_decoy":false},{"rt":5373.600000000559,"stimulus":"[A] option 1, [L] option 2, [G] neither","key_press":71,"name":"choice","trial_type":"html-keyboard-response","trial_index":219,"time_elapsed":526161,"internal_node_id":"0.0-219.0","subject":"S1C1655","sona":"41687","block":5,"time":"2021-09-22T19:18:02.353Z","response":"neither","certainty":"high","char":"G","transposition":0,"order":["shifted","swapped"],"probe_pitches":[4,5,2,-2,2,4,-2,6,4,10,4,5,8,5,2,7],"shifted_pitches":[4,5,2,-2,2,4,-2,6,3,10,4,5,8,5,2,7],"swapped_pitches":[4,5,2,-2,2,4,-2,4,6,10,4,5,8,5,2,7],"shift_direction":-1,"question_num":191,"has_decoy":false}]