[{"rt":1975.3999999999069,"stimulus":"[A] option 1, [L] option 2, [G] neither","key_press":71,"name":"choice","trial_type":"html-keyboard-response","trial_index":10,"time_elapsed":27528,"internal_node_id":"0.0-10.0","subject":"S1C1655","sona":"41687","block":4,"time":"2021-09-22T19:08:19.955Z","response":"neither","certainty":"high","char":"G","transposition":-1,"order":["shifted","swapped"],"probe_pitches":[6,9,6,4,-1,-3,2,-1,8,-2,-3,1,-2,7,9,7],"shifted_pitches":[6,9,6,4,-1,-3,2,0,8,-2,-3,1,-2,7,9,7],"swapped_pitches":[6,9,6,4,-1,-3,2,8,-1,-2,-3,1,-2,7,9,7],"shift_direction":1,"question_num":1,"has_decoy":false},{"rt":1092.5,"stimulus":"[A] option 1, [L] option 2, [G] neither","key_press":71,"name":"choice","trial_type":"html-keyboard-response","trial_index":21,"time_elapsed":50976,"internal_node_id":"0.0-21.0","subject":"S1C1655","sona":"41687","block":4,"time":"2021-09-22T19:08:19.955Z","response":"neither","certainty":"high","char":"G","transposition":3,"order":["shifted","swapped"],"probe_pitches":[10,12,5,7,5,2,7,5,10,0,2,5,0,12,2,5],"shifted_pitches":[10,12,5,7,5,2,7,6,10,0,2,5,0,12,2,5],"swapped_pitches":[10,12,5,7,5,2,7,10,5,0,2,5,0,12,2,5],"shift_direction":1,"question_num":11,"has_decoy":false},{"rt":1466.6000000000931,"stimulus":"[A] option 1, [L] option 2, [G] neither","key_press":76,"name":"choice","trial_type":"html-keyboard-response","trial_index":32,"time_elapsed":74742,"internal_node_id":"0.0-32.0","subject":"S1C1655","sona":"41687","block":4,"time":"2021-09-22T19:08:19.955Z","response":"2nd","certainty":"high","char":"L","transposition":-1,"order":["swapped","shifted"],"probe_pitches":[2,5,12,5,12,7,9,0,12,7,9,12,5,2,5,0],"shifted_pitches":[2,5,12,5,12,7,9,-1,12,7,9,12,5,2,5,0],"swapped_pitches":[2,5,12,5,12,7,9,12,0,7,9,12,5,2,5,0],"shift_direction":-1,"question_num":21,"has_decoy":false},{"rt":4131.600000000093,"stimulus":"[A] option 1, [L] option 2, [G] neither","key_press":71,"name":"choice","trial_type":"html-keyboard-response","trial_index":43,"time_elapsed":101098,"internal_node_id":"0.0-43.0","subject":"S1C1655","sona":"41687","block":4,"time":"2021-09-22T19:08:19.955Z","response":"neither","certainty":"high","char":"G","transposition":1,"order":["shifted","swapped"],"probe_pitches":[10,8,3,8,10,0,8,3,0,8,12,8,3,5,3,5],"shifted_pitches":[10,8,3,8,10,0,8,3,1,8,12,8,3,5,3,5],"swapped_pitches":[10,8,3,8,10,0,8,0,3,8,12,8,3,5,3,5],"shift_direction":1,"question_num":31,"has_decoy":false},{"rt":548,"stimulus":"[A] option 1, [L] option 2, [G] neither","key_press":65,"name":"choice","trial_type":"html-keyboard-response","trial_index":54,"time_elapsed":124006,"internal_node_id":"0.0-54.0","subject":"S1C1655","sona":"41687","block":4,"time":"2021-09-22T19:08:19.955Z","response":"1st","certainty":"high","char":"A","transposition":-3,"order":["swapped","shifted"],"probe_pitches":[3,7,2,8,0,8,0,1,5,8,5,3,-2,1,2,3],"shifted_pitches":[3,7,2,8,0,8,0,1,6,8,5,3,-2,1,2,3],"swapped_pitches":[3,7,2,8,0,8,0,5,1,8,5,3,-2,1,2,3],"shift_direction":1,"question_num":41,"has_decoy":false},{"rt":8168,"stimulus":"[A] option 1, [L] option 2, [G] neither","key_press":76,"name":"choice","trial_type":"html-keyboard-response","trial_index":65,"time_elapsed":154484,"internal_node_id":"0.0-65.0","subject":"S1C1655","sona":"41687","block":4,"time":"2021-09-22T19:08:19.955Z","response":"2nd","certainty":"high","char":"L","transposition":1,"order":["shifted","swapped"],"probe_pitches":[-1,3,0,2,-3,3,1,9,0,5,2,-1,2,-3,1,-3],"shifted_pitches":[-1,3,0,2,-3,3,1,8,0,5,2,-1,2,-3,1,-3],"swapped_pitches":[-1,3,0,2,-3,3,1,0,9,5,2,-1,2,-3,1,-3],"shift_direction":-1,"question_num":51,"has_decoy":false},{"rt":3378.899999999907,"stimulus":"[A] option 1, [L] option 2, [G] neither","key_press":76,"name":"choice","trial_type":"html-keyboard-response","trial_index":76,"time_elapsed":180346,"internal_node_id":"0.0-76.0","subject":"S1C1655","sona":"41687","block":4,"time":"2021-09-22T19:08:19.955Z","response":"2nd","certainty":"high","char":"L","transposition":-2,"order":["shifted","swapped"],"probe_pitches":[12,10,12,10,12,5,0,7,12,3,0,7,5,3,12,3],"shifted_pitches":[12,10,12,10,12,5,0,6,12,3,0,7,5,3,12,3],"swapped_pitches":[12,10,12,10,12,5,0,12,7,3,0,7,5,3,12,3],"shift_direction":-1,"question_num":61,"has_decoy":false},{"rt":1941.8999999999069,"stimulus":"[A] option 1, [L] option 2, [G] neither","key_press":76,"name":"choice","trial_type":"html-keyboard-response","trial_index":87,"time_elapsed":205063,"internal_node_id":"0.0-87.0","subject":"S1C1655","sona":"41687","block":4,"time":"2021-09-22T19:08:19.955Z","response":"2nd","certainty":"high","char":"L","transposition":-3,"order":["swapped","shifted"],"probe_pitches":[9,3,0,1,7,-2,3,0,9,8,3,-2,4,6,0,9],"shifted_pitches":[9,3,0,1,7,-2,3,-1,9,8,3,-2,4,6,0,9],"swapped_pitches":[9,3,0,1,7,-2,3,9,0,8,3,-2,4,6,0,9],"shift_direction":-1,"question_num":71,"has_decoy":false},{"rt":1279.3999999999069,"stimulus":"[A] option 1, [L] option 2, [G] neither","key_press":65,"name":"choice","trial_type":"html-keyboard-response","trial_index":98,"time_elapsed":229464,"internal_node_id":"0.0-98.0","subject":"S1C1655","sona":"41687","block":4,"time":"2021-09-22T19:08:19.955Z","response":"1st","certainty":"high","char":"A","transposition":2,"order":["shifted","swapped"],"probe_pitches":[10,7,5,7,2,7,0,5,12,10,2,5,2,5,0,2],"shifted_pitches":[10,7,5,7,2,7,0,4,12,10,2,5,2,5,0,2],"swapped_pitches":[10,7,5,7,2,7,0,12,5,10,2,5,2,5,0,2],"shift_direction":-1,"question_num":81,"has_decoy":false},{"rt":11729.899999999907,"stimulus":"[A] option 1, [L] option 2, [G] neither","key_press":65,"name":"choice","trial_type":"html-keyboard-response","trial_index":109,"time_elapsed":264080,"internal_node_id":"0.0-109.0","subject":"S1C1655","sona":"41687","block":4,"time":"2021-09-22T19:08:19.955Z","response":"1st","certainty":"high","char":"A","transposition":-2,"order":["shifted","swapped"],"probe_pitches":[-2,3,2,5,4,6,3,4,6,8,9,8,0,4,2,-1],"shifted_pitches":[-2,3,2,5,4,6,3,4,7,8,9,8,0,4,2,-1],"swapped_pitches":[-2,3,2,5,4,6,3,6,4,8,9,8,0,4,2,-1],"shift_direction":1,"question_num":91,"has_decoy":false},{"rt":9023.600000000093,"stimulus":"[A] option 1, [L] option 2, [G] neither","key_press":71,"name":"choice","trial_type":"html-keyboard-response","trial_index":120,"time_elapsed":295976,"internal_node_id":"0.0-120.0","subject":"S1C1655","sona":"41687","block":4,"time":"2021-09-22T19:08:19.955Z","response":"neither","certainty":"high","char":"G","transposition":-2,"order":["swapped","shifted"],"probe_pitches":[9,7,4,1,-2,0,4,3,5,7,-1,9,4,7,9,-3],"shifted_pitches":[9,7,4,1,-2,0,4,2,5,7,-1,9,4,7,9,-3],"swapped_pitches":[9,7,4,1,-2,0,4,5,3,7,-1,9,4,7,9,-3],"shift_direction":-1,"question_num":101,"has_decoy":false},{"rt":9080.5,"stimulus":"[A] option 1, [L] option 2, [G] neither","key_press":71,"name":"choice","trial_type":"html-keyboard-response","trial_index":131,"time_elapsed":328130,"internal_node_id":"0.0-131.0","subject":"S1C1655","sona":"41687","block":4,"time":"2021-09-22T19:08:19.955Z","response":"neither","certainty":"high","char":"G","transposition":2,"order":["swapped","shifted"],"probe_pitches":[9,4,8,4,6,8,-2,9,4,3,2,1,4,3,1,8],"shifted_pitches":[9,4,8,4,6,8,-2,9,5,3,2,1,4,3,1,8],"swapped_pitches":[9,4,8,4,6,8,-2,4,9,3,2,1,4,3,1,8],"shift_direction":1,"question_num":111,"has_decoy":false},{"rt":1335,"stimulus":"[A] option 1, [L] option 2, [G] neither","key_press":76,"name":"choice","trial_type":"html-keyboard-response","trial_index":142,"time_elapsed":352076,"internal_node_id":"0.0-142.0","subject":"S1C1655","sona":"41687","block":4,"time":"2021-09-22T19:08:19.955Z","response":"2nd","certainty":"high","char":"L","transposition":-3,"order":["swapped","shifted"],"probe_pitches":[0,4,2,9,4,2,12,7,2,12,7,4,7,2,12,9],"shifted_pitches":[0,4,2,9,4,2,12,8,2,12,7,4,7,2,12,9],"swapped_pitches":[0,4,2,9,4,2,12,2,7,12,7,4,7,2,12,9],"shift_direction":1,"question_num":121,"has_decoy":false},{"rt":1775,"stimulus":"[A] option 1, [L] option 2, [G] neither","key_press":76,"name":"choice","trial_type":"html-keyboard-response","trial_index":153,"time_elapsed":376426,"internal_node_id":"0.0-153.0","subject":"S1C1655","sona":"41687","block":4,"time":"2021-09-22T19:08:19.955Z","response":"2nd","certainty":"high","char":"L","transposition":-1,"order":["swapped","shifted"],"probe_pitches":[4,7,4,-1,7,8,7,2,3,9,-1,9,8,3,4,8],"shifted_pitches":[4,7,4,-1,7,8,7,1,3,9,-1,9,8,3,4,8],"swapped_pitches":[4,7,4,-1,7,8,7,3,2,9,-1,9,8,3,4,8],"shift_direction":-1,"question_num":131,"has_decoy":false},{"rt":877.2000000001863,"stimulus":"[A] option 1, [L] option 2, [G] neither","key_press":65,"name":"choice","trial_type":"html-keyboard-response","trial_index":164,"time_elapsed":402083,"internal_node_id":"0.0-164.0","subject":"S1C1655","sona":"41687","block":4,"time":"2021-09-22T19:08:19.955Z","response":"1st","certainty":"high","char":"A","transposition":0,"order":["shifted","swapped"],"probe_pitches":[-2,1,4,6,-1,-2,9,1,2,-1,8,6,7,-3,-2,-1],"shifted_pitches":[-2,1,4,6,-1,-2,9,1,3,-1,8,6,7,-3,-2,-1],"swapped_pitches":[-2,1,4,6,-1,-2,9,2,1,-1,8,6,7,-3,-2,-1],"shift_direction":1,"question_num":141,"has_decoy":false},{"rt":1600.1999999997206,"stimulus":"[A] option 1, [L] option 2, [G] neither","key_press":76,"name":"choice","trial_type":"html-keyboard-response","trial_index":175,"time_elapsed":426059,"internal_node_id":"0.0-175.0","subject":"S1C1655","sona":"41687","block":4,"time":"2021-09-22T19:08:19.955Z","response":"2nd","certainty":"high","char":"L","transposition":-2,"order":["shifted","swapped"],"probe_pitches":[7,2,7,2,9,12,7,9,4,7,4,9,7,2,9,7],"shifted_pitches":[7,2,7,2,9,12,7,9,3,7,4,9,7,2,9,7],"swapped_pitches":[7,2,7,2,9,12,7,4,9,7,4,9,7,2,9,7],"shift_direction":-1,"question_num":151,"has_decoy":false},{"rt":437.20000000018626,"stimulus":"[A] option 1, [L] option 2, [G] neither","key_press":65,"name":"choice","trial_type":"html-keyboard-response","trial_index":186,"time_elapsed":448795,"internal_node_id":"0.0-186.0","subject":"S1C1655","sona":"41687","block":4,"time":"2021-09-22T19:08:19.955Z","response":"1st","certainty":"high","char":"A","transposition":3,"order":["shifted","swapped"],"probe_pitches":[7,2,9,3,2,-2,8,-3,5,7,1,3,9,7,6,8],"shifted_pitches":[7,2,9,3,2,-2,8,-3,4,7,1,3,9,7,6,8],"swapped_pitches":[7,2,9,3,2,-2,8,5,-3,7,1,3,9,7,6,8],"shift_direction":-1,"question_num":161,"has_decoy":false},{"rt":729.1999999997206,"stimulus":"[A] option 1, [L] option 2, [G] neither","key_press":76,"name":"choice","trial_type":"html-keyboard-response","trial_index":197,"time_elapsed":471791,"internal_node_id":"0.0-197.0","subject":"S1C1655","sona":"41687","block":4,"time":"2021-09-22T19:08:19.955Z","response":"2nd","certainty":"high","char":"L","transposition":-3,"order":["swapped","shifted"],"probe_pitches":[0,3,10,3,5,0,3,8,10,0,8,3,5,8,5,12],"shifted_pitches":[0,3,10,3,5,0,3,8,9,0,8,3,5,8,5,12],"swapped_pitches":[0,3,10,3,5,0,3,10,8,0,8,3,5,8,5,12],"shift_direction":-1,"question_num":171,"has_decoy":false},{"rt":612.9000000003725,"stimulus":"[A] option 1, [L] option 2, [G] neither","key_press":65,"name":"choice","trial_type":"html-keyboard-response","trial_index":208,"time_elapsed":494710,"internal_node_id":"0.0-208.0","subject":"S1C1655","sona":"41687","block":4,"time":"2021-09-22T19:08:19.955Z","response":"1st","certainty":"high","char":"A","transposition":-1,"order":["swapped","shifted"],"probe_pitches":[12,9,2,9,5,0,9,5,7,2,0,5,0,2,5,7],"shifted_pitches":[12,9,2,9,5,0,9,5,8,2,0,5,0,2,5,7],"swapped_pitches":[12,9,2,9,5,0,9,7,5,2,0,5,0,2,5,7],"shift_direction":1,"question_num":181,"has_decoy":false},{"rt":1145.2000000001863,"stimulus":"[A] option 1, [L] option 2, [G] neither","key_press":65,"name":"choice","trial_type":"html-keyboard-response","trial_index":219,"time_elapsed":519291,"internal_node_id":"0.0-219.0","subject":"S1C1655","sona":"41687","block":4,"time":"2021-09-22T19:08:19.955Z","response":"1st","certainty":"high","char":"A","transposition":0,"order":["swapped","shifted"],"probe_pitches":[10,7,5,12,7,10,12,7,5,0,10,0,12,3,12,7],"shifted_pitches":[10,7,5,12,7,10,12,7,6,0,10,0,12,3,12,7],"swapped_pitches":[10,7,5,12,7,10,12,5,7,0,10,0,12,3,12,7],"shift_direction":1,"question_num":191,"has_decoy":false}]