[{"rt":12973.899999976158,"stimulus":"[A] option 1, [L] option 2, [G] neither","key_press":76,"name":"choice","trial_type":"html-keyboard-response","trial_index":15,"time_elapsed":228086,"internal_node_id":"0.0-15.0","response":"2nd","certainty":"high","char":"L","transposition":3,"order":["swapped","shifted"],"probe_pitches":[7,12,7,12,4,2,4,9,14,7,9,12,7,2,9,14],"shifted_pitches":[7,12,7,12,4,2,4,10,14,7,9,12,7,2,9,14],"swapped_pitches":[7,12,7,12,4,2,4,14,9,7,9,12,7,2,9,14],"shift_direction":1,"question_num":1,"has_decoy":false,"subject":"S1C1660","sona":"41578","block":1,"time":"2021-09-22T22:34:39.085Z"},{"rt":7441.9000000059605,"stimulus":"[A] option 1, [L] option 2, [G] neither","key_press":71,"name":"choice","trial_type":"html-keyboard-response","trial_index":26,"time_elapsed":259909,"internal_node_id":"0.0-26.0","response":"neither","certainty":"high","char":"G","transposition":3,"order":["swapped","shifted"],"probe_pitches":[9,6,-1,0,4,-1,6,3,8,4,10,9,3,10,6,3],"shifted_pitches":[9,6,-1,0,4,-1,6,3,7,4,10,9,3,10,6,3],"swapped_pitches":[9,6,-1,0,4,-1,6,8,3,4,10,9,3,10,6,3],"shift_direction":-1,"question_num":11,"has_decoy":false,"subject":"S1C1660","sona":"41578","block":1,"time":"2021-09-22T22:34:39.085Z"},{"rt":2147.4000000059605,"stimulus":"[A] option 1, [L] option 2, [G] neither","key_press":65,"name":"choice","trial_type":"html-keyboard-response","trial_index":37,"time_elapsed":289236,"internal_node_id":"0.0-37.0","response":"1st","certainty":"high","char":"A","transposition":-1,"order":["shifted","swapped"],"probe_pitches":[2,5,7,5,7,14,12,5,2,12,2,14,2,12,9,5],"shifted_pitches":[2,5,7,5,7,14,12,5,3,12,2,14,2,12,9,5],"swapped_pitches":[2,5,7,5,7,14,12,2,5,12,2,14,2,12,9,5],"shift_direction":1,"question_num":21,"has_decoy":false,"subject":"S1C1660","sona":"41578","block":1,"time":"2021-09-22T22:34:39.085Z"},{"rt":1510.300000011921,"stimulus":"[A] option 1, [L] option 2, [G] neither","key_press":76,"name":"choice","trial_type":"html-keyboard-response","trial_index":48,"time_elapsed":318715,"internal_node_id":"0.0-48.0","response":"2nd","certainty":"high","char":"L","transposition":-2,"order":["swapped","shifted"],"probe_pitches":[5,4,5,2,3,0,5,8,10,6,2,3,11,4,8,6],"shifted_pitches":[5,4,5,2,3,0,5,8,9,6,2,3,11,4,8,6],"swapped_pitches":[5,4,5,2,3,0,5,10,8,6,2,3,11,4,8,6],"shift_direction":-1,"question_num":31,"has_decoy":false,"subject":"S1C1660","sona":"41578","block":1,"time":"2021-09-22T22:34:39.085Z"},{"rt":1761.4000000059605,"stimulus":"[A] option 1, [L] option 2, [G] neither","key_press":65,"name":"choice","trial_type":"html-keyboard-response","trial_index":59,"time_elapsed":344674,"internal_node_id":"0.0-59.0","response":"1st","certainty":"high","char":"A","transposition":0,"order":["shifted","swapped"],"probe_pitches":[2,7,2,7,14,4,2,14,9,11,7,14,4,11,9,11],"shifted_pitches":[2,7,2,7,14,4,2,14,8,11,7,14,4,11,9,11],"swapped_pitches":[2,7,2,7,14,4,2,9,14,11,7,14,4,11,9,11],"shift_direction":-1,"question_num":41,"has_decoy":false,"subject":"S1C1660","sona":"41578","block":1,"time":"2021-09-22T22:34:39.085Z"},{"rt":1027.699999988079,"stimulus":"[A] option 1, [L] option 2, [G] neither","key_press":76,"name":"choice","trial_type":"html-keyboard-response","trial_index":70,"time_elapsed":370722,"internal_node_id":"0.0-70.0","response":"2nd","certainty":"high","char":"L","transposition":-1,"order":["swapped","shifted"],"probe_pitches":[11,14,11,6,2,4,9,11,6,9,6,14,2,6,4,6],"shifted_pitches":[11,14,11,6,2,4,9,11,5,9,6,14,2,6,4,6],"swapped_pitches":[11,14,11,6,2,4,9,6,11,9,6,14,2,6,4,6],"shift_direction":-1,"question_num":51,"has_decoy":false,"subject":"S1C1660","sona":"41578","block":1,"time":"2021-09-22T22:34:39.085Z"},{"rt":1470.300000011921,"stimulus":"[A] option 1, [L] option 2, [G] neither","key_press":65,"name":"choice","trial_type":"html-keyboard-response","trial_index":81,"time_elapsed":399113,"internal_node_id":"0.0-81.0","response":"1st","certainty":"high","char":"A","transposition":-1,"order":["shifted","swapped"],"probe_pitches":[2,1,7,6,3,1,5,7,11,6,10,5,2,10,11,3],"shifted_pitches":[2,1,7,6,3,1,5,8,11,6,10,5,2,10,11,3],"swapped_pitches":[2,1,7,6,3,1,5,11,7,6,10,5,2,10,11,3],"shift_direction":1,"question_num":61,"has_decoy":false,"subject":"S1C1660","sona":"41578","block":1,"time":"2021-09-22T22:34:39.085Z"},{"rt":6255.5999999940395,"stimulus":"[A] option 1, [L] option 2, [G] neither","key_press":71,"name":"choice","trial_type":"html-keyboard-response","trial_index":92,"time_elapsed":433168,"internal_node_id":"0.0-92.0","response":"neither","certainty":"high","char":"G","transposition":-1,"order":["swapped","shifted"],"probe_pitches":[8,6,8,6,8,9,-1,6,3,1,5,2,0,2,6,-1],"shifted_pitches":[8,6,8,6,8,9,-1,6,4,1,5,2,0,2,6,-1],"swapped_pitches":[8,6,8,6,8,9,-1,3,6,1,5,2,0,2,6,-1],"shift_direction":1,"question_num":71,"has_decoy":false,"subject":"S1C1660","sona":"41578","block":1,"time":"2021-09-22T22:34:39.085Z"},{"rt":8391,"stimulus":"[A] option 1, [L] option 2, [G] neither","key_press":71,"name":"choice","trial_type":"html-keyboard-response","trial_index":103,"time_elapsed":465703,"internal_node_id":"0.0-103.0","response":"neither","certainty":"high","char":"G","transposition":-3,"order":["swapped","shifted"],"probe_pitches":[2,7,12,7,12,2,7,5,2,12,5,7,2,7,10,5],"shifted_pitches":[2,7,12,7,12,2,7,6,2,12,5,7,2,7,10,5],"swapped_pitches":[2,7,12,7,12,2,7,2,5,12,5,7,2,7,10,5],"shift_direction":1,"question_num":81,"has_decoy":false,"subject":"S1C1660","sona":"41578","block":1,"time":"2021-09-22T22:34:39.085Z"},{"rt":4561.0999999940395,"stimulus":"[A] option 1, [L] option 2, [G] neither","key_press":65,"name":"choice","trial_type":"html-keyboard-response","trial_index":114,"time_elapsed":495406,"internal_node_id":"0.0-114.0","response":"1st","certainty":"high","char":"A","transposition":-2,"order":["shifted","swapped"],"probe_pitches":[9,7,12,4,9,4,2,14,4,9,4,9,7,2,12,9],"shifted_pitches":[9,7,12,4,9,4,2,15,4,9,4,9,7,2,12,9],"swapped_pitches":[9,7,12,4,9,4,2,4,14,9,4,9,7,2,12,9],"shift_direction":1,"question_num":91,"has_decoy":false,"subject":"S1C1660","sona":"41578","block":1,"time":"2021-09-22T22:34:39.085Z"},{"rt":2859.100000023842,"stimulus":"[A] option 1, [L] option 2, [G] neither","key_press":65,"name":"choice","trial_type":"html-keyboard-response","trial_index":125,"time_elapsed":524173,"internal_node_id":"0.0-125.0","response":"1st","certainty":"high","char":"A","transposition":2,"order":["shifted","swapped"],"probe_pitches":[11,9,3,0,2,3,-1,0,4,-1,9,0,6,11,9,7],"shifted_pitches":[11,9,3,0,2,3,-1,1,4,-1,9,0,6,11,9,7],"swapped_pitches":[11,9,3,0,2,3,-1,4,0,-1,9,0,6,11,9,7],"shift_direction":1,"question_num":101,"has_decoy":false,"subject":"S1C1660","sona":"41578","block":1,"time":"2021-09-22T22:34:39.085Z"},{"rt":1620.699999988079,"stimulus":"[A] option 1, [L] option 2, [G] neither","key_press":76,"name":"choice","trial_type":"html-keyboard-response","trial_index":136,"time_elapsed":549333,"internal_node_id":"0.0-136.0","response":"2nd","certainty":"high","char":"L","transposition":-2,"order":["swapped","shifted"],"probe_pitches":[14,12,7,5,10,5,12,14,2,10,12,7,12,5,12,2],"shifted_pitches":[14,12,7,5,10,5,12,13,2,10,12,7,12,5,12,2],"swapped_pitches":[14,12,7,5,10,5,12,2,14,10,12,7,12,5,12,2],"shift_direction":-1,"question_num":111,"has_decoy":false,"subject":"S1C1660","sona":"41578","block":1,"time":"2021-09-22T22:34:39.085Z"},{"rt":5801.199999988079,"stimulus":"[A] option 1, [L] option 2, [G] neither","key_press":71,"name":"choice","trial_type":"html-keyboard-response","trial_index":147,"time_elapsed":579436,"internal_node_id":"0.0-147.0","response":"neither","certainty":"high","char":"G","transposition":-2,"order":["swapped","shifted"],"probe_pitches":[1,7,10,5,6,5,8,0,3,9,-1,10,8,7,0,8],"shifted_pitches":[1,7,10,5,6,5,8,0,2,9,-1,10,8,7,0,8],"swapped_pitches":[1,7,10,5,6,5,8,3,0,9,-1,10,8,7,0,8],"shift_direction":-1,"question_num":121,"has_decoy":false,"subject":"S1C1660","sona":"41578","block":1,"time":"2021-09-22T22:34:39.085Z"},{"rt":1602.699999988079,"stimulus":"[A] option 1, [L] option 2, [G] neither","key_press":65,"name":"choice","trial_type":"html-keyboard-response","trial_index":158,"time_elapsed":605475,"internal_node_id":"0.0-158.0","response":"1st","certainty":"high","char":"A","transposition":1,"order":["shifted","swapped"],"probe_pitches":[14,9,2,4,2,6,9,14,4,9,6,11,2,6,9,11],"shifted_pitches":[14,9,2,4,2,6,9,14,5,9,6,11,2,6,9,11],"swapped_pitches":[14,9,2,4,2,6,9,4,14,9,6,11,2,6,9,11],"shift_direction":1,"question_num":131,"has_decoy":false,"subject":"S1C1660","sona":"41578","block":1,"time":"2021-09-22T22:34:39.085Z"},{"rt":2488.9000000059605,"stimulus":"[A] option 1, [L] option 2, [G] neither","key_press":65,"name":"choice","trial_type":"html-keyboard-response","trial_index":169,"time_elapsed":634490,"internal_node_id":"0.0-169.0","response":"1st","certainty":"high","char":"A","transposition":2,"order":["shifted","swapped"],"probe_pitches":[12,7,12,14,7,9,7,9,5,14,9,7,2,14,5,12],"shifted_pitches":[12,7,12,14,7,9,7,9,4,14,9,7,2,14,5,12],"swapped_pitches":[12,7,12,14,7,9,7,5,9,14,9,7,2,14,5,12],"shift_direction":-1,"question_num":141,"has_decoy":false,"subject":"S1C1660","sona":"41578","block":1,"time":"2021-09-22T22:34:39.085Z"},{"rt":1831.5,"stimulus":"[A] option 1, [L] option 2, [G] neither","key_press":65,"name":"choice","trial_type":"html-keyboard-response","trial_index":180,"time_elapsed":659761,"internal_node_id":"0.0-180.0","response":"1st","certainty":"high","char":"A","transposition":-3,"order":["shifted","swapped"],"probe_pitches":[11,5,2,-1,3,7,3,5,1,10,9,1,2,5,1,9],"shifted_pitches":[11,5,2,-1,3,7,3,6,1,10,9,1,2,5,1,9],"swapped_pitches":[11,5,2,-1,3,7,3,1,5,10,9,1,2,5,1,9],"shift_direction":1,"question_num":151,"has_decoy":false,"subject":"S1C1660","sona":"41578","block":1,"time":"2021-09-22T22:34:39.085Z"},{"rt":6911.300000011921,"stimulus":"[A] option 1, [L] option 2, [G] neither","key_press":76,"name":"choice","trial_type":"html-keyboard-response","trial_index":191,"time_elapsed":689536,"internal_node_id":"0.0-191.0","response":"2nd","certainty":"high","char":"L","transposition":0,"order":["swapped","shifted"],"probe_pitches":[3,1,-1,6,1,0,8,0,6,8,4,8,9,4,8,6],"shifted_pitches":[3,1,-1,6,1,0,8,0,5,8,4,8,9,4,8,6],"swapped_pitches":[3,1,-1,6,1,0,8,6,0,8,4,8,9,4,8,6],"shift_direction":-1,"question_num":161,"has_decoy":false,"subject":"S1C1660","sona":"41578","block":1,"time":"2021-09-22T22:34:39.085Z"},{"rt":1816.9000000059605,"stimulus":"[A] option 1, [L] option 2, [G] neither","key_press":65,"name":"choice","trial_type":"html-keyboard-response","trial_index":202,"time_elapsed":714719,"internal_node_id":"0.0-202.0","response":"1st","certainty":"high","char":"A","transposition":1,"order":["shifted","swapped"],"probe_pitches":[1,-1,2,10,11,5,8,2,-1,9,11,8,1,5,10,6],"shifted_pitches":[1,-1,2,10,11,5,8,3,-1,9,11,8,1,5,10,6],"swapped_pitches":[1,-1,2,10,11,5,8,-1,2,9,11,8,1,5,10,6],"shift_direction":1,"question_num":171,"has_decoy":false,"subject":"S1C1660","sona":"41578","block":1,"time":"2021-09-22T22:34:39.085Z"},{"rt":6103.9000000059605,"stimulus":"[A] option 1, [L] option 2, [G] neither","key_press":76,"name":"choice","trial_type":"html-keyboard-response","trial_index":213,"time_elapsed":744662,"internal_node_id":"0.0-213.0","response":"2nd","certainty":"high","char":"L","transposition":-3,"order":["swapped","shifted"],"probe_pitches":[2,7,9,14,9,4,11,7,14,11,14,4,14,9,4,7],"shifted_pitches":[2,7,9,14,9,4,11,6,14,11,14,4,14,9,4,7],"swapped_pitches":[2,7,9,14,9,4,11,14,7,11,14,4,14,9,4,7],"shift_direction":-1,"question_num":181,"has_decoy":false,"subject":"S1C1660","sona":"41578","block":1,"time":"2021-09-22T22:34:39.085Z"},{"rt":5665.700000017881,"stimulus":"[A] option 1, [L] option 2, [G] neither","key_press":65,"name":"choice","trial_type":"html-keyboard-response","trial_index":224,"time_elapsed":774023,"internal_node_id":"0.0-224.0","response":"1st","certainty":"high","char":"A","transposition":-3,"order":["shifted","swapped"],"probe_pitches":[4,7,1,7,6,3,7,11,0,9,6,8,1,2,4,7],"shifted_pitches":[4,7,1,7,6,3,7,10,0,9,6,8,1,2,4,7],"swapped_pitches":[4,7,1,7,6,3,7,0,11,9,6,8,1,2,4,7],"shift_direction":-1,"question_num":191,"has_decoy":false,"subject":"S1C1660","sona":"41578","block":1,"time":"2021-09-22T22:34:39.085Z"}]