[{"rt":1983,"stimulus":"[A] option 1, [L] option 2, [G] neither","key_press":76,"name":"choice","trial_type":"html-keyboard-response","trial_index":10,"time_elapsed":34403,"internal_node_id":"0.0-10.0","subject":"S1C1660","sona":"41578","block":2,"time":"2021-09-22T22:44:16.888Z","response":"2nd","certainty":"high","char":"L","transposition":-2,"order":["shifted","swapped"],"probe_pitches":[11,5,8,3,2,7,9,11,3,8,12,7,6,2,8,9],"shifted_pitches":[11,5,8,3,2,7,9,10,3,8,12,7,6,2,8,9],"swapped_pitches":[11,5,8,3,2,7,9,3,11,8,12,7,6,2,8,9],"shift_direction":-1,"question_num":1,"has_decoy":false},{"rt":1684.199999988079,"stimulus":"[A] option 1, [L] option 2, [G] neither","key_press":76,"name":"choice","trial_type":"html-keyboard-response","trial_index":21,"time_elapsed":60154,"internal_node_id":"0.0-21.0","subject":"S1C1660","sona":"41578","block":2,"time":"2021-09-22T22:44:16.888Z","response":"2nd","certainty":"high","char":"L","transposition":0,"order":["swapped","shifted"],"probe_pitches":[2,-2,0,5,-2,2,10,-2,7,5,0,-2,2,10,-2,7],"shifted_pitches":[2,-2,0,5,-2,2,10,-2,8,5,0,-2,2,10,-2,7],"swapped_pitches":[2,-2,0,5,-2,2,10,7,-2,5,0,-2,2,10,-2,7],"shift_direction":1,"question_num":11,"has_decoy":false},{"rt":1408.9000000059605,"stimulus":"[A] option 1, [L] option 2, [G] neither","key_press":65,"name":"choice","trial_type":"html-keyboard-response","trial_index":32,"time_elapsed":85194,"internal_node_id":"0.0-32.0","subject":"S1C1660","sona":"41578","block":2,"time":"2021-09-22T22:44:16.888Z","response":"1st","certainty":"high","char":"A","transposition":-1,"order":["shifted","swapped"],"probe_pitches":[3,0,-2,3,10,5,7,-2,0,5,3,0,7,0,10,3],"shifted_pitches":[3,0,-2,3,10,5,7,-2,1,5,3,0,7,0,10,3],"swapped_pitches":[3,0,-2,3,10,5,7,0,-2,5,3,0,7,0,10,3],"shift_direction":1,"question_num":21,"has_decoy":false},{"rt":7512.399999976158,"stimulus":"[A] option 1, [L] option 2, [G] neither","key_press":71,"name":"choice","trial_type":"html-keyboard-response","trial_index":43,"time_elapsed":116954,"internal_node_id":"0.0-43.0","subject":"S1C1660","sona":"41578","block":2,"time":"2021-09-22T22:44:16.888Z","response":"neither","certainty":"high","char":"G","transposition":-1,"order":["swapped","shifted"],"probe_pitches":[10,7,8,6,4,6,13,10,2,7,9,2,12,7,12,6],"shifted_pitches":[10,7,8,6,4,6,13,11,2,7,9,2,12,7,12,6],"swapped_pitches":[10,7,8,6,4,6,13,2,10,7,9,2,12,7,12,6],"shift_direction":1,"question_num":31,"has_decoy":false},{"rt":1295,"stimulus":"[A] option 1, [L] option 2, [G] neither","key_press":76,"name":"choice","trial_type":"html-keyboard-response","trial_index":54,"time_elapsed":141889,"internal_node_id":"0.0-54.0","subject":"S1C1660","sona":"41578","block":2,"time":"2021-09-22T22:44:16.888Z","response":"2nd","certainty":"high","char":"L","transposition":-2,"order":["swapped","shifted"],"probe_pitches":[1,6,1,3,8,-2,8,3,1,-2,8,1,10,8,1,3],"shifted_pitches":[1,6,1,3,8,-2,8,2,1,-2,8,1,10,8,1,3],"swapped_pitches":[1,6,1,3,8,-2,8,1,3,-2,8,1,10,8,1,3],"shift_direction":-1,"question_num":41,"has_decoy":false},{"rt":1374.5,"stimulus":"[A] option 1, [L] option 2, [G] neither","key_press":76,"name":"choice","trial_type":"html-keyboard-response","trial_index":65,"time_elapsed":166184,"internal_node_id":"0.0-65.0","subject":"S1C1660","sona":"41578","block":2,"time":"2021-09-22T22:44:16.888Z","response":"2nd","certainty":"high","char":"L","transposition":-2,"order":["swapped","shifted"],"probe_pitches":[10,5,1,3,10,5,3,8,1,10,-2,5,3,8,-2,8],"shifted_pitches":[10,5,1,3,10,5,3,9,1,10,-2,5,3,8,-2,8],"swapped_pitches":[10,5,1,3,10,5,3,1,8,10,-2,5,3,8,-2,8],"shift_direction":1,"question_num":51,"has_decoy":false},{"rt":1912.5999999940395,"stimulus":"[A] option 1, [L] option 2, [G] neither","key_press":65,"name":"choice","trial_type":"html-keyboard-response","trial_index":76,"time_elapsed":194439,"internal_node_id":"0.0-76.0","subject":"S1C1660","sona":"41578","block":2,"time":"2021-09-22T22:44:16.888Z","response":"1st","certainty":"high","char":"A","transposition":-1,"order":["shifted","swapped"],"probe_pitches":[0,-2,2,-2,5,7,5,7,-2,5,-2,10,0,10,2,-2],"shifted_pitches":[0,-2,2,-2,5,7,5,8,-2,5,-2,10,0,10,2,-2],"swapped_pitches":[0,-2,2,-2,5,7,5,-2,7,5,-2,10,0,10,2,-2],"shift_direction":1,"question_num":61,"has_decoy":false},{"rt":836.2999999821186,"stimulus":"[A] option 1, [L] option 2, [G] neither","key_press":76,"name":"choice","trial_type":"html-keyboard-response","trial_index":87,"time_elapsed":218718,"internal_node_id":"0.0-87.0","subject":"S1C1660","sona":"41578","block":2,"time":"2021-09-22T22:44:16.888Z","response":"2nd","certainty":"high","char":"L","transposition":1,"order":["swapped","shifted"],"probe_pitches":[8,10,5,0,8,0,5,10,3,8,3,5,10,0,-2,5],"shifted_pitches":[8,10,5,0,8,0,5,11,3,8,3,5,10,0,-2,5],"swapped_pitches":[8,10,5,0,8,0,5,3,10,8,3,5,10,0,-2,5],"shift_direction":1,"question_num":71,"has_decoy":false},{"rt":1278,"stimulus":"[A] option 1, [L] option 2, [G] neither","key_press":65,"name":"choice","trial_type":"html-keyboard-response","trial_index":98,"time_elapsed":243437,"internal_node_id":"0.0-98.0","subject":"S1C1660","sona":"41578","block":2,"time":"2021-09-22T22:44:16.888Z","response":"1st","certainty":"high","char":"A","transposition":-3,"order":["shifted","swapped"],"probe_pitches":[3,-2,3,5,7,-2,5,0,-2,3,0,7,10,3,7,0],"shifted_pitches":[3,-2,3,5,7,-2,5,0,-3,3,0,7,10,3,7,0],"swapped_pitches":[3,-2,3,5,7,-2,5,-2,0,3,0,7,10,3,7,0],"shift_direction":-1,"question_num":81,"has_decoy":false},{"rt":1737.199999988079,"stimulus":"[A] option 1, [L] option 2, [G] neither","key_press":71,"name":"choice","trial_type":"html-keyboard-response","trial_index":109,"time_elapsed":268453,"internal_node_id":"0.0-109.0","subject":"S1C1660","sona":"41578","block":2,"time":"2021-09-22T22:44:16.888Z","response":"neither","certainty":"high","char":"G","transposition":-3,"order":["swapped","shifted"],"probe_pitches":[6,8,3,6,11,6,5,9,11,10,7,13,8,11,4,6],"shifted_pitches":[6,8,3,6,11,6,5,9,12,10,7,13,8,11,4,6],"swapped_pitches":[6,8,3,6,11,6,5,11,9,10,7,13,8,11,4,6],"shift_direction":1,"question_num":91,"has_decoy":false},{"rt":2201.4000000059605,"stimulus":"[A] option 1, [L] option 2, [G] neither","key_press":65,"name":"choice","trial_type":"html-keyboard-response","trial_index":120,"time_elapsed":294220,"internal_node_id":"0.0-120.0","subject":"S1C1660","sona":"41578","block":2,"time":"2021-09-22T22:44:16.888Z","response":"1st","certainty":"high","char":"A","transposition":-2,"order":["swapped","shifted"],"probe_pitches":[7,9,5,12,5,9,3,12,7,9,12,2,7,5,14,7],"shifted_pitches":[7,9,5,12,5,9,3,12,6,9,12,2,7,5,14,7],"swapped_pitches":[7,9,5,12,5,9,3,7,12,9,12,2,7,5,14,7],"shift_direction":-1,"question_num":101,"has_decoy":false},{"rt":3628.5999999940395,"stimulus":"[A] option 1, [L] option 2, [G] neither","key_press":71,"name":"choice","trial_type":"html-keyboard-response","trial_index":131,"time_elapsed":322931,"internal_node_id":"0.0-131.0","subject":"S1C1660","sona":"41578","block":2,"time":"2021-09-22T22:44:16.888Z","response":"neither","certainty":"high","char":"G","transposition":2,"order":["swapped","shifted"],"probe_pitches":[5,4,9,12,9,3,5,10,12,3,10,8,14,9,4,2],"shifted_pitches":[5,4,9,12,9,3,5,10,13,3,10,8,14,9,4,2],"swapped_pitches":[5,4,9,12,9,3,5,12,10,3,10,8,14,9,4,2],"shift_direction":1,"question_num":111,"has_decoy":false},{"rt":1211.5999999940395,"stimulus":"[A] option 1, [L] option 2, [G] neither","key_press":65,"name":"choice","trial_type":"html-keyboard-response","trial_index":142,"time_elapsed":347155,"internal_node_id":"0.0-142.0","subject":"S1C1660","sona":"41578","block":2,"time":"2021-09-22T22:44:16.888Z","response":"1st","certainty":"high","char":"A","transposition":1,"order":["shifted","swapped"],"probe_pitches":[2,8,14,13,7,13,10,14,6,10,3,10,6,9,7,2],"shifted_pitches":[2,8,14,13,7,13,10,14,5,10,3,10,6,9,7,2],"swapped_pitches":[2,8,14,13,7,13,10,6,14,10,3,10,6,9,7,2],"shift_direction":-1,"question_num":121,"has_decoy":false},{"rt":915.8000000119209,"stimulus":"[A] option 1, [L] option 2, [G] neither","key_press":65,"name":"choice","trial_type":"html-keyboard-response","trial_index":153,"time_elapsed":370946,"internal_node_id":"0.0-153.0","subject":"S1C1660","sona":"41578","block":2,"time":"2021-09-22T22:44:16.888Z","response":"1st","certainty":"high","char":"A","transposition":-3,"order":["shifted","swapped"],"probe_pitches":[-2,1,-2,6,10,6,1,3,8,-2,8,-2,8,3,1,-2],"shifted_pitches":[-2,1,-2,6,10,6,1,3,7,-2,8,-2,8,3,1,-2],"swapped_pitches":[-2,1,-2,6,10,6,1,8,3,-2,8,-2,8,3,1,-2],"shift_direction":-1,"question_num":131,"has_decoy":false},{"rt":1737.0999999940395,"stimulus":"[A] option 1, [L] option 2, [G] neither","key_press":65,"name":"choice","trial_type":"html-keyboard-response","trial_index":164,"time_elapsed":395321,"internal_node_id":"0.0-164.0","subject":"S1C1660","sona":"41578","block":2,"time":"2021-09-22T22:44:16.888Z","response":"1st","certainty":"high","char":"A","transposition":2,"order":["shifted","swapped"],"probe_pitches":[8,3,8,10,3,5,8,3,5,10,3,-2,8,1,8,3],"shifted_pitches":[8,3,8,10,3,5,8,3,4,10,3,-2,8,1,8,3],"swapped_pitches":[8,3,8,10,3,5,8,5,3,10,3,-2,8,1,8,3],"shift_direction":-1,"question_num":141,"has_decoy":false},{"rt":2624.9000000059605,"stimulus":"[A] option 1, [L] option 2, [G] neither","key_press":71,"name":"choice","trial_type":"html-keyboard-response","trial_index":175,"time_elapsed":421721,"internal_node_id":"0.0-175.0","subject":"S1C1660","sona":"41578","block":2,"time":"2021-09-22T22:44:16.888Z","response":"neither","certainty":"high","char":"G","transposition":-1,"order":["shifted","swapped"],"probe_pitches":[10,13,6,3,6,2,10,8,4,12,14,3,14,3,10,12],"shifted_pitches":[10,13,6,3,6,2,10,9,4,12,14,3,14,3,10,12],"swapped_pitches":[10,13,6,3,6,2,10,4,8,12,14,3,14,3,10,12],"shift_direction":1,"question_num":151,"has_decoy":false},{"rt":1402.9000000059605,"stimulus":"[A] option 1, [L] option 2, [G] neither","key_press":65,"name":"choice","trial_type":"html-keyboard-response","trial_index":186,"time_elapsed":446311,"internal_node_id":"0.0-186.0","subject":"S1C1660","sona":"41578","block":2,"time":"2021-09-22T22:44:16.888Z","response":"1st","certainty":"high","char":"A","transposition":0,"order":["swapped","shifted"],"probe_pitches":[13,10,3,10,9,5,14,9,2,4,9,6,13,3,7,4],"shifted_pitches":[13,10,3,10,9,5,14,8,2,4,9,6,13,3,7,4],"swapped_pitches":[13,10,3,10,9,5,14,2,9,4,9,6,13,3,7,4],"shift_direction":-1,"question_num":161,"has_decoy":false},{"rt":2285.199999988079,"stimulus":"[A] option 1, [L] option 2, [G] neither","key_press":76,"name":"choice","trial_type":"html-keyboard-response","trial_index":197,"time_elapsed":472943,"internal_node_id":"0.0-197.0","subject":"S1C1660","sona":"41578","block":2,"time":"2021-09-22T22:44:16.888Z","response":"2nd","certainty":"high","char":"L","transposition":3,"order":["swapped","shifted"],"probe_pitches":[5,10,8,10,5,0,-2,3,8,-2,5,10,-2,8,-2,5],"shifted_pitches":[5,10,8,10,5,0,-2,2,8,-2,5,10,-2,8,-2,5],"swapped_pitches":[5,10,8,10,5,0,-2,8,3,-2,5,10,-2,8,-2,5],"shift_direction":-1,"question_num":171,"has_decoy":false},{"rt":1562.8999999761581,"stimulus":"[A] option 1, [L] option 2, [G] neither","key_press":65,"name":"choice","trial_type":"html-keyboard-response","trial_index":208,"time_elapsed":498103,"internal_node_id":"0.0-208.0","subject":"S1C1660","sona":"41578","block":2,"time":"2021-09-22T22:44:16.888Z","response":"1st","certainty":"high","char":"A","transposition":3,"order":["shifted","swapped"],"probe_pitches":[13,9,6,11,10,14,9,14,3,9,12,14,13,8,13,7],"shifted_pitches":[13,9,6,11,10,14,9,14,4,9,12,14,13,8,13,7],"swapped_pitches":[13,9,6,11,10,14,9,3,14,9,12,14,13,8,13,7],"shift_direction":1,"question_num":181,"has_decoy":false},{"rt":13881,"stimulus":"[A] option 1, [L] option 2, [G] neither","key_press":71,"name":"choice","trial_type":"html-keyboard-response","trial_index":219,"time_elapsed":535341,"internal_node_id":"0.0-219.0","subject":"S1C1660","sona":"41578","block":2,"time":"2021-09-22T22:44:16.888Z","response":"neither","certainty":"high","char":"G","transposition":-3,"order":["shifted","swapped"],"probe_pitches":[10,6,3,5,6,3,6,8,4,3,10,6,10,11,9,10],"shifted_pitches":[10,6,3,5,6,3,6,7,4,3,10,6,10,11,9,10],"swapped_pitches":[10,6,3,5,6,3,6,4,8,3,10,6,10,11,9,10],"shift_direction":-1,"question_num":191,"has_decoy":false}]