[{"rt":1564.0999999940395,"stimulus":"[A] option 1, [L] option 2, [G] neither","key_press":65,"name":"choice","trial_type":"html-keyboard-response","trial_index":10,"time_elapsed":28279,"internal_node_id":"0.0-10.0","subject":"S1C1660","sona":"41578","block":4,"time":"2021-09-22T23:02:43.751Z","response":"1st","certainty":"high","char":"A","transposition":2,"order":["shifted","swapped"],"probe_pitches":[-2,2,-3,-2,-1,7,4,5,2,6,4,9,1,0,9,7],"shifted_pitches":[-2,2,-3,-2,-1,7,4,5,3,6,4,9,1,0,9,7],"swapped_pitches":[-2,2,-3,-2,-1,7,4,2,5,6,4,9,1,0,9,7],"shift_direction":1,"question_num":1,"has_decoy":false},{"rt":875.0999999940395,"stimulus":"[A] option 1, [L] option 2, [G] neither","key_press":65,"name":"choice","trial_type":"html-keyboard-response","trial_index":21,"time_elapsed":52470,"internal_node_id":"0.0-21.0","subject":"S1C1660","sona":"41578","block":4,"time":"2021-09-22T23:02:43.751Z","response":"1st","certainty":"high","char":"A","transposition":-1,"order":["swapped","shifted"],"probe_pitches":[3,7,4,6,9,0,9,1,6,9,-1,-3,3,1,-1,7],"shifted_pitches":[3,7,4,6,9,0,9,2,6,9,-1,-3,3,1,-1,7],"swapped_pitches":[3,7,4,6,9,0,9,6,1,9,-1,-3,3,1,-1,7],"shift_direction":1,"question_num":11,"has_decoy":false},{"rt":1634.4000000059605,"stimulus":"[A] option 1, [L] option 2, [G] neither","key_press":71,"name":"choice","trial_type":"html-keyboard-response","trial_index":32,"time_elapsed":77062,"internal_node_id":"0.0-32.0","subject":"S1C1660","sona":"41578","block":4,"time":"2021-09-22T23:02:43.751Z","response":"neither","certainty":"high","char":"G","transposition":-2,"order":["shifted","swapped"],"probe_pitches":[8,6,0,8,9,1,6,2,4,-2,9,3,0,3,2,-2],"shifted_pitches":[8,6,0,8,9,1,6,2,5,-2,9,3,0,3,2,-2],"swapped_pitches":[8,6,0,8,9,1,6,4,2,-2,9,3,0,3,2,-2],"shift_direction":1,"question_num":21,"has_decoy":false},{"rt":6426.5,"stimulus":"[A] option 1, [L] option 2, [G] neither","key_press":76,"name":"choice","trial_type":"html-keyboard-response","trial_index":43,"time_elapsed":106717,"internal_node_id":"0.0-43.0","subject":"S1C1660","sona":"41578","block":4,"time":"2021-09-22T23:02:43.751Z","response":"2nd","certainty":"high","char":"L","transposition":-3,"order":["shifted","swapped"],"probe_pitches":[10,5,3,5,0,10,3,8,5,-2,5,10,0,10,-2,3],"shifted_pitches":[10,5,3,5,0,10,3,7,5,-2,5,10,0,10,-2,3],"swapped_pitches":[10,5,3,5,0,10,3,5,8,-2,5,10,0,10,-2,3],"shift_direction":-1,"question_num":31,"has_decoy":false},{"rt":1496.2999999821186,"stimulus":"[A] option 1, [L] option 2, [G] neither","key_press":71,"name":"choice","trial_type":"html-keyboard-response","trial_index":54,"time_elapsed":133125,"internal_node_id":"0.0-54.0","subject":"S1C1660","sona":"41578","block":4,"time":"2021-09-22T23:02:43.751Z","response":"neither","certainty":"high","char":"G","transposition":-1,"order":["swapped","shifted"],"probe_pitches":[7,2,1,9,4,-3,6,0,7,5,3,4,9,7,3,-2],"shifted_pitches":[7,2,1,9,4,-3,6,0,8,5,3,4,9,7,3,-2],"swapped_pitches":[7,2,1,9,4,-3,6,7,0,5,3,4,9,7,3,-2],"shift_direction":1,"question_num":41,"has_decoy":false},{"rt":1193.5,"stimulus":"[A] option 1, [L] option 2, [G] neither","key_press":76,"name":"choice","trial_type":"html-keyboard-response","trial_index":65,"time_elapsed":160939,"internal_node_id":"0.0-65.0","subject":"S1C1660","sona":"41578","block":4,"time":"2021-09-22T23:02:43.751Z","response":"2nd","certainty":"high","char":"L","transposition":1,"order":["shifted","swapped"],"probe_pitches":[1,2,1,2,1,4,-3,0,-2,6,3,7,-2,4,3,7],"shifted_pitches":[1,2,1,2,1,4,-3,-1,-2,6,3,7,-2,4,3,7],"swapped_pitches":[1,2,1,2,1,4,-3,-2,0,6,3,7,-2,4,3,7],"shift_direction":-1,"question_num":51,"has_decoy":false},{"rt":2448.300000011921,"stimulus":"[A] option 1, [L] option 2, [G] neither","key_press":71,"name":"choice","trial_type":"html-keyboard-response","trial_index":76,"time_elapsed":187787,"internal_node_id":"0.0-76.0","subject":"S1C1660","sona":"41578","block":4,"time":"2021-09-22T23:02:43.751Z","response":"neither","certainty":"high","char":"G","transposition":-3,"order":["shifted","swapped"],"probe_pitches":[7,5,8,3,2,-2,-1,5,2,8,3,5,1,9,-1,9],"shifted_pitches":[7,5,8,3,2,-2,-1,4,2,8,3,5,1,9,-1,9],"swapped_pitches":[7,5,8,3,2,-2,-1,2,5,8,3,5,1,9,-1,9],"shift_direction":-1,"question_num":61,"has_decoy":false},{"rt":1995,"stimulus":"[A] option 1, [L] option 2, [G] neither","key_press":76,"name":"choice","trial_type":"html-keyboard-response","trial_index":87,"time_elapsed":214050,"internal_node_id":"0.0-87.0","subject":"S1C1660","sona":"41578","block":4,"time":"2021-09-22T23:02:43.751Z","response":"2nd","certainty":"high","char":"L","transposition":3,"order":["swapped","shifted"],"probe_pitches":[1,5,8,3,5,1,8,10,3,5,-2,10,5,3,-2,10],"shifted_pitches":[1,5,8,3,5,1,8,10,4,5,-2,10,5,3,-2,10],"swapped_pitches":[1,5,8,3,5,1,8,3,10,5,-2,10,5,3,-2,10],"shift_direction":1,"question_num":71,"has_decoy":false},{"rt":8134.5,"stimulus":"[A] option 1, [L] option 2, [G] neither","key_press":71,"name":"choice","trial_type":"html-keyboard-response","trial_index":98,"time_elapsed":245313,"internal_node_id":"0.0-98.0","subject":"S1C1660","sona":"41578","block":4,"time":"2021-09-22T23:02:43.751Z","response":"neither","certainty":"high","char":"G","transposition":0,"order":["shifted","swapped"],"probe_pitches":[-3,1,5,8,9,-1,4,0,8,-3,3,-3,9,0,4,0],"shifted_pitches":[-3,1,5,8,9,-1,4,0,7,-3,3,-3,9,0,4,0],"swapped_pitches":[-3,1,5,8,9,-1,4,8,0,-3,3,-3,9,0,4,0],"shift_direction":-1,"question_num":81,"has_decoy":false},{"rt":3277.800000011921,"stimulus":"[A] option 1, [L] option 2, [G] neither","key_press":65,"name":"choice","trial_type":"html-keyboard-response","trial_index":109,"time_elapsed":288696,"internal_node_id":"0.0-109.0","subject":"S1C1660","sona":"41578","block":4,"time":"2021-09-22T23:02:43.751Z","response":"1st","certainty":"high","char":"A","transposition":-1,"order":["shifted","swapped"],"probe_pitches":[5,10,5,2,10,0,10,7,2,5,-2,0,2,10,0,7],"shifted_pitches":[5,10,5,2,10,0,10,7,3,5,-2,0,2,10,0,7],"swapped_pitches":[5,10,5,2,10,0,10,2,7,5,-2,0,2,10,0,7],"shift_direction":1,"question_num":91,"has_decoy":false},{"rt":1205.1000000238419,"stimulus":"[A] option 1, [L] option 2, [G] neither","key_press":65,"name":"choice","trial_type":"html-keyboard-response","trial_index":120,"time_elapsed":313223,"internal_node_id":"0.0-120.0","subject":"S1C1660","sona":"41578","block":4,"time":"2021-09-22T23:02:43.751Z","response":"1st","certainty":"high","char":"A","transposition":0,"order":["shifted","swapped"],"probe_pitches":[8,10,3,8,1,6,8,3,10,6,1,6,10,3,-2,1],"shifted_pitches":[8,10,3,8,1,6,8,3,9,6,1,6,10,3,-2,1],"swapped_pitches":[8,10,3,8,1,6,8,10,3,6,1,6,10,3,-2,1],"shift_direction":-1,"question_num":101,"has_decoy":false},{"rt":1849,"stimulus":"[A] option 1, [L] option 2, [G] neither","key_press":71,"name":"choice","trial_type":"html-keyboard-response","trial_index":131,"time_elapsed":338487,"internal_node_id":"0.0-131.0","subject":"S1C1660","sona":"41578","block":4,"time":"2021-09-22T23:02:43.751Z","response":"neither","certainty":"high","char":"G","transposition":-2,"order":["swapped","shifted"],"probe_pitches":[2,-3,2,-1,7,3,7,5,8,9,-2,7,0,-3,0,2],"shifted_pitches":[2,-3,2,-1,7,3,7,6,8,9,-2,7,0,-3,0,2],"swapped_pitches":[2,-3,2,-1,7,3,7,8,5,9,-2,7,0,-3,0,2],"shift_direction":1,"question_num":111,"has_decoy":false},{"rt":1142.7999999821186,"stimulus":"[A] option 1, [L] option 2, [G] neither","key_press":76,"name":"choice","trial_type":"html-keyboard-response","trial_index":142,"time_elapsed":363374,"internal_node_id":"0.0-142.0","subject":"S1C1660","sona":"41578","block":4,"time":"2021-09-22T23:02:43.751Z","response":"2nd","certainty":"high","char":"L","transposition":3,"order":["swapped","shifted"],"probe_pitches":[3,6,-1,-3,3,-1,4,-2,2,3,2,-3,-2,8,-3,9],"shifted_pitches":[3,6,-1,-3,3,-1,4,-2,1,3,2,-3,-2,8,-3,9],"swapped_pitches":[3,6,-1,-3,3,-1,4,2,-2,3,2,-3,-2,8,-3,9],"shift_direction":-1,"question_num":121,"has_decoy":false},{"rt":925.5999999940395,"stimulus":"[A] option 1, [L] option 2, [G] neither","key_press":76,"name":"choice","trial_type":"html-keyboard-response","trial_index":153,"time_elapsed":387677,"internal_node_id":"0.0-153.0","subject":"S1C1660","sona":"41578","block":4,"time":"2021-09-22T23:02:43.751Z","response":"2nd","certainty":"high","char":"L","transposition":-2,"order":["swapped","shifted"],"probe_pitches":[2,5,2,5,0,2,5,2,-2,5,10,7,-2,7,10,2],"shifted_pitches":[2,5,2,5,0,2,5,2,-1,5,10,7,-2,7,10,2],"swapped_pitches":[2,5,2,5,0,2,5,-2,2,5,10,7,-2,7,10,2],"shift_direction":1,"question_num":131,"has_decoy":false},{"rt":1260.5999999940395,"stimulus":"[A] option 1, [L] option 2, [G] neither","key_press":76,"name":"choice","trial_type":"html-keyboard-response","trial_index":164,"time_elapsed":411740,"internal_node_id":"0.0-164.0","subject":"S1C1660","sona":"41578","block":4,"time":"2021-09-22T23:02:43.751Z","response":"2nd","certainty":"high","char":"L","transposition":1,"order":["swapped","shifted"],"probe_pitches":[-2,3,7,5,0,-2,3,7,0,5,10,5,3,7,-2,10],"shifted_pitches":[-2,3,7,5,0,-2,3,7,-1,5,10,5,3,7,-2,10],"swapped_pitches":[-2,3,7,5,0,-2,3,0,7,5,10,5,3,7,-2,10],"shift_direction":-1,"question_num":141,"has_decoy":false},{"rt":2165.5999999940395,"stimulus":"[A] option 1, [L] option 2, [G] neither","key_press":71,"name":"choice","trial_type":"html-keyboard-response","trial_index":175,"time_elapsed":437004,"internal_node_id":"0.0-175.0","subject":"S1C1660","sona":"41578","block":4,"time":"2021-09-22T23:02:43.751Z","response":"neither","certainty":"high","char":"G","transposition":-2,"order":["shifted","swapped"],"probe_pitches":[10,8,6,1,8,10,8,1,3,8,1,-2,1,6,1,3],"shifted_pitches":[10,8,6,1,8,10,8,0,3,8,1,-2,1,6,1,3],"swapped_pitches":[10,8,6,1,8,10,8,3,1,8,1,-2,1,6,1,3],"shift_direction":-1,"question_num":151,"has_decoy":false},{"rt":2082.5,"stimulus":"[A] option 1, [L] option 2, [G] neither","key_press":65,"name":"choice","trial_type":"html-keyboard-response","trial_index":186,"time_elapsed":464275,"internal_node_id":"0.0-186.0","subject":"S1C1660","sona":"41578","block":4,"time":"2021-09-22T23:02:43.751Z","response":"1st","certainty":"high","char":"A","transposition":-3,"order":["swapped","shifted"],"probe_pitches":[4,7,1,3,6,-1,9,1,7,-3,2,1,-2,6,1,9],"shifted_pitches":[4,7,1,3,6,-1,9,0,7,-3,2,1,-2,6,1,9],"swapped_pitches":[4,7,1,3,6,-1,9,7,1,-3,2,1,-2,6,1,9],"shift_direction":-1,"question_num":161,"has_decoy":false},{"rt":1691.8999999761581,"stimulus":"[A] option 1, [L] option 2, [G] neither","key_press":76,"name":"choice","trial_type":"html-keyboard-response","trial_index":197,"time_elapsed":490531,"internal_node_id":"0.0-197.0","subject":"S1C1660","sona":"41578","block":4,"time":"2021-09-22T23:02:43.751Z","response":"2nd","certainty":"high","char":"L","transposition":-1,"order":["swapped","shifted"],"probe_pitches":[1,3,10,3,5,-2,1,8,3,10,5,10,1,3,-2,3],"shifted_pitches":[1,3,10,3,5,-2,1,9,3,10,5,10,1,3,-2,3],"swapped_pitches":[1,3,10,3,5,-2,1,3,8,10,5,10,1,3,-2,3],"shift_direction":1,"question_num":171,"has_decoy":false},{"rt":6347.200000017881,"stimulus":"[A] option 1, [L] option 2, [G] neither","key_press":71,"name":"choice","trial_type":"html-keyboard-response","trial_index":208,"time_elapsed":523297,"internal_node_id":"0.0-208.0","subject":"S1C1660","sona":"41578","block":4,"time":"2021-09-22T23:02:43.751Z","response":"neither","certainty":"high","char":"G","transposition":2,"order":["swapped","shifted"],"probe_pitches":[8,5,3,5,3,0,-2,3,10,8,0,3,0,5,8,-2],"shifted_pitches":[8,5,3,5,3,0,-2,2,10,8,0,3,0,5,8,-2],"swapped_pitches":[8,5,3,5,3,0,-2,10,3,8,0,3,0,5,8,-2],"shift_direction":-1,"question_num":181,"has_decoy":false},{"rt":1564.9000000059605,"stimulus":"[A] option 1, [L] option 2, [G] neither","key_press":71,"name":"choice","trial_type":"html-keyboard-response","trial_index":219,"time_elapsed":570072,"internal_node_id":"0.0-219.0","subject":"S1C1660","sona":"41578","block":4,"time":"2021-09-22T23:02:43.751Z","response":"neither","certainty":"high","char":"G","transposition":-3,"order":["shifted","swapped"],"probe_pitches":[3,0,-2,3,5,0,-2,10,7,5,3,7,10,0,10,7],"shifted_pitches":[3,0,-2,3,5,0,-2,11,7,5,3,7,10,0,10,7],"swapped_pitches":[3,0,-2,3,5,0,-2,7,10,5,3,7,10,0,10,7],"shift_direction":1,"question_num":191,"has_decoy":false}]