[{"rt":941.6999999880791,"stimulus":"[A] option 1, [L] option 2, [G] neither","key_press":76,"name":"choice","trial_type":"html-keyboard-response","trial_index":10,"time_elapsed":45353,"internal_node_id":"0.0-10.0","subject":"S1C1660","sona":"41578","block":6,"time":"2021-09-22T23:21:15.288Z","response":"2nd","certainty":"high","char":"L","transposition":-3,"order":["swapped","shifted"],"probe_pitches":[8,5,3,8,1,10,1,8,3,10,1,5,1,10,1,-2],"shifted_pitches":[8,5,3,8,1,10,1,7,3,10,1,5,1,10,1,-2],"swapped_pitches":[8,5,3,8,1,10,1,3,8,10,1,5,1,10,1,-2],"shift_direction":-1,"question_num":1,"has_decoy":false},{"rt":1045.2999999821186,"stimulus":"[A] option 1, [L] option 2, [G] neither","key_press":76,"name":"choice","trial_type":"html-keyboard-response","trial_index":21,"time_elapsed":69984,"internal_node_id":"0.0-21.0","subject":"S1C1660","sona":"41578","block":6,"time":"2021-09-22T23:21:15.288Z","response":"2nd","certainty":"high","char":"L","transposition":1,"order":["swapped","shifted"],"probe_pitches":[0,5,-2,3,7,10,3,5,7,0,7,3,7,-2,10,-2],"shifted_pitches":[0,5,-2,3,7,10,3,5,6,0,7,3,7,-2,10,-2],"swapped_pitches":[0,5,-2,3,7,10,3,7,5,0,7,3,7,-2,10,-2],"shift_direction":-1,"question_num":11,"has_decoy":false},{"rt":859.3000000119209,"stimulus":"[A] option 1, [L] option 2, [G] neither","key_press":76,"name":"choice","trial_type":"html-keyboard-response","trial_index":32,"time_elapsed":98639,"internal_node_id":"0.0-32.0","subject":"S1C1660","sona":"41578","block":6,"time":"2021-09-22T23:21:15.288Z","response":"2nd","certainty":"high","char":"L","transposition":-2,"order":["swapped","shifted"],"probe_pitches":[8,6,1,3,-2,3,8,1,-2,10,6,3,1,6,1,6],"shifted_pitches":[8,6,1,3,-2,3,8,2,-2,10,6,3,1,6,1,6],"swapped_pitches":[8,6,1,3,-2,3,8,-2,1,10,6,3,1,6,1,6],"shift_direction":1,"question_num":21,"has_decoy":false},{"rt":3869.9000000059605,"stimulus":"[A] option 1, [L] option 2, [G] neither","key_press":71,"name":"choice","trial_type":"html-keyboard-response","trial_index":43,"time_elapsed":126143,"internal_node_id":"0.0-43.0","subject":"S1C1660","sona":"41578","block":6,"time":"2021-09-22T23:21:15.288Z","response":"neither","certainty":"high","char":"G","transposition":-1,"order":["shifted","swapped"],"probe_pitches":[0,-2,0,3,8,-2,0,8,10,-2,10,0,3,5,-2,10],"shifted_pitches":[0,-2,0,3,8,-2,0,7,10,-2,10,0,3,5,-2,10],"swapped_pitches":[0,-2,0,3,8,-2,0,10,8,-2,10,0,3,5,-2,10],"shift_direction":-1,"question_num":31,"has_decoy":false},{"rt":990.5,"stimulus":"[A] option 1, [L] option 2, [G] neither","key_press":71,"name":"choice","trial_type":"html-keyboard-response","trial_index":54,"time_elapsed":150854,"internal_node_id":"0.0-54.0","subject":"S1C1660","sona":"41578","block":6,"time":"2021-09-22T23:21:15.288Z","response":"neither","certainty":"high","char":"G","transposition":-2,"order":["swapped","shifted"],"probe_pitches":[10,9,2,4,1,6,9,1,4,8,3,6,9,4,3,0],"shifted_pitches":[10,9,2,4,1,6,9,1,5,8,3,6,9,4,3,0],"swapped_pitches":[10,9,2,4,1,6,9,4,1,8,3,6,9,4,3,0],"shift_direction":1,"question_num":41,"has_decoy":false},{"rt":1433.2000000178814,"stimulus":"[A] option 1, [L] option 2, [G] neither","key_press":65,"name":"choice","trial_type":"html-keyboard-response","trial_index":65,"time_elapsed":175117,"internal_node_id":"0.0-65.0","subject":"S1C1660","sona":"41578","block":6,"time":"2021-09-22T23:21:15.288Z","response":"1st","certainty":"high","char":"A","transposition":0,"order":["shifted","swapped"],"probe_pitches":[6,3,-1,7,-1,6,5,3,11,9,-1,0,3,10,0,7],"shifted_pitches":[6,3,-1,7,-1,6,5,2,11,9,-1,0,3,10,0,7],"swapped_pitches":[6,3,-1,7,-1,6,5,11,3,9,-1,0,3,10,0,7],"shift_direction":-1,"question_num":51,"has_decoy":false},{"rt":1606.300000011921,"stimulus":"[A] option 1, [L] option 2, [G] neither","key_press":65,"name":"choice","trial_type":"html-keyboard-response","trial_index":76,"time_elapsed":238155,"internal_node_id":"0.0-76.0","subject":"S1C1660","sona":"41578","block":6,"time":"2021-09-22T23:21:15.288Z","response":"1st","certainty":"high","char":"A","transposition":0,"order":["shifted","swapped"],"probe_pitches":[7,2,0,-2,2,5,10,2,5,0,2,0,10,0,5,2],"shifted_pitches":[7,2,0,-2,2,5,10,1,5,0,2,0,10,0,5,2],"swapped_pitches":[7,2,0,-2,2,5,10,5,2,0,2,0,10,0,5,2],"shift_direction":-1,"question_num":61,"has_decoy":false},{"rt":2423.5999999940395,"stimulus":"[A] option 1, [L] option 2, [G] neither","key_press":71,"name":"choice","trial_type":"html-keyboard-response","trial_index":87,"time_elapsed":263523,"internal_node_id":"0.0-87.0","subject":"S1C1660","sona":"41578","block":6,"time":"2021-09-22T23:21:15.288Z","response":"neither","certainty":"high","char":"G","transposition":-1,"order":["shifted","swapped"],"probe_pitches":[0,2,7,2,4,0,6,-1,11,6,9,11,3,-1,5,6],"shifted_pitches":[0,2,7,2,4,0,6,-1,10,6,9,11,3,-1,5,6],"swapped_pitches":[0,2,7,2,4,0,6,11,-1,6,9,11,3,-1,5,6],"shift_direction":-1,"question_num":71,"has_decoy":false},{"rt":1479.199999988079,"stimulus":"[A] option 1, [L] option 2, [G] neither","key_press":65,"name":"choice","trial_type":"html-keyboard-response","trial_index":98,"time_elapsed":290946,"internal_node_id":"0.0-98.0","subject":"S1C1660","sona":"41578","block":6,"time":"2021-09-22T23:21:15.288Z","response":"1st","certainty":"high","char":"A","transposition":-3,"order":["shifted","swapped"],"probe_pitches":[3,6,8,3,-2,1,10,8,-2,1,10,6,8,10,6,1],"shifted_pitches":[3,6,8,3,-2,1,10,8,-1,1,10,6,8,10,6,1],"swapped_pitches":[3,6,8,3,-2,1,10,-2,8,1,10,6,8,10,6,1],"shift_direction":1,"question_num":81,"has_decoy":false},{"rt":891,"stimulus":"[A] option 1, [L] option 2, [G] neither","key_press":65,"name":"choice","trial_type":"html-keyboard-response","trial_index":109,"time_elapsed":314641,"internal_node_id":"0.0-109.0","subject":"S1C1660","sona":"41578","block":6,"time":"2021-09-22T23:21:15.288Z","response":"1st","certainty":"high","char":"A","transposition":1,"order":["swapped","shifted"],"probe_pitches":[9,3,5,7,5,6,5,1,7,0,-1,4,-1,0,2,3],"shifted_pitches":[9,3,5,7,5,6,5,1,8,0,-1,4,-1,0,2,3],"swapped_pitches":[9,3,5,7,5,6,5,7,1,0,-1,4,-1,0,2,3],"shift_direction":1,"question_num":91,"has_decoy":false},{"rt":909.2000000178814,"stimulus":"[A] option 1, [L] option 2, [G] neither","key_press":76,"name":"choice","trial_type":"html-keyboard-response","trial_index":120,"time_elapsed":338289,"internal_node_id":"0.0-120.0","subject":"S1C1660","sona":"41578","block":6,"time":"2021-09-22T23:21:15.288Z","response":"2nd","certainty":"high","char":"L","transposition":-2,"order":["swapped","shifted"],"probe_pitches":[5,1,8,5,8,1,8,3,10,-2,1,3,5,1,5,8],"shifted_pitches":[5,1,8,5,8,1,8,4,10,-2,1,3,5,1,5,8],"swapped_pitches":[5,1,8,5,8,1,8,10,3,-2,1,3,5,1,5,8],"shift_direction":1,"question_num":101,"has_decoy":false},{"rt":644.5999999940395,"stimulus":"[A] option 1, [L] option 2, [G] neither","key_press":65,"name":"choice","trial_type":"html-keyboard-response","trial_index":131,"time_elapsed":361584,"internal_node_id":"0.0-131.0","subject":"S1C1660","sona":"41578","block":6,"time":"2021-09-22T23:21:15.288Z","response":"1st","certainty":"high","char":"A","transposition":3,"order":["shifted","swapped"],"probe_pitches":[1,5,10,9,5,6,10,6,11,5,9,11,10,8,11,9],"shifted_pitches":[1,5,10,9,5,6,10,7,11,5,9,11,10,8,11,9],"swapped_pitches":[1,5,10,9,5,6,10,11,6,5,9,11,10,8,11,9],"shift_direction":1,"question_num":111,"has_decoy":false},{"rt":625.7000000178814,"stimulus":"[A] option 1, [L] option 2, [G] neither","key_press":65,"name":"choice","trial_type":"html-keyboard-response","trial_index":142,"time_elapsed":385159,"internal_node_id":"0.0-142.0","subject":"S1C1660","sona":"41578","block":6,"time":"2021-09-22T23:21:15.288Z","response":"1st","certainty":"high","char":"A","transposition":-1,"order":["shifted","swapped"],"probe_pitches":[-2,3,5,8,10,8,-2,0,5,8,10,0,10,8,5,-2],"shifted_pitches":[-2,3,5,8,10,8,-2,0,4,8,10,0,10,8,5,-2],"swapped_pitches":[-2,3,5,8,10,8,-2,5,0,8,10,0,10,8,5,-2],"shift_direction":-1,"question_num":121,"has_decoy":false},{"rt":690.6999999880791,"stimulus":"[A] option 1, [L] option 2, [G] neither","key_press":76,"name":"choice","trial_type":"html-keyboard-response","trial_index":153,"time_elapsed":408223,"internal_node_id":"0.0-153.0","subject":"S1C1660","sona":"41578","block":6,"time":"2021-09-22T23:21:15.288Z","response":"2nd","certainty":"high","char":"L","transposition":3,"order":["swapped","shifted"],"probe_pitches":[-2,0,7,10,3,7,0,-2,7,3,10,3,5,-2,3,-2],"shifted_pitches":[-2,0,7,10,3,7,0,-2,8,3,10,3,5,-2,3,-2],"swapped_pitches":[-2,0,7,10,3,7,0,7,-2,3,10,3,5,-2,3,-2],"shift_direction":1,"question_num":131,"has_decoy":false},{"rt":849.9000000059605,"stimulus":"[A] option 1, [L] option 2, [G] neither","key_press":65,"name":"choice","trial_type":"html-keyboard-response","trial_index":164,"time_elapsed":432150,"internal_node_id":"0.0-164.0","subject":"S1C1660","sona":"41578","block":6,"time":"2021-09-22T23:21:15.288Z","response":"1st","certainty":"high","char":"A","transposition":-1,"order":["shifted","swapped"],"probe_pitches":[9,8,6,11,7,0,11,9,4,0,2,7,-1,4,-1,9],"shifted_pitches":[9,8,6,11,7,0,11,9,3,0,2,7,-1,4,-1,9],"swapped_pitches":[9,8,6,11,7,0,11,4,9,0,2,7,-1,4,-1,9],"shift_direction":-1,"question_num":141,"has_decoy":false},{"rt":775.9000000059605,"stimulus":"[A] option 1, [L] option 2, [G] neither","key_press":76,"name":"choice","trial_type":"html-keyboard-response","trial_index":175,"time_elapsed":456093,"internal_node_id":"0.0-175.0","subject":"S1C1660","sona":"41578","block":6,"time":"2021-09-22T23:21:15.288Z","response":"2nd","certainty":"high","char":"L","transposition":-3,"order":["swapped","shifted"],"probe_pitches":[7,4,7,8,11,1,3,5,7,10,3,5,0,1,7,0],"shifted_pitches":[7,4,7,8,11,1,3,6,7,10,3,5,0,1,7,0],"swapped_pitches":[7,4,7,8,11,1,3,7,5,10,3,5,0,1,7,0],"shift_direction":1,"question_num":151,"has_decoy":false},{"rt":3696.300000011921,"stimulus":"[A] option 1, [L] option 2, [G] neither","key_press":71,"name":"choice","trial_type":"html-keyboard-response","trial_index":186,"time_elapsed":483877,"internal_node_id":"0.0-186.0","subject":"S1C1660","sona":"41578","block":6,"time":"2021-09-22T23:21:15.288Z","response":"neither","certainty":"high","char":"G","transposition":-3,"order":["shifted","swapped"],"probe_pitches":[-1,5,-1,3,5,1,10,11,3,6,2,11,0,11,0,1],"shifted_pitches":[-1,5,-1,3,5,1,10,11,4,6,2,11,0,11,0,1],"swapped_pitches":[-1,5,-1,3,5,1,10,3,11,6,2,11,0,11,0,1],"shift_direction":1,"question_num":161,"has_decoy":false},{"rt":1109.7000000178814,"stimulus":"[A] option 1, [L] option 2, [G] neither","key_press":76,"name":"choice","trial_type":"html-keyboard-response","trial_index":197,"time_elapsed":508412,"internal_node_id":"0.0-197.0","subject":"S1C1660","sona":"41578","block":6,"time":"2021-09-22T23:21:15.288Z","response":"2nd","certainty":"high","char":"L","transposition":-2,"order":["swapped","shifted"],"probe_pitches":[8,6,11,10,6,0,4,10,0,1,0,4,10,4,7,6],"shifted_pitches":[8,6,11,10,6,0,4,9,0,1,0,4,10,4,7,6],"swapped_pitches":[8,6,11,10,6,0,4,0,10,1,0,4,10,4,7,6],"shift_direction":-1,"question_num":171,"has_decoy":false},{"rt":3881.5,"stimulus":"[A] option 1, [L] option 2, [G] neither","key_press":71,"name":"choice","trial_type":"html-keyboard-response","trial_index":208,"time_elapsed":535299,"internal_node_id":"0.0-208.0","subject":"S1C1660","sona":"41578","block":6,"time":"2021-09-22T23:21:15.288Z","response":"neither","certainty":"high","char":"G","transposition":2,"order":["swapped","shifted"],"probe_pitches":[6,5,11,4,10,7,-1,2,5,4,10,2,4,9,6,9],"shifted_pitches":[6,5,11,4,10,7,-1,1,5,4,10,2,4,9,6,9],"swapped_pitches":[6,5,11,4,10,7,-1,5,2,4,10,2,4,9,6,9],"shift_direction":-1,"question_num":181,"has_decoy":false},{"rt":713,"stimulus":"[A] option 1, [L] option 2, [G] neither","key_press":65,"name":"choice","trial_type":"html-keyboard-response","trial_index":219,"time_elapsed":558818,"internal_node_id":"0.0-219.0","subject":"S1C1660","sona":"41578","block":6,"time":"2021-09-22T23:21:15.288Z","response":"1st","certainty":"high","char":"A","transposition":2,"order":["shifted","swapped"],"probe_pitches":[0,5,-2,2,0,2,0,-2,2,0,7,2,7,2,-2,2],"shifted_pitches":[0,5,-2,2,0,2,0,-2,3,0,7,2,7,2,-2,2],"swapped_pitches":[0,5,-2,2,0,2,0,2,-2,0,7,2,7,2,-2,2],"shift_direction":1,"question_num":191,"has_decoy":false}]