[{"rt":1818.2000000178814,"stimulus":"[A] option 1, [L] option 2, [G] neither","key_press":65,"name":"choice","trial_type":"html-keyboard-response","trial_index":10,"time_elapsed":32475,"internal_node_id":"0.0-10.0","subject":"S1C1660","sona":"41578","block":5,"time":"2021-09-22T23:11:51.768Z","response":"1st","certainty":"high","char":"A","transposition":-2,"order":["shifted","swapped"],"probe_pitches":[12,7,2,4,12,7,9,7,2,4,7,2,4,0,12,4],"shifted_pitches":[12,7,2,4,12,7,9,7,3,4,7,2,4,0,12,4],"swapped_pitches":[12,7,2,4,12,7,9,2,7,4,7,2,4,0,12,4],"shift_direction":1,"question_num":1,"has_decoy":false},{"rt":4591,"stimulus":"[A] option 1, [L] option 2, [G] neither","key_press":76,"name":"choice","trial_type":"html-keyboard-response","trial_index":21,"time_elapsed":60754,"internal_node_id":"0.0-21.0","subject":"S1C1660","sona":"41578","block":5,"time":"2021-09-22T23:11:51.768Z","response":"2nd","certainty":"high","char":"L","transposition":0,"order":["shifted","swapped"],"probe_pitches":[12,8,12,5,10,12,8,0,12,10,0,5,10,0,5,3],"shifted_pitches":[12,8,12,5,10,12,8,0,11,10,0,5,10,0,5,3],"swapped_pitches":[12,8,12,5,10,12,8,12,0,10,0,5,10,0,5,3],"shift_direction":-1,"question_num":11,"has_decoy":false},{"rt":2091.5,"stimulus":"[A] option 1, [L] option 2, [G] neither","key_press":76,"name":"choice","trial_type":"html-keyboard-response","trial_index":32,"time_elapsed":87617,"internal_node_id":"0.0-32.0","subject":"S1C1660","sona":"41578","block":5,"time":"2021-09-22T23:11:51.768Z","response":"2nd","certainty":"high","char":"L","transposition":3,"order":["swapped","shifted"],"probe_pitches":[10,8,5,3,0,3,5,10,0,8,0,12,8,3,8,5],"shifted_pitches":[10,8,5,3,0,3,5,9,0,8,0,12,8,3,8,5],"swapped_pitches":[10,8,5,3,0,3,5,0,10,8,0,12,8,3,8,5],"shift_direction":-1,"question_num":21,"has_decoy":false},{"rt":11921.199999988079,"stimulus":"[A] option 1, [L] option 2, [G] neither","key_press":71,"name":"choice","trial_type":"html-keyboard-response","trial_index":43,"time_elapsed":123480,"internal_node_id":"0.0-43.0","subject":"S1C1660","sona":"41578","block":5,"time":"2021-09-22T23:11:51.768Z","response":"neither","certainty":"high","char":"G","transposition":-1,"order":["swapped","shifted"],"probe_pitches":[7,2,9,5,0,5,12,0,7,12,9,7,5,7,5,9],"shifted_pitches":[7,2,9,5,0,5,12,-1,7,12,9,7,5,7,5,9],"swapped_pitches":[7,2,9,5,0,5,12,7,0,12,9,7,5,7,5,9],"shift_direction":-1,"question_num":31,"has_decoy":false},{"rt":1286.300000011921,"stimulus":"[A] option 1, [L] option 2, [G] neither","key_press":65,"name":"choice","trial_type":"html-keyboard-response","trial_index":54,"time_elapsed":150936,"internal_node_id":"0.0-54.0","subject":"S1C1660","sona":"41578","block":5,"time":"2021-09-22T23:11:51.768Z","response":"1st","certainty":"high","char":"A","transposition":-2,"order":["shifted","swapped"],"probe_pitches":[13,12,8,12,4,1,3,5,1,4,12,4,5,7,4,8],"shifted_pitches":[13,12,8,12,4,1,3,6,1,4,12,4,5,7,4,8],"swapped_pitches":[13,12,8,12,4,1,3,1,5,4,12,4,5,7,4,8],"shift_direction":1,"question_num":41,"has_decoy":false},{"rt":1754,"stimulus":"[A] option 1, [L] option 2, [G] neither","key_press":71,"name":"choice","trial_type":"html-keyboard-response","trial_index":65,"time_elapsed":175687,"internal_node_id":"0.0-65.0","subject":"S1C1660","sona":"41578","block":5,"time":"2021-09-22T23:11:51.768Z","response":"neither","certainty":"high","char":"G","transposition":-1,"order":["swapped","shifted"],"probe_pitches":[9,12,8,2,9,4,2,3,4,10,13,10,1,8,4,13],"shifted_pitches":[9,12,8,2,9,4,2,3,5,10,13,10,1,8,4,13],"swapped_pitches":[9,12,8,2,9,4,2,4,3,10,13,10,1,8,4,13],"shift_direction":1,"question_num":51,"has_decoy":false},{"rt":4164.800000011921,"stimulus":"[A] option 1, [L] option 2, [G] neither","key_press":65,"name":"choice","trial_type":"html-keyboard-response","trial_index":76,"time_elapsed":203030,"internal_node_id":"0.0-76.0","subject":"S1C1660","sona":"41578","block":5,"time":"2021-09-22T23:11:51.768Z","response":"1st","certainty":"high","char":"A","transposition":-1,"order":["swapped","shifted"],"probe_pitches":[4,2,4,2,9,4,12,4,7,0,12,9,7,12,9,7],"shifted_pitches":[4,2,4,2,9,4,12,5,7,0,12,9,7,12,9,7],"swapped_pitches":[4,2,4,2,9,4,12,7,4,0,12,9,7,12,9,7],"shift_direction":1,"question_num":61,"has_decoy":false},{"rt":1952,"stimulus":"[A] option 1, [L] option 2, [G] neither","key_press":71,"name":"choice","trial_type":"html-keyboard-response","trial_index":87,"time_elapsed":229045,"internal_node_id":"0.0-87.0","subject":"S1C1660","sona":"41578","block":5,"time":"2021-09-22T23:11:51.768Z","response":"neither","certainty":"high","char":"G","transposition":1,"order":["shifted","swapped"],"probe_pitches":[13,11,9,2,11,8,9,2,5,13,2,1,12,13,1,10],"shifted_pitches":[13,11,9,2,11,8,9,3,5,13,2,1,12,13,1,10],"swapped_pitches":[13,11,9,2,11,8,9,5,2,13,2,1,12,13,1,10],"shift_direction":1,"question_num":71,"has_decoy":false},{"rt":5064.4000000059605,"stimulus":"[A] option 1, [L] option 2, [G] neither","key_press":71,"name":"choice","trial_type":"html-keyboard-response","trial_index":98,"time_elapsed":258301,"internal_node_id":"0.0-98.0","subject":"S1C1660","sona":"41578","block":5,"time":"2021-09-22T23:11:51.768Z","response":"neither","certainty":"high","char":"G","transposition":-1,"order":["swapped","shifted"],"probe_pitches":[6,12,7,11,5,4,7,11,9,5,6,3,5,11,9,6],"shifted_pitches":[6,12,7,11,5,4,7,11,8,5,6,3,5,11,9,6],"swapped_pitches":[6,12,7,11,5,4,7,9,11,5,6,3,5,11,9,6],"shift_direction":-1,"question_num":81,"has_decoy":false},{"rt":1653.4000000059605,"stimulus":"[A] option 1, [L] option 2, [G] neither","key_press":71,"name":"choice","trial_type":"html-keyboard-response","trial_index":109,"time_elapsed":282556,"internal_node_id":"0.0-109.0","subject":"S1C1660","sona":"41578","block":5,"time":"2021-09-22T23:11:51.768Z","response":"neither","certainty":"high","char":"G","transposition":-2,"order":["shifted","swapped"],"probe_pitches":[6,1,6,10,11,7,3,8,5,12,7,13,1,10,7,11],"shifted_pitches":[6,1,6,10,11,7,3,8,4,12,7,13,1,10,7,11],"swapped_pitches":[6,1,6,10,11,7,3,5,8,12,7,13,1,10,7,11],"shift_direction":-1,"question_num":91,"has_decoy":false},{"rt":4162.4000000059605,"stimulus":"[A] option 1, [L] option 2, [G] neither","key_press":71,"name":"choice","trial_type":"html-keyboard-response","trial_index":120,"time_elapsed":309748,"internal_node_id":"0.0-120.0","subject":"S1C1660","sona":"41578","block":5,"time":"2021-09-22T23:11:51.768Z","response":"neither","certainty":"high","char":"G","transposition":-3,"order":["shifted","swapped"],"probe_pitches":[9,12,7,2,0,5,12,5,2,7,12,0,2,0,2,7],"shifted_pitches":[9,12,7,2,0,5,12,4,2,7,12,0,2,0,2,7],"swapped_pitches":[9,12,7,2,0,5,12,2,5,7,12,0,2,0,2,7],"shift_direction":-1,"question_num":101,"has_decoy":false},{"rt":1826,"stimulus":"[A] option 1, [L] option 2, [G] neither","key_press":65,"name":"choice","trial_type":"html-keyboard-response","trial_index":131,"time_elapsed":335506,"internal_node_id":"0.0-131.0","subject":"S1C1660","sona":"41578","block":5,"time":"2021-09-22T23:11:51.768Z","response":"1st","certainty":"high","char":"A","transposition":-3,"order":["shifted","swapped"],"probe_pitches":[12,10,6,12,11,13,11,8,7,5,13,2,12,1,10,8],"shifted_pitches":[12,10,6,12,11,13,11,9,7,5,13,2,12,1,10,8],"swapped_pitches":[12,10,6,12,11,13,11,7,8,5,13,2,12,1,10,8],"shift_direction":1,"question_num":111,"has_decoy":false},{"rt":1317.300000011921,"stimulus":"[A] option 1, [L] option 2, [G] neither","key_press":76,"name":"choice","trial_type":"html-keyboard-response","trial_index":142,"time_elapsed":360683,"internal_node_id":"0.0-142.0","subject":"S1C1660","sona":"41578","block":5,"time":"2021-09-22T23:11:51.768Z","response":"2nd","certainty":"high","char":"L","transposition":1,"order":["swapped","shifted"],"probe_pitches":[0,3,5,3,7,3,0,10,7,5,12,5,3,7,0,12],"shifted_pitches":[0,3,5,3,7,3,0,10,8,5,12,5,3,7,0,12],"swapped_pitches":[0,3,5,3,7,3,0,7,10,5,12,5,3,7,0,12],"shift_direction":1,"question_num":121,"has_decoy":false},{"rt":707.6000000238419,"stimulus":"[A] option 1, [L] option 2, [G] neither","key_press":76,"name":"choice","trial_type":"html-keyboard-response","trial_index":153,"time_elapsed":384994,"internal_node_id":"0.0-153.0","subject":"S1C1660","sona":"41578","block":5,"time":"2021-09-22T23:11:51.768Z","response":"2nd","certainty":"high","char":"L","transposition":2,"order":["swapped","shifted"],"probe_pitches":[0,2,0,7,12,7,10,12,0,7,5,2,10,0,12,5],"shifted_pitches":[0,2,0,7,12,7,10,12,-1,7,5,2,10,0,12,5],"swapped_pitches":[0,2,0,7,12,7,10,0,12,7,5,2,10,0,12,5],"shift_direction":-1,"question_num":131,"has_decoy":false},{"rt":1849.6000000238419,"stimulus":"[A] option 1, [L] option 2, [G] neither","key_press":65,"name":"choice","trial_type":"html-keyboard-response","trial_index":164,"time_elapsed":410072,"internal_node_id":"0.0-164.0","subject":"S1C1660","sona":"41578","block":5,"time":"2021-09-22T23:11:51.768Z","response":"1st","certainty":"high","char":"A","transposition":-2,"order":["shifted","swapped"],"probe_pitches":[10,7,12,7,5,2,0,12,10,7,5,7,0,10,12,7],"shifted_pitches":[10,7,12,7,5,2,0,13,10,7,5,7,0,10,12,7],"swapped_pitches":[10,7,12,7,5,2,0,10,12,7,5,7,0,10,12,7],"shift_direction":1,"question_num":141,"has_decoy":false},{"rt":2180.800000011921,"stimulus":"[A] option 1, [L] option 2, [G] neither","key_press":76,"name":"choice","trial_type":"html-keyboard-response","trial_index":175,"time_elapsed":437623,"internal_node_id":"0.0-175.0","subject":"S1C1660","sona":"41578","block":5,"time":"2021-09-22T23:11:51.768Z","response":"2nd","certainty":"high","char":"L","transposition":3,"order":["swapped","shifted"],"probe_pitches":[1,3,10,11,2,11,13,11,1,9,5,10,9,2,4,10],"shifted_pitches":[1,3,10,11,2,11,13,12,1,9,5,10,9,2,4,10],"swapped_pitches":[1,3,10,11,2,11,13,1,11,9,5,10,9,2,4,10],"shift_direction":1,"question_num":151,"has_decoy":false},{"rt":2439.7999999821186,"stimulus":"[A] option 1, [L] option 2, [G] neither","key_press":65,"name":"choice","trial_type":"html-keyboard-response","trial_index":186,"time_elapsed":464054,"internal_node_id":"0.0-186.0","subject":"S1C1660","sona":"41578","block":5,"time":"2021-09-22T23:11:51.768Z","response":"1st","certainty":"high","char":"A","transposition":2,"order":["swapped","shifted"],"probe_pitches":[10,8,1,8,5,10,4,5,8,12,6,4,6,1,11,5],"shifted_pitches":[10,8,1,8,5,10,4,5,7,12,6,4,6,1,11,5],"swapped_pitches":[10,8,1,8,5,10,4,8,5,12,6,4,6,1,11,5],"shift_direction":-1,"question_num":161,"has_decoy":false},{"rt":1344.9000000059605,"stimulus":"[A] option 1, [L] option 2, [G] neither","key_press":65,"name":"choice","trial_type":"html-keyboard-response","trial_index":197,"time_elapsed":488662,"internal_node_id":"0.0-197.0","subject":"S1C1660","sona":"41578","block":5,"time":"2021-09-22T23:11:51.768Z","response":"1st","certainty":"high","char":"A","transposition":-3,"order":["shifted","swapped"],"probe_pitches":[5,0,7,5,0,5,12,10,3,5,7,12,7,12,7,10],"shifted_pitches":[5,0,7,5,0,5,12,10,4,5,7,12,7,12,7,10],"swapped_pitches":[5,0,7,5,0,5,12,3,10,5,7,12,7,12,7,10],"shift_direction":1,"question_num":171,"has_decoy":false},{"rt":2067.300000011921,"stimulus":"[A] option 1, [L] option 2, [G] neither","key_press":65,"name":"choice","trial_type":"html-keyboard-response","trial_index":208,"time_elapsed":515197,"internal_node_id":"0.0-208.0","subject":"S1C1660","sona":"41578","block":5,"time":"2021-09-22T23:11:51.768Z","response":"1st","certainty":"high","char":"A","transposition":-3,"order":["shifted","swapped"],"probe_pitches":[8,9,2,3,7,12,5,2,11,5,3,4,7,2,8,6],"shifted_pitches":[8,9,2,3,7,12,5,2,10,5,3,4,7,2,8,6],"swapped_pitches":[8,9,2,3,7,12,5,11,2,5,3,4,7,2,8,6],"shift_direction":-1,"question_num":181,"has_decoy":false},{"rt":5931,"stimulus":"[A] option 1, [L] option 2, [G] neither","key_press":71,"name":"choice","trial_type":"html-keyboard-response","trial_index":219,"time_elapsed":544236,"internal_node_id":"0.0-219.0","subject":"S1C1660","sona":"41578","block":5,"time":"2021-09-22T23:11:51.768Z","response":"neither","certainty":"high","char":"G","transposition":0,"order":["swapped","shifted"],"probe_pitches":[5,2,3,6,3,12,4,12,2,4,12,9,8,5,6,10],"shifted_pitches":[5,2,3,6,3,12,4,11,2,4,12,9,8,5,6,10],"swapped_pitches":[5,2,3,6,3,12,4,2,12,4,12,9,8,5,6,10],"shift_direction":-1,"question_num":191,"has_decoy":false}]