[{"rt":1642.800000011921,"stimulus":"[A] option 1, [L] option 2, [G] neither","key_press":71,"name":"choice","trial_type":"html-keyboard-response","trial_index":10,"time_elapsed":33361,"internal_node_id":"0.0-10.0","subject":"S1C1660","sona":"41578","block":3,"time":"2021-09-22T22:53:09.209Z","response":"neither","certainty":"high","char":"G","transposition":0,"order":["shifted","swapped"],"probe_pitches":[10,6,9,10,3,2,8,5,6,0,8,9,8,0,2,9],"shifted_pitches":[10,6,9,10,3,2,8,5,7,0,8,9,8,0,2,9],"swapped_pitches":[10,6,9,10,3,2,8,6,5,0,8,9,8,0,2,9],"shift_direction":1,"question_num":1,"has_decoy":false},{"rt":4181.299999982119,"stimulus":"[A] option 1, [L] option 2, [G] neither","key_press":76,"name":"choice","trial_type":"html-keyboard-response","trial_index":21,"time_elapsed":62384,"internal_node_id":"0.0-21.0","subject":"S1C1660","sona":"41578","block":3,"time":"2021-09-22T22:53:09.209Z","response":"2nd","certainty":"high","char":"L","transposition":1,"order":["swapped","shifted"],"probe_pitches":[4,9,11,7,-1,9,11,2,7,9,11,7,4,-1,11,7],"shifted_pitches":[4,9,11,7,-1,9,11,1,7,9,11,7,4,-1,11,7],"swapped_pitches":[4,9,11,7,-1,9,11,7,2,9,11,7,4,-1,11,7],"shift_direction":-1,"question_num":11,"has_decoy":false},{"rt":3899.5,"stimulus":"[A] option 1, [L] option 2, [G] neither","key_press":65,"name":"choice","trial_type":"html-keyboard-response","trial_index":32,"time_elapsed":89624,"internal_node_id":"0.0-32.0","subject":"S1C1660","sona":"41578","block":3,"time":"2021-09-22T22:53:09.209Z","response":"1st","certainty":"high","char":"A","transposition":-1,"order":["swapped","shifted"],"probe_pitches":[4,9,2,4,-1,6,4,2,9,-1,9,11,4,11,4,11],"shifted_pitches":[4,9,2,4,-1,6,4,3,9,-1,9,11,4,11,4,11],"swapped_pitches":[4,9,2,4,-1,6,4,9,2,-1,9,11,4,11,4,11],"shift_direction":1,"question_num":21,"has_decoy":false},{"rt":1524.7999999821186,"stimulus":"[A] option 1, [L] option 2, [G] neither","key_press":76,"name":"choice","trial_type":"html-keyboard-response","trial_index":43,"time_elapsed":114735,"internal_node_id":"0.0-43.0","subject":"S1C1660","sona":"41578","block":3,"time":"2021-09-22T22:53:09.209Z","response":"2nd","certainty":"high","char":"L","transposition":-3,"order":["swapped","shifted"],"probe_pitches":[-1,4,11,4,7,11,2,4,7,9,2,-1,7,-1,9,7],"shifted_pitches":[-1,4,11,4,7,11,2,4,6,9,2,-1,7,-1,9,7],"swapped_pitches":[-1,4,11,4,7,11,2,7,4,9,2,-1,7,-1,9,7],"shift_direction":-1,"question_num":31,"has_decoy":false},{"rt":1214.6000000238419,"stimulus":"[A] option 1, [L] option 2, [G] neither","key_press":76,"name":"choice","trial_type":"html-keyboard-response","trial_index":54,"time_elapsed":138790,"internal_node_id":"0.0-54.0","subject":"S1C1660","sona":"41578","block":3,"time":"2021-09-22T22:53:09.209Z","response":"2nd","certainty":"high","char":"L","transposition":2,"order":["shifted","swapped"],"probe_pitches":[7,4,5,9,3,2,3,1,12,2,1,9,12,4,2,1],"shifted_pitches":[7,4,5,9,3,2,3,1,11,2,1,9,12,4,2,1],"swapped_pitches":[7,4,5,9,3,2,3,12,1,2,1,9,12,4,2,1],"shift_direction":-1,"question_num":41,"has_decoy":false},{"rt":974.5,"stimulus":"[A] option 1, [L] option 2, [G] neither","key_press":76,"name":"choice","trial_type":"html-keyboard-response","trial_index":65,"time_elapsed":163453,"internal_node_id":"0.0-65.0","subject":"S1C1660","sona":"41578","block":3,"time":"2021-09-22T22:53:09.209Z","response":"2nd","certainty":"high","char":"L","transposition":-3,"order":["swapped","shifted"],"probe_pitches":[4,1,6,11,6,11,6,4,-1,8,11,-1,11,6,11,4],"shifted_pitches":[4,1,6,11,6,11,6,4,0,8,11,-1,11,6,11,4],"swapped_pitches":[4,1,6,11,6,11,6,-1,4,8,11,-1,11,6,11,4],"shift_direction":1,"question_num":51,"has_decoy":false},{"rt":700.7999999821186,"stimulus":"[A] option 1, [L] option 2, [G] neither","key_press":65,"name":"choice","trial_type":"html-keyboard-response","trial_index":76,"time_elapsed":188269,"internal_node_id":"0.0-76.0","subject":"S1C1660","sona":"41578","block":3,"time":"2021-09-22T22:53:09.209Z","response":"1st","certainty":"high","char":"A","transposition":2,"order":["shifted","swapped"],"probe_pitches":[11,6,8,11,4,8,-1,1,4,8,4,-1,8,6,1,11],"shifted_pitches":[11,6,8,11,4,8,-1,1,5,8,4,-1,8,6,1,11],"swapped_pitches":[11,6,8,11,4,8,-1,4,1,8,4,-1,8,6,1,11],"shift_direction":1,"question_num":61,"has_decoy":false},{"rt":1031.7000000178814,"stimulus":"[A] option 1, [L] option 2, [G] neither","key_press":65,"name":"choice","trial_type":"html-keyboard-response","trial_index":87,"time_elapsed":213468,"internal_node_id":"0.0-87.0","subject":"S1C1660","sona":"41578","block":3,"time":"2021-09-22T22:53:09.209Z","response":"1st","certainty":"high","char":"A","transposition":-2,"order":["shifted","swapped"],"probe_pitches":[6,11,6,-1,1,9,6,1,-1,11,6,9,-1,9,4,9],"shifted_pitches":[6,11,6,-1,1,9,6,0,-1,11,6,9,-1,9,4,9],"swapped_pitches":[6,11,6,-1,1,9,6,-1,1,11,6,9,-1,9,4,9],"shift_direction":-1,"question_num":71,"has_decoy":false},{"rt":4669.9000000059605,"stimulus":"[A] option 1, [L] option 2, [G] neither","key_press":71,"name":"choice","trial_type":"html-keyboard-response","trial_index":98,"time_elapsed":241019,"internal_node_id":"0.0-98.0","subject":"S1C1660","sona":"41578","block":3,"time":"2021-09-22T22:53:09.209Z","response":"neither","certainty":"high","char":"G","transposition":-2,"order":["swapped","shifted"],"probe_pitches":[11,9,10,9,6,11,5,3,1,0,8,7,11,9,5,11],"shifted_pitches":[11,9,10,9,6,11,5,2,1,0,8,7,11,9,5,11],"swapped_pitches":[11,9,10,9,6,11,5,1,3,0,8,7,11,9,5,11],"shift_direction":-1,"question_num":81,"has_decoy":false},{"rt":731.2000000178814,"stimulus":"[A] option 1, [L] option 2, [G] neither","key_press":65,"name":"choice","trial_type":"html-keyboard-response","trial_index":109,"time_elapsed":264747,"internal_node_id":"0.0-109.0","subject":"S1C1660","sona":"41578","block":3,"time":"2021-09-22T22:53:09.209Z","response":"1st","certainty":"high","char":"A","transposition":3,"order":["shifted","swapped"],"probe_pitches":[4,9,4,11,2,-1,9,6,11,9,4,9,-1,9,4,-1],"shifted_pitches":[4,9,4,11,2,-1,9,6,12,9,4,9,-1,9,4,-1],"swapped_pitches":[4,9,4,11,2,-1,9,11,6,9,4,9,-1,9,4,-1],"shift_direction":1,"question_num":91,"has_decoy":false},{"rt":776.7000000178814,"stimulus":"[A] option 1, [L] option 2, [G] neither","key_press":65,"name":"choice","trial_type":"html-keyboard-response","trial_index":120,"time_elapsed":289690,"internal_node_id":"0.0-120.0","subject":"S1C1660","sona":"41578","block":3,"time":"2021-09-22T22:53:09.209Z","response":"1st","certainty":"high","char":"A","transposition":-1,"order":["swapped","shifted"],"probe_pitches":[7,6,2,7,3,0,11,6,3,0,2,9,2,7,6,11],"shifted_pitches":[7,6,2,7,3,0,11,6,4,0,2,9,2,7,6,11],"swapped_pitches":[7,6,2,7,3,0,11,3,6,0,2,9,2,7,6,11],"shift_direction":1,"question_num":101,"has_decoy":false},{"rt":1385.1000000238419,"stimulus":"[A] option 1, [L] option 2, [G] neither","key_press":65,"name":"choice","trial_type":"html-keyboard-response","trial_index":131,"time_elapsed":313881,"internal_node_id":"0.0-131.0","subject":"S1C1660","sona":"41578","block":3,"time":"2021-09-22T22:53:09.209Z","response":"1st","certainty":"high","char":"A","transposition":-2,"order":["swapped","shifted"],"probe_pitches":[1,4,3,1,2,4,8,7,5,12,4,0,5,1,7,3],"shifted_pitches":[1,4,3,1,2,4,8,6,5,12,4,0,5,1,7,3],"swapped_pitches":[1,4,3,1,2,4,8,5,7,12,4,0,5,1,7,3],"shift_direction":-1,"question_num":111,"has_decoy":false},{"rt":966.1999999880791,"stimulus":"[A] option 1, [L] option 2, [G] neither","key_press":76,"name":"choice","trial_type":"html-keyboard-response","trial_index":142,"time_elapsed":339680,"internal_node_id":"0.0-142.0","subject":"S1C1660","sona":"41578","block":3,"time":"2021-09-22T22:53:09.209Z","response":"2nd","certainty":"high","char":"L","transposition":0,"order":["swapped","shifted"],"probe_pitches":[11,9,6,-1,4,6,4,1,6,-1,9,11,-1,11,6,1],"shifted_pitches":[11,9,6,-1,4,6,4,1,5,-1,9,11,-1,11,6,1],"swapped_pitches":[11,9,6,-1,4,6,4,6,1,-1,9,11,-1,11,6,1],"shift_direction":-1,"question_num":121,"has_decoy":false},{"rt":1680.9000000059605,"stimulus":"[A] option 1, [L] option 2, [G] neither","key_press":65,"name":"choice","trial_type":"html-keyboard-response","trial_index":153,"time_elapsed":364592,"internal_node_id":"0.0-153.0","subject":"S1C1660","sona":"41578","block":3,"time":"2021-09-22T22:53:09.209Z","response":"1st","certainty":"high","char":"A","transposition":3,"order":["swapped","shifted"],"probe_pitches":[1,0,6,1,10,12,1,4,10,6,7,0,7,8,10,11],"shifted_pitches":[1,0,6,1,10,12,1,5,10,6,7,0,7,8,10,11],"swapped_pitches":[1,0,6,1,10,12,1,10,4,6,7,0,7,8,10,11],"shift_direction":1,"question_num":131,"has_decoy":false},{"rt":2680.5999999940395,"stimulus":"[A] option 1, [L] option 2, [G] neither","key_press":71,"name":"choice","trial_type":"html-keyboard-response","trial_index":164,"time_elapsed":391063,"internal_node_id":"0.0-164.0","subject":"S1C1660","sona":"41578","block":3,"time":"2021-09-22T22:53:09.209Z","response":"neither","certainty":"high","char":"G","transposition":-3,"order":["shifted","swapped"],"probe_pitches":[5,2,5,9,1,5,6,8,11,4,1,7,2,6,7,4],"shifted_pitches":[5,2,5,9,1,5,6,8,10,4,1,7,2,6,7,4],"swapped_pitches":[5,2,5,9,1,5,6,11,8,4,1,7,2,6,7,4],"shift_direction":-1,"question_num":141,"has_decoy":false},{"rt":2977.5999999940395,"stimulus":"[A] option 1, [L] option 2, [G] neither","key_press":71,"name":"choice","trial_type":"html-keyboard-response","trial_index":175,"time_elapsed":417630,"internal_node_id":"0.0-175.0","subject":"S1C1660","sona":"41578","block":3,"time":"2021-09-22T22:53:09.209Z","response":"neither","certainty":"high","char":"G","transposition":-3,"order":["shifted","swapped"],"probe_pitches":[5,10,7,6,1,7,3,6,8,5,3,10,8,0,2,0],"shifted_pitches":[5,10,7,6,1,7,3,6,9,5,3,10,8,0,2,0],"swapped_pitches":[5,10,7,6,1,7,3,8,6,5,3,10,8,0,2,0],"shift_direction":1,"question_num":151,"has_decoy":false},{"rt":601.4000000059605,"stimulus":"[A] option 1, [L] option 2, [G] neither","key_press":65,"name":"choice","trial_type":"html-keyboard-response","trial_index":186,"time_elapsed":442926,"internal_node_id":"0.0-186.0","subject":"S1C1660","sona":"41578","block":3,"time":"2021-09-22T22:53:09.209Z","response":"1st","certainty":"high","char":"A","transposition":-1,"order":["shifted","swapped"],"probe_pitches":[11,9,11,12,10,5,2,9,3,2,0,10,7,11,1,7],"shifted_pitches":[11,9,11,12,10,5,2,8,3,2,0,10,7,11,1,7],"swapped_pitches":[11,9,11,12,10,5,2,3,9,2,0,10,7,11,1,7],"shift_direction":-1,"question_num":161,"has_decoy":false},{"rt":793.6999999880791,"stimulus":"[A] option 1, [L] option 2, [G] neither","key_press":65,"name":"choice","trial_type":"html-keyboard-response","trial_index":197,"time_elapsed":466765,"internal_node_id":"0.0-197.0","subject":"S1C1660","sona":"41578","block":3,"time":"2021-09-22T22:53:09.209Z","response":"1st","certainty":"high","char":"A","transposition":-2,"order":["shifted","swapped"],"probe_pitches":[3,8,1,8,6,8,1,-1,11,1,11,6,1,11,3,8],"shifted_pitches":[3,8,1,8,6,8,1,-2,11,1,11,6,1,11,3,8],"swapped_pitches":[3,8,1,8,6,8,1,11,-1,1,11,6,1,11,3,8],"shift_direction":-1,"question_num":171,"has_decoy":false},{"rt":749.4000000059605,"stimulus":"[A] option 1, [L] option 2, [G] neither","key_press":65,"name":"choice","trial_type":"html-keyboard-response","trial_index":208,"time_elapsed":492852,"internal_node_id":"0.0-208.0","subject":"S1C1660","sona":"41578","block":3,"time":"2021-09-22T22:53:09.209Z","response":"1st","certainty":"high","char":"A","transposition":-1,"order":["shifted","swapped"],"probe_pitches":[6,8,1,6,8,6,1,11,8,-1,1,-1,1,6,3,8],"shifted_pitches":[6,8,1,6,8,6,1,12,8,-1,1,-1,1,6,3,8],"swapped_pitches":[6,8,1,6,8,6,1,8,11,-1,1,-1,1,6,3,8],"shift_direction":1,"question_num":181,"has_decoy":false},{"rt":2145.800000011921,"stimulus":"[A] option 1, [L] option 2, [G] neither","key_press":76,"name":"choice","trial_type":"html-keyboard-response","trial_index":219,"time_elapsed":517988,"internal_node_id":"0.0-219.0","subject":"S1C1660","sona":"41578","block":3,"time":"2021-09-22T22:53:09.209Z","response":"2nd","certainty":"high","char":"L","transposition":1,"order":["swapped","shifted"],"probe_pitches":[1,7,11,8,4,0,4,2,5,4,1,4,12,5,9,7],"shifted_pitches":[1,7,11,8,4,0,4,3,5,4,1,4,12,5,9,7],"swapped_pitches":[1,7,11,8,4,0,4,5,2,4,1,4,12,5,9,7],"shift_direction":1,"question_num":191,"has_decoy":false}]