[{"rt":4266.79999999702,"stimulus":"[A] option 1, [L] option 2, [G] neither","key_press":76,"name":"choice","trial_type":"html-keyboard-response","trial_index":15,"time_elapsed":110337,"internal_node_id":"0.0-15.0","response":"2nd","certainty":"high","char":"L","transposition":0,"order":["swapped","shifted"],"probe_pitches":[3,-1,1,-1,8,3,1,8,6,11,-1,8,3,6,1,3],"shifted_pitches":[3,-1,1,-1,8,3,1,8,7,11,-1,8,3,6,1,3],"swapped_pitches":[3,-1,1,-1,8,3,1,6,8,11,-1,8,3,6,1,3],"shift_direction":1,"question_num":1,"has_decoy":false,"subject":"S1C1677","sona":"41534","block":1,"time":"2021-09-28T14:11:57.197Z"},{"rt":3046.7999999970198,"stimulus":"[A] option 1, [L] option 2, [G] neither","key_press":76,"name":"choice","trial_type":"html-keyboard-response","trial_index":26,"time_elapsed":137128,"internal_node_id":"0.0-26.0","response":"2nd","certainty":"high","char":"L","transposition":-1,"order":["shifted","swapped"],"probe_pitches":[-3,2,-1,3,5,-3,1,5,8,-1,9,3,7,5,-1,1],"shifted_pitches":[-3,2,-1,3,5,-3,1,6,8,-1,9,3,7,5,-1,1],"swapped_pitches":[-3,2,-1,3,5,-3,1,8,5,-1,9,3,7,5,-1,1],"shift_direction":1,"question_num":11,"has_decoy":false,"subject":"S1C1677","sona":"41534","block":1,"time":"2021-09-28T14:11:57.197Z"},{"rt":1663.2999999970198,"stimulus":"[A] option 1, [L] option 2, [G] neither","key_press":76,"name":"choice","trial_type":"html-keyboard-response","trial_index":37,"time_elapsed":162618,"internal_node_id":"0.0-37.0","response":"2nd","certainty":"high","char":"L","transposition":-2,"order":["swapped","shifted"],"probe_pitches":[8,5,4,-1,6,1,5,4,2,1,2,-2,-3,6,8,4],"shifted_pitches":[8,5,4,-1,6,1,5,3,2,1,2,-2,-3,6,8,4],"swapped_pitches":[8,5,4,-1,6,1,5,2,4,1,2,-2,-3,6,8,4],"shift_direction":-1,"question_num":21,"has_decoy":false,"subject":"S1C1677","sona":"41534","block":1,"time":"2021-09-28T14:11:57.197Z"},{"rt":1325.7000000029802,"stimulus":"[A] option 1, [L] option 2, [G] neither","key_press":76,"name":"choice","trial_type":"html-keyboard-response","trial_index":48,"time_elapsed":187193,"internal_node_id":"0.0-48.0","response":"2nd","certainty":"high","char":"L","transposition":3,"order":["shifted","swapped"],"probe_pitches":[0,5,-1,4,-3,0,9,-2,6,4,8,1,9,6,4,-3],"shifted_pitches":[0,5,-1,4,-3,0,9,-2,7,4,8,1,9,6,4,-3],"swapped_pitches":[0,5,-1,4,-3,0,9,6,-2,4,8,1,9,6,4,-3],"shift_direction":1,"question_num":31,"has_decoy":false,"subject":"S1C1677","sona":"41534","block":1,"time":"2021-09-28T14:11:57.197Z"},{"rt":1488.2999999970198,"stimulus":"[A] option 1, [L] option 2, [G] neither","key_press":71,"name":"choice","trial_type":"html-keyboard-response","trial_index":59,"time_elapsed":211776,"internal_node_id":"0.0-59.0","response":"neither","certainty":"high","char":"G","transposition":2,"order":["swapped","shifted"],"probe_pitches":[6,4,6,8,11,6,4,-1,1,6,1,8,1,8,1,6],"shifted_pitches":[6,4,6,8,11,6,4,-2,1,6,1,8,1,8,1,6],"swapped_pitches":[6,4,6,8,11,6,4,1,-1,6,1,8,1,8,1,6],"shift_direction":-1,"question_num":41,"has_decoy":false,"subject":"S1C1677","sona":"41534","block":1,"time":"2021-09-28T14:11:57.197Z"},{"rt":3696.3999999910593,"stimulus":"[A] option 1, [L] option 2, [G] neither","key_press":65,"name":"choice","trial_type":"html-keyboard-response","trial_index":70,"time_elapsed":238552,"internal_node_id":"0.0-70.0","response":"1st","certainty":"high","char":"A","transposition":-2,"order":["shifted","swapped"],"probe_pitches":[11,8,6,3,1,8,11,-1,8,11,6,3,1,6,3,-1],"shifted_pitches":[11,8,6,3,1,8,11,-1,7,11,6,3,1,6,3,-1],"swapped_pitches":[11,8,6,3,1,8,11,8,-1,11,6,3,1,6,3,-1],"shift_direction":-1,"question_num":51,"has_decoy":false,"subject":"S1C1677","sona":"41534","block":1,"time":"2021-09-28T14:11:57.197Z"},{"rt":1212.1000000089407,"stimulus":"[A] option 1, [L] option 2, [G] neither","key_press":76,"name":"choice","trial_type":"html-keyboard-response","trial_index":81,"time_elapsed":262762,"internal_node_id":"0.0-81.0","response":"2nd","certainty":"high","char":"L","transposition":-1,"order":["swapped","shifted"],"probe_pitches":[9,11,9,4,6,4,11,-1,9,6,11,6,-1,9,2,4],"shifted_pitches":[9,11,9,4,6,4,11,0,9,6,11,6,-1,9,2,4],"swapped_pitches":[9,11,9,4,6,4,11,9,-1,6,11,6,-1,9,2,4],"shift_direction":1,"question_num":61,"has_decoy":false,"subject":"S1C1677","sona":"41534","block":1,"time":"2021-09-28T14:11:57.197Z"},{"rt":1493.7999999970198,"stimulus":"[A] option 1, [L] option 2, [G] neither","key_press":76,"name":"choice","trial_type":"html-keyboard-response","trial_index":92,"time_elapsed":287086,"internal_node_id":"0.0-92.0","response":"2nd","certainty":"high","char":"L","transposition":-3,"order":["shifted","swapped"],"probe_pitches":[7,9,2,3,5,0,7,0,5,7,9,3,5,0,4,5],"shifted_pitches":[7,9,2,3,5,0,7,-1,5,7,9,3,5,0,4,5],"swapped_pitches":[7,9,2,3,5,0,7,5,0,7,9,3,5,0,4,5],"shift_direction":-1,"question_num":71,"has_decoy":false,"subject":"S1C1677","sona":"41534","block":1,"time":"2021-09-28T14:11:57.197Z"},{"rt":1795.2999999970198,"stimulus":"[A] option 1, [L] option 2, [G] neither","key_press":76,"name":"choice","trial_type":"html-keyboard-response","trial_index":103,"time_elapsed":314885,"internal_node_id":"0.0-103.0","response":"2nd","certainty":"high","char":"L","transposition":0,"order":["swapped","shifted"],"probe_pitches":[6,5,-2,5,3,0,2,9,0,-3,8,9,0,4,6,5],"shifted_pitches":[6,5,-2,5,3,0,2,9,1,-3,8,9,0,4,6,5],"swapped_pitches":[6,5,-2,5,3,0,2,0,9,-3,8,9,0,4,6,5],"shift_direction":1,"question_num":81,"has_decoy":false,"subject":"S1C1677","sona":"41534","block":1,"time":"2021-09-28T14:11:57.197Z"},{"rt":2921.2000000029802,"stimulus":"[A] option 1, [L] option 2, [G] neither","key_press":71,"name":"choice","trial_type":"html-keyboard-response","trial_index":114,"time_elapsed":342011,"internal_node_id":"0.0-114.0","response":"neither","certainty":"high","char":"G","transposition":1,"order":["shifted","swapped"],"probe_pitches":[9,5,-1,1,-3,6,0,6,3,-3,1,-2,4,1,4,-3],"shifted_pitches":[9,5,-1,1,-3,6,0,6,2,-3,1,-2,4,1,4,-3],"swapped_pitches":[9,5,-1,1,-3,6,0,3,6,-3,1,-2,4,1,4,-3],"shift_direction":-1,"question_num":91,"has_decoy":false,"subject":"S1C1677","sona":"41534","block":1,"time":"2021-09-28T14:11:57.197Z"},{"rt":1556.7999999970198,"stimulus":"[A] option 1, [L] option 2, [G] neither","key_press":71,"name":"choice","trial_type":"html-keyboard-response","trial_index":125,"time_elapsed":366721,"internal_node_id":"0.0-125.0","response":"neither","certainty":"high","char":"G","transposition":2,"order":["shifted","swapped"],"probe_pitches":[-1,0,4,6,1,-3,4,7,3,9,3,-1,1,-2,5,-1],"shifted_pitches":[-1,0,4,6,1,-3,4,8,3,9,3,-1,1,-2,5,-1],"swapped_pitches":[-1,0,4,6,1,-3,4,3,7,9,3,-1,1,-2,5,-1],"shift_direction":1,"question_num":101,"has_decoy":false,"subject":"S1C1677","sona":"41534","block":1,"time":"2021-09-28T14:11:57.197Z"},{"rt":1501.7999999970198,"stimulus":"[A] option 1, [L] option 2, [G] neither","key_press":65,"name":"choice","trial_type":"html-keyboard-response","trial_index":136,"time_elapsed":391434,"internal_node_id":"0.0-136.0","response":"1st","certainty":"high","char":"A","transposition":-3,"order":["swapped","shifted"],"probe_pitches":[-2,-3,-2,-3,2,5,3,5,9,7,-3,-2,0,9,3,9],"shifted_pitches":[-2,-3,-2,-3,2,5,3,4,9,7,-3,-2,0,9,3,9],"swapped_pitches":[-2,-3,-2,-3,2,5,3,9,5,7,-3,-2,0,9,3,9],"shift_direction":-1,"question_num":111,"has_decoy":false,"subject":"S1C1677","sona":"41534","block":1,"time":"2021-09-28T14:11:57.197Z"},{"rt":1447.2999999970198,"stimulus":"[A] option 1, [L] option 2, [G] neither","key_press":76,"name":"choice","trial_type":"html-keyboard-response","trial_index":147,"time_elapsed":417022,"internal_node_id":"0.0-147.0","response":"2nd","certainty":"high","char":"L","transposition":-2,"order":["shifted","swapped"],"probe_pitches":[4,-1,4,6,4,9,-1,4,1,6,9,11,6,9,11,4],"shifted_pitches":[4,-1,4,6,4,9,-1,4,2,6,9,11,6,9,11,4],"swapped_pitches":[4,-1,4,6,4,9,-1,1,4,6,9,11,6,9,11,4],"shift_direction":1,"question_num":121,"has_decoy":false,"subject":"S1C1677","sona":"41534","block":1,"time":"2021-09-28T14:11:57.197Z"},{"rt":1451.4000000059605,"stimulus":"[A] option 1, [L] option 2, [G] neither","key_press":71,"name":"choice","trial_type":"html-keyboard-response","trial_index":158,"time_elapsed":441479,"internal_node_id":"0.0-158.0","response":"neither","certainty":"high","char":"G","transposition":-1,"order":["swapped","shifted"],"probe_pitches":[-3,1,8,9,0,9,-2,6,4,0,4,0,1,-1,9,2],"shifted_pitches":[-3,1,8,9,0,9,-2,6,5,0,4,0,1,-1,9,2],"swapped_pitches":[-3,1,8,9,0,9,-2,4,6,0,4,0,1,-1,9,2],"shift_direction":1,"question_num":131,"has_decoy":false,"subject":"S1C1677","sona":"41534","block":1,"time":"2021-09-28T14:11:57.197Z"},{"rt":1248.7999999970198,"stimulus":"[A] option 1, [L] option 2, [G] neither","key_press":76,"name":"choice","trial_type":"html-keyboard-response","trial_index":169,"time_elapsed":465692,"internal_node_id":"0.0-169.0","response":"2nd","certainty":"high","char":"L","transposition":-1,"order":["shifted","swapped"],"probe_pitches":[9,11,9,7,2,11,7,4,2,7,4,7,4,7,9,2],"shifted_pitches":[9,11,9,7,2,11,7,4,1,7,4,7,4,7,9,2],"swapped_pitches":[9,11,9,7,2,11,7,2,4,7,4,7,4,7,9,2],"shift_direction":-1,"question_num":141,"has_decoy":false,"subject":"S1C1677","sona":"41534","block":1,"time":"2021-09-28T14:11:57.197Z"},{"rt":2385.9000000059605,"stimulus":"[A] option 1, [L] option 2, [G] neither","key_press":71,"name":"choice","trial_type":"html-keyboard-response","trial_index":180,"time_elapsed":491047,"internal_node_id":"0.0-180.0","response":"neither","certainty":"high","char":"G","transposition":-3,"order":["shifted","swapped"],"probe_pitches":[4,1,6,11,9,-1,1,6,11,-1,9,-1,4,9,-1,9],"shifted_pitches":[4,1,6,11,9,-1,1,7,11,-1,9,-1,4,9,-1,9],"swapped_pitches":[4,1,6,11,9,-1,1,11,6,-1,9,-1,4,9,-1,9],"shift_direction":1,"question_num":151,"has_decoy":false,"subject":"S1C1677","sona":"41534","block":1,"time":"2021-09-28T14:11:57.197Z"},{"rt":2619.6000000089407,"stimulus":"[A] option 1, [L] option 2, [G] neither","key_press":71,"name":"choice","trial_type":"html-keyboard-response","trial_index":191,"time_elapsed":517163,"internal_node_id":"0.0-191.0","response":"neither","certainty":"high","char":"G","transposition":3,"order":["shifted","swapped"],"probe_pitches":[4,9,2,9,11,2,-1,7,11,4,7,9,4,2,7,4],"shifted_pitches":[4,9,2,9,11,2,-1,6,11,4,7,9,4,2,7,4],"swapped_pitches":[4,9,2,9,11,2,-1,11,7,4,7,9,4,2,7,4],"shift_direction":-1,"question_num":161,"has_decoy":false,"subject":"S1C1677","sona":"41534","block":1,"time":"2021-09-28T14:11:57.197Z"},{"rt":1693.9000000059605,"stimulus":"[A] option 1, [L] option 2, [G] neither","key_press":71,"name":"choice","trial_type":"html-keyboard-response","trial_index":202,"time_elapsed":542301,"internal_node_id":"0.0-202.0","response":"neither","certainty":"high","char":"G","transposition":-2,"order":["swapped","shifted"],"probe_pitches":[-1,-3,4,6,4,6,3,-1,1,-3,9,8,5,-2,8,4],"shifted_pitches":[-1,-3,4,6,4,6,3,-1,0,-3,9,8,5,-2,8,4],"swapped_pitches":[-1,-3,4,6,4,6,3,1,-1,-3,9,8,5,-2,8,4],"shift_direction":-1,"question_num":171,"has_decoy":false,"subject":"S1C1677","sona":"41534","block":1,"time":"2021-09-28T14:11:57.197Z"},{"rt":1390.5999999940395,"stimulus":"[A] option 1, [L] option 2, [G] neither","key_press":71,"name":"choice","trial_type":"html-keyboard-response","trial_index":213,"time_elapsed":567026,"internal_node_id":"0.0-213.0","response":"neither","certainty":"high","char":"G","transposition":-3,"order":["swapped","shifted"],"probe_pitches":[11,6,4,8,6,11,4,8,1,-1,1,6,11,8,11,4],"shifted_pitches":[11,6,4,8,6,11,4,9,1,-1,1,6,11,8,11,4],"swapped_pitches":[11,6,4,8,6,11,4,1,8,-1,1,6,11,8,11,4],"shift_direction":1,"question_num":181,"has_decoy":false,"subject":"S1C1677","sona":"41534","block":1,"time":"2021-09-28T14:11:57.197Z"},{"rt":1922.5999999940395,"stimulus":"[A] option 1, [L] option 2, [G] neither","key_press":71,"name":"choice","trial_type":"html-keyboard-response","trial_index":224,"time_elapsed":592774,"internal_node_id":"0.0-224.0","response":"neither","certainty":"high","char":"G","transposition":1,"order":["swapped","shifted"],"probe_pitches":[-1,4,11,6,4,2,4,2,11,-1,2,11,2,-1,4,9],"shifted_pitches":[-1,4,11,6,4,2,4,2,10,-1,2,11,2,-1,4,9],"swapped_pitches":[-1,4,11,6,4,2,4,11,2,-1,2,11,2,-1,4,9],"shift_direction":-1,"question_num":191,"has_decoy":false,"subject":"S1C1677","sona":"41534","block":1,"time":"2021-09-28T14:11:57.197Z"}]