[{"rt":1545.5,"stimulus":"[A] option 1, [L] option 2, [G] neither","key_press":71,"name":"choice","trial_type":"html-keyboard-response","trial_index":10,"time_elapsed":27375,"internal_node_id":"0.0-10.0","subject":"S1C1677","sona":"41534","block":2,"time":"2021-09-28T14:20:57.869Z","response":"neither","certainty":"high","char":"G","transposition":-1,"order":["shifted","swapped"],"probe_pitches":[-2,2,5,10,7,0,2,7,0,5,2,-2,10,0,5,10],"shifted_pitches":[-2,2,5,10,7,0,2,8,0,5,2,-2,10,0,5,10],"swapped_pitches":[-2,2,5,10,7,0,2,0,7,5,2,-2,10,0,5,10],"shift_direction":1,"question_num":1,"has_decoy":false},{"rt":3218.7999999970198,"stimulus":"[A] option 1, [L] option 2, [G] neither","key_press":76,"name":"choice","trial_type":"html-keyboard-response","trial_index":21,"time_elapsed":54595,"internal_node_id":"0.0-21.0","subject":"S1C1677","sona":"41534","block":2,"time":"2021-09-28T14:20:57.869Z","response":"2nd","certainty":"high","char":"L","transposition":2,"order":["shifted","swapped"],"probe_pitches":[3,8,3,8,14,11,4,8,6,3,6,4,9,2,7,13],"shifted_pitches":[3,8,3,8,14,11,4,8,5,3,6,4,9,2,7,13],"swapped_pitches":[3,8,3,8,14,11,4,6,8,3,6,4,9,2,7,13],"shift_direction":-1,"question_num":11,"has_decoy":false},{"rt":5346.5,"stimulus":"[A] option 1, [L] option 2, [G] neither","key_press":71,"name":"choice","trial_type":"html-keyboard-response","trial_index":32,"time_elapsed":86353,"internal_node_id":"0.0-32.0","subject":"S1C1677","sona":"41534","block":2,"time":"2021-09-28T14:20:57.869Z","response":"neither","certainty":"high","char":"G","transposition":-2,"order":["shifted","swapped"],"probe_pitches":[0,5,3,10,5,10,3,10,-2,0,7,3,10,0,5,7],"shifted_pitches":[0,5,3,10,5,10,3,10,-3,0,7,3,10,0,5,7],"swapped_pitches":[0,5,3,10,5,10,3,-2,10,0,7,3,10,0,5,7],"shift_direction":-1,"question_num":21,"has_decoy":false},{"rt":8203.60000000894,"stimulus":"[A] option 1, [L] option 2, [G] neither","key_press":71,"name":"choice","trial_type":"html-keyboard-response","trial_index":43,"time_elapsed":118187,"internal_node_id":"0.0-43.0","subject":"S1C1677","sona":"41534","block":2,"time":"2021-09-28T14:20:57.869Z","response":"neither","certainty":"high","char":"G","transposition":-2,"order":["shifted","swapped"],"probe_pitches":[6,11,5,6,5,3,6,9,14,2,5,2,11,6,8,3],"shifted_pitches":[6,11,5,6,5,3,6,10,14,2,5,2,11,6,8,3],"swapped_pitches":[6,11,5,6,5,3,6,14,9,2,5,2,11,6,8,3],"shift_direction":1,"question_num":31,"has_decoy":false},{"rt":1399.5999999940395,"stimulus":"[A] option 1, [L] option 2, [G] neither","key_press":76,"name":"choice","trial_type":"html-keyboard-response","trial_index":54,"time_elapsed":143553,"internal_node_id":"0.0-54.0","subject":"S1C1677","sona":"41534","block":2,"time":"2021-09-28T14:20:57.869Z","response":"2nd","certainty":"high","char":"L","transposition":3,"order":["shifted","swapped"],"probe_pitches":[10,7,5,0,7,5,-2,10,5,-2,10,-2,3,5,10,3],"shifted_pitches":[10,7,5,0,7,5,-2,10,6,-2,10,-2,3,5,10,3],"swapped_pitches":[10,7,5,0,7,5,-2,5,10,-2,10,-2,3,5,10,3],"shift_direction":1,"question_num":41,"has_decoy":false},{"rt":1594.7000000029802,"stimulus":"[A] option 1, [L] option 2, [G] neither","key_press":76,"name":"choice","trial_type":"html-keyboard-response","trial_index":65,"time_elapsed":168748,"internal_node_id":"0.0-65.0","subject":"S1C1677","sona":"41534","block":2,"time":"2021-09-28T14:20:57.869Z","response":"2nd","certainty":"high","char":"L","transposition":-2,"order":["swapped","shifted"],"probe_pitches":[3,5,1,-2,5,-2,5,1,3,5,1,10,8,5,-2,1],"shifted_pitches":[3,5,1,-2,5,-2,5,2,3,5,1,10,8,5,-2,1],"swapped_pitches":[3,5,1,-2,5,-2,5,3,1,5,1,10,8,5,-2,1],"shift_direction":1,"question_num":51,"has_decoy":false},{"rt":1927,"stimulus":"[A] option 1, [L] option 2, [G] neither","key_press":76,"name":"choice","trial_type":"html-keyboard-response","trial_index":76,"time_elapsed":195125,"internal_node_id":"0.0-76.0","subject":"S1C1677","sona":"41534","block":2,"time":"2021-09-28T14:20:57.869Z","response":"2nd","certainty":"high","char":"L","transposition":-3,"order":["swapped","shifted"],"probe_pitches":[1,-2,1,6,3,1,3,1,8,6,8,3,1,6,1,8],"shifted_pitches":[1,-2,1,6,3,1,3,1,9,6,8,3,1,6,1,8],"swapped_pitches":[1,-2,1,6,3,1,3,8,1,6,8,3,1,6,1,8],"shift_direction":1,"question_num":61,"has_decoy":false},{"rt":4467.899999991059,"stimulus":"[A] option 1, [L] option 2, [G] neither","key_press":71,"name":"choice","trial_type":"html-keyboard-response","trial_index":87,"time_elapsed":223644,"internal_node_id":"0.0-87.0","subject":"S1C1677","sona":"41534","block":2,"time":"2021-09-28T14:20:57.869Z","response":"neither","certainty":"high","char":"G","transposition":-1,"order":["swapped","shifted"],"probe_pitches":[4,3,7,14,7,4,5,7,8,3,10,5,2,12,5,3],"shifted_pitches":[4,3,7,14,7,4,5,6,8,3,10,5,2,12,5,3],"swapped_pitches":[4,3,7,14,7,4,5,8,7,3,10,5,2,12,5,3],"shift_direction":-1,"question_num":71,"has_decoy":false},{"rt":1436.5,"stimulus":"[A] option 1, [L] option 2, [G] neither","key_press":76,"name":"choice","trial_type":"html-keyboard-response","trial_index":98,"time_elapsed":248282,"internal_node_id":"0.0-98.0","subject":"S1C1677","sona":"41534","block":2,"time":"2021-09-28T14:20:57.869Z","response":"2nd","certainty":"high","char":"L","transposition":-1,"order":["swapped","shifted"],"probe_pitches":[8,10,5,0,3,5,0,5,8,0,-2,3,0,5,0,8],"shifted_pitches":[8,10,5,0,3,5,0,4,8,0,-2,3,0,5,0,8],"swapped_pitches":[8,10,5,0,3,5,0,8,5,0,-2,3,0,5,0,8],"shift_direction":-1,"question_num":81,"has_decoy":false},{"rt":1658.0999999940395,"stimulus":"[A] option 1, [L] option 2, [G] neither","key_press":65,"name":"choice","trial_type":"html-keyboard-response","trial_index":109,"time_elapsed":273420,"internal_node_id":"0.0-109.0","subject":"S1C1677","sona":"41534","block":2,"time":"2021-09-28T14:20:57.869Z","response":"1st","certainty":"high","char":"A","transposition":1,"order":["shifted","swapped"],"probe_pitches":[2,7,10,7,10,2,-2,10,0,7,10,0,2,-2,10,5],"shifted_pitches":[2,7,10,7,10,2,-2,9,0,7,10,0,2,-2,10,5],"swapped_pitches":[2,7,10,7,10,2,-2,0,10,7,10,0,2,-2,10,5],"shift_direction":-1,"question_num":91,"has_decoy":false},{"rt":1945.300000011921,"stimulus":"[A] option 1, [L] option 2, [G] neither","key_press":71,"name":"choice","trial_type":"html-keyboard-response","trial_index":120,"time_elapsed":298788,"internal_node_id":"0.0-120.0","subject":"S1C1677","sona":"41534","block":2,"time":"2021-09-28T14:20:57.869Z","response":"neither","certainty":"high","char":"G","transposition":1,"order":["shifted","swapped"],"probe_pitches":[7,5,9,8,3,7,6,9,12,5,10,14,10,2,7,2],"shifted_pitches":[7,5,9,8,3,7,6,9,13,5,10,14,10,2,7,2],"swapped_pitches":[7,5,9,8,3,7,6,12,9,5,10,14,10,2,7,2],"shift_direction":1,"question_num":101,"has_decoy":false},{"rt":2623.3999999910593,"stimulus":"[A] option 1, [L] option 2, [G] neither","key_press":71,"name":"choice","trial_type":"html-keyboard-response","trial_index":131,"time_elapsed":326694,"internal_node_id":"0.0-131.0","subject":"S1C1677","sona":"41534","block":2,"time":"2021-09-28T14:20:57.869Z","response":"neither","certainty":"high","char":"G","transposition":-3,"order":["shifted","swapped"],"probe_pitches":[9,12,7,9,3,11,10,3,9,12,6,3,4,12,2,3],"shifted_pitches":[9,12,7,9,3,11,10,3,8,12,6,3,4,12,2,3],"swapped_pitches":[9,12,7,9,3,11,10,9,3,12,6,3,4,12,2,3],"shift_direction":-1,"question_num":111,"has_decoy":false},{"rt":1612.9000000059605,"stimulus":"[A] option 1, [L] option 2, [G] neither","key_press":76,"name":"choice","trial_type":"html-keyboard-response","trial_index":142,"time_elapsed":351960,"internal_node_id":"0.0-142.0","subject":"S1C1677","sona":"41534","block":2,"time":"2021-09-28T14:20:57.869Z","response":"2nd","certainty":"high","char":"L","transposition":0,"order":["swapped","shifted"],"probe_pitches":[5,8,3,-2,5,10,5,-2,0,8,10,-2,0,3,10,5],"shifted_pitches":[5,8,3,-2,5,10,5,-1,0,8,10,-2,0,3,10,5],"swapped_pitches":[5,8,3,-2,5,10,5,0,-2,8,10,-2,0,3,10,5],"shift_direction":1,"question_num":121,"has_decoy":false},{"rt":3454.4000000059605,"stimulus":"[A] option 1, [L] option 2, [G] neither","key_press":76,"name":"choice","trial_type":"html-keyboard-response","trial_index":153,"time_elapsed":379199,"internal_node_id":"0.0-153.0","subject":"S1C1677","sona":"41534","block":2,"time":"2021-09-28T14:20:57.869Z","response":"2nd","certainty":"high","char":"L","transposition":-3,"order":["swapped","shifted"],"probe_pitches":[8,6,5,6,2,6,5,10,8,6,12,14,4,6,14,2],"shifted_pitches":[8,6,5,6,2,6,5,10,9,6,12,14,4,6,14,2],"swapped_pitches":[8,6,5,6,2,6,5,8,10,6,12,14,4,6,14,2],"shift_direction":1,"question_num":131,"has_decoy":false},{"rt":1528.4000000059605,"stimulus":"[A] option 1, [L] option 2, [G] neither","key_press":71,"name":"choice","trial_type":"html-keyboard-response","trial_index":164,"time_elapsed":404493,"internal_node_id":"0.0-164.0","subject":"S1C1677","sona":"41534","block":2,"time":"2021-09-28T14:20:57.869Z","response":"neither","certainty":"high","char":"G","transposition":2,"order":["shifted","swapped"],"probe_pitches":[1,-2,5,8,10,8,1,8,-2,10,3,10,5,-2,10,-2],"shifted_pitches":[1,-2,5,8,10,8,1,8,-3,10,3,10,5,-2,10,-2],"swapped_pitches":[1,-2,5,8,10,8,1,-2,8,10,3,10,5,-2,10,-2],"shift_direction":-1,"question_num":141,"has_decoy":false},{"rt":1783.3999999910593,"stimulus":"[A] option 1, [L] option 2, [G] neither","key_press":76,"name":"choice","trial_type":"html-keyboard-response","trial_index":175,"time_elapsed":429953,"internal_node_id":"0.0-175.0","subject":"S1C1677","sona":"41534","block":2,"time":"2021-09-28T14:20:57.869Z","response":"2nd","certainty":"high","char":"L","transposition":-3,"order":["swapped","shifted"],"probe_pitches":[-2,1,3,6,10,6,-2,6,10,8,10,3,6,10,8,10],"shifted_pitches":[-2,1,3,6,10,6,-2,6,9,8,10,3,6,10,8,10],"swapped_pitches":[-2,1,3,6,10,6,-2,10,6,8,10,3,6,10,8,10],"shift_direction":-1,"question_num":151,"has_decoy":false},{"rt":3951.2999999970198,"stimulus":"[A] option 1, [L] option 2, [G] neither","key_press":71,"name":"choice","trial_type":"html-keyboard-response","trial_index":186,"time_elapsed":457550,"internal_node_id":"0.0-186.0","subject":"S1C1677","sona":"41534","block":2,"time":"2021-09-28T14:20:57.869Z","response":"neither","certainty":"high","char":"G","transposition":-2,"order":["swapped","shifted"],"probe_pitches":[5,6,4,6,10,3,13,6,3,8,6,9,5,14,8,6],"shifted_pitches":[5,6,4,6,10,3,13,7,3,8,6,9,5,14,8,6],"swapped_pitches":[5,6,4,6,10,3,13,3,6,8,6,9,5,14,8,6],"shift_direction":1,"question_num":161,"has_decoy":false},{"rt":3573.2000000029802,"stimulus":"[A] option 1, [L] option 2, [G] neither","key_press":76,"name":"choice","trial_type":"html-keyboard-response","trial_index":197,"time_elapsed":486099,"internal_node_id":"0.0-197.0","subject":"S1C1677","sona":"41534","block":2,"time":"2021-09-28T14:20:57.869Z","response":"2nd","certainty":"high","char":"L","transposition":0,"order":["swapped","shifted"],"probe_pitches":[2,5,6,13,14,5,3,4,12,10,5,3,8,10,6,13],"shifted_pitches":[2,5,6,13,14,5,3,4,11,10,5,3,8,10,6,13],"swapped_pitches":[2,5,6,13,14,5,3,12,4,10,5,3,8,10,6,13],"shift_direction":-1,"question_num":171,"has_decoy":false},{"rt":1461.2999999970198,"stimulus":"[A] option 1, [L] option 2, [G] neither","key_press":76,"name":"choice","trial_type":"html-keyboard-response","trial_index":208,"time_elapsed":511288,"internal_node_id":"0.0-208.0","subject":"S1C1677","sona":"41534","block":2,"time":"2021-09-28T14:20:57.869Z","response":"2nd","certainty":"high","char":"L","transposition":-1,"order":["shifted","swapped"],"probe_pitches":[7,4,9,4,9,10,9,13,5,3,11,3,9,2,10,5],"shifted_pitches":[7,4,9,4,9,10,9,12,5,3,11,3,9,2,10,5],"swapped_pitches":[7,4,9,4,9,10,9,5,13,3,11,3,9,2,10,5],"shift_direction":-1,"question_num":181,"has_decoy":false},{"rt":1671.2999999970198,"stimulus":"[A] option 1, [L] option 2, [G] neither","key_press":76,"name":"choice","trial_type":"html-keyboard-response","trial_index":219,"time_elapsed":536455,"internal_node_id":"0.0-219.0","subject":"S1C1677","sona":"41534","block":2,"time":"2021-09-28T14:20:57.869Z","response":"2nd","certainty":"high","char":"L","transposition":3,"order":["swapped","shifted"],"probe_pitches":[14,12,9,8,12,9,7,3,10,8,9,2,9,13,11,13],"shifted_pitches":[14,12,9,8,12,9,7,4,10,8,9,2,9,13,11,13],"swapped_pitches":[14,12,9,8,12,9,7,10,3,8,9,2,9,13,11,13],"shift_direction":1,"question_num":191,"has_decoy":false}]