[{"rt":2804.199999988079,"stimulus":"[A] option 1, [L] option 2, [G] neither","key_press":71,"name":"choice","trial_type":"html-keyboard-response","trial_index":10,"time_elapsed":30435,"internal_node_id":"0.0-10.0","subject":"S1C1677","sona":"41534","block":4,"time":"2021-09-28T14:39:10.927Z","response":"neither","certainty":"high","char":"G","transposition":-2,"order":["swapped","shifted"],"probe_pitches":[2,8,11,9,6,10,11,3,10,6,14,7,14,8,7,10],"shifted_pitches":[2,8,11,9,6,10,11,4,10,6,14,7,14,8,7,10],"swapped_pitches":[2,8,11,9,6,10,11,10,3,6,14,7,14,8,7,10],"shift_direction":1,"question_num":1,"has_decoy":false},{"rt":6891.0999999940395,"stimulus":"[A] option 1, [L] option 2, [G] neither","key_press":71,"name":"choice","trial_type":"html-keyboard-response","trial_index":21,"time_elapsed":60863,"internal_node_id":"0.0-21.0","subject":"S1C1677","sona":"41534","block":4,"time":"2021-09-28T14:39:10.927Z","response":"neither","certainty":"high","char":"G","transposition":1,"order":["shifted","swapped"],"probe_pitches":[5,7,6,2,10,7,5,7,11,4,14,7,12,5,14,4],"shifted_pitches":[5,7,6,2,10,7,5,8,11,4,14,7,12,5,14,4],"swapped_pitches":[5,7,6,2,10,7,5,11,7,4,14,7,12,5,14,4],"shift_direction":1,"question_num":11,"has_decoy":false},{"rt":7551.5,"stimulus":"[A] option 1, [L] option 2, [G] neither","key_press":71,"name":"choice","trial_type":"html-keyboard-response","trial_index":32,"time_elapsed":93518,"internal_node_id":"0.0-32.0","subject":"S1C1677","sona":"41534","block":4,"time":"2021-09-28T14:39:10.927Z","response":"neither","certainty":"high","char":"G","transposition":-1,"order":["swapped","shifted"],"probe_pitches":[4,10,13,7,3,9,8,10,12,6,13,2,7,4,3,4],"shifted_pitches":[4,10,13,7,3,9,8,11,12,6,13,2,7,4,3,4],"swapped_pitches":[4,10,13,7,3,9,8,12,10,6,13,2,7,4,3,4],"shift_direction":1,"question_num":21,"has_decoy":false},{"rt":1789.3999999910593,"stimulus":"[A] option 1, [L] option 2, [G] neither","key_press":71,"name":"choice","trial_type":"html-keyboard-response","trial_index":43,"time_elapsed":118406,"internal_node_id":"0.0-43.0","subject":"S1C1677","sona":"41534","block":4,"time":"2021-09-28T14:39:10.927Z","response":"neither","certainty":"high","char":"G","transposition":-3,"order":["swapped","shifted"],"probe_pitches":[6,9,6,11,4,13,11,13,1,6,1,6,13,6,11,13],"shifted_pitches":[6,9,6,11,4,13,11,12,1,6,1,6,13,6,11,13],"swapped_pitches":[6,9,6,11,4,13,11,1,13,6,1,6,13,6,11,13],"shift_direction":-1,"question_num":31,"has_decoy":false},{"rt":8838.29999999702,"stimulus":"[A] option 1, [L] option 2, [G] neither","key_press":71,"name":"choice","trial_type":"html-keyboard-response","trial_index":54,"time_elapsed":150298,"internal_node_id":"0.0-54.0","subject":"S1C1677","sona":"41534","block":4,"time":"2021-09-28T14:39:10.927Z","response":"neither","certainty":"high","char":"G","transposition":2,"order":["shifted","swapped"],"probe_pitches":[10,13,8,13,8,13,10,1,13,5,13,3,13,8,10,8],"shifted_pitches":[10,13,8,13,8,13,10,1,12,5,13,3,13,8,10,8],"swapped_pitches":[10,13,8,13,8,13,10,13,1,5,13,3,13,8,10,8],"shift_direction":-1,"question_num":41,"has_decoy":false},{"rt":1491.8999999910593,"stimulus":"[A] option 1, [L] option 2, [G] neither","key_press":71,"name":"choice","trial_type":"html-keyboard-response","trial_index":65,"time_elapsed":175228,"internal_node_id":"0.0-65.0","subject":"S1C1677","sona":"41534","block":4,"time":"2021-09-28T14:39:10.927Z","response":"neither","certainty":"high","char":"G","transposition":2,"order":["shifted","swapped"],"probe_pitches":[8,14,10,13,9,7,10,11,7,10,8,9,8,9,5,2],"shifted_pitches":[8,14,10,13,9,7,10,11,6,10,8,9,8,9,5,2],"swapped_pitches":[8,14,10,13,9,7,10,7,11,10,8,9,8,9,5,2],"shift_direction":-1,"question_num":51,"has_decoy":false},{"rt":1063.7999999970198,"stimulus":"[A] option 1, [L] option 2, [G] neither","key_press":76,"name":"choice","trial_type":"html-keyboard-response","trial_index":76,"time_elapsed":199947,"internal_node_id":"0.0-76.0","subject":"S1C1677","sona":"41534","block":4,"time":"2021-09-28T14:39:10.927Z","response":"2nd","certainty":"high","char":"L","transposition":-1,"order":["swapped","shifted"],"probe_pitches":[4,8,6,11,6,4,1,4,11,8,13,6,4,8,4,6],"shifted_pitches":[4,8,6,11,6,4,1,3,11,8,13,6,4,8,4,6],"swapped_pitches":[4,8,6,11,6,4,1,11,4,8,13,6,4,8,4,6],"shift_direction":-1,"question_num":61,"has_decoy":false},{"rt":1396.5,"stimulus":"[A] option 1, [L] option 2, [G] neither","key_press":71,"name":"choice","trial_type":"html-keyboard-response","trial_index":87,"time_elapsed":224519,"internal_node_id":"0.0-87.0","subject":"S1C1677","sona":"41534","block":4,"time":"2021-09-28T14:39:10.927Z","response":"neither","certainty":"high","char":"G","transposition":0,"order":["swapped","shifted"],"probe_pitches":[6,10,13,8,10,13,8,10,1,6,13,8,3,1,6,3],"shifted_pitches":[6,10,13,8,10,13,8,10,2,6,13,8,3,1,6,3],"swapped_pitches":[6,10,13,8,10,13,8,1,10,6,13,8,3,1,6,3],"shift_direction":1,"question_num":71,"has_decoy":false},{"rt":2080.2000000029802,"stimulus":"[A] option 1, [L] option 2, [G] neither","key_press":71,"name":"choice","trial_type":"html-keyboard-response","trial_index":98,"time_elapsed":249582,"internal_node_id":"0.0-98.0","subject":"S1C1677","sona":"41534","block":4,"time":"2021-09-28T14:39:10.927Z","response":"neither","certainty":"high","char":"G","transposition":-2,"order":["swapped","shifted"],"probe_pitches":[8,5,10,3,5,1,5,10,8,3,10,1,13,3,1,8],"shifted_pitches":[8,5,10,3,5,1,5,11,8,3,10,1,13,3,1,8],"swapped_pitches":[8,5,10,3,5,1,5,8,10,3,10,1,13,3,1,8],"shift_direction":1,"question_num":81,"has_decoy":false},{"rt":5056,"stimulus":"[A] option 1, [L] option 2, [G] neither","key_press":71,"name":"choice","trial_type":"html-keyboard-response","trial_index":109,"time_elapsed":279133,"internal_node_id":"0.0-109.0","subject":"S1C1677","sona":"41534","block":4,"time":"2021-09-28T14:39:10.927Z","response":"neither","certainty":"high","char":"G","transposition":-3,"order":["shifted","swapped"],"probe_pitches":[2,4,3,2,7,5,7,8,11,7,10,14,13,9,8,5],"shifted_pitches":[2,4,3,2,7,5,7,8,12,7,10,14,13,9,8,5],"swapped_pitches":[2,4,3,2,7,5,7,11,8,7,10,14,13,9,8,5],"shift_direction":1,"question_num":91,"has_decoy":false},{"rt":3125.2000000029802,"stimulus":"[A] option 1, [L] option 2, [G] neither","key_press":71,"name":"choice","trial_type":"html-keyboard-response","trial_index":120,"time_elapsed":306077,"internal_node_id":"0.0-120.0","subject":"S1C1677","sona":"41534","block":4,"time":"2021-09-28T14:39:10.927Z","response":"neither","certainty":"high","char":"G","transposition":-1,"order":["shifted","swapped"],"probe_pitches":[11,6,10,2,10,14,12,14,8,3,5,10,4,9,8,6],"shifted_pitches":[11,6,10,2,10,14,12,14,7,3,5,10,4,9,8,6],"swapped_pitches":[11,6,10,2,10,14,12,8,14,3,5,10,4,9,8,6],"shift_direction":-1,"question_num":101,"has_decoy":false},{"rt":1047.9000000059605,"stimulus":"[A] option 1, [L] option 2, [G] neither","key_press":71,"name":"choice","trial_type":"html-keyboard-response","trial_index":131,"time_elapsed":330671,"internal_node_id":"0.0-131.0","subject":"S1C1677","sona":"41534","block":4,"time":"2021-09-28T14:39:10.927Z","response":"neither","certainty":"high","char":"G","transposition":-3,"order":["shifted","swapped"],"probe_pitches":[6,8,3,11,8,3,11,8,3,13,1,3,8,6,3,13],"shifted_pitches":[6,8,3,11,8,3,11,8,2,13,1,3,8,6,3,13],"swapped_pitches":[6,8,3,11,8,3,11,3,8,13,1,3,8,6,3,13],"shift_direction":-1,"question_num":111,"has_decoy":false},{"rt":6457.600000008941,"stimulus":"[A] option 1, [L] option 2, [G] neither","key_press":71,"name":"choice","trial_type":"html-keyboard-response","trial_index":142,"time_elapsed":360209,"internal_node_id":"0.0-142.0","subject":"S1C1677","sona":"41534","block":4,"time":"2021-09-28T14:39:10.927Z","response":"neither","certainty":"high","char":"G","transposition":-2,"order":["swapped","shifted"],"probe_pitches":[8,3,6,3,6,1,3,10,8,1,8,6,3,10,3,6],"shifted_pitches":[8,3,6,3,6,1,3,10,9,1,8,6,3,10,3,6],"swapped_pitches":[8,3,6,3,6,1,3,8,10,1,8,6,3,10,3,6],"shift_direction":1,"question_num":121,"has_decoy":false},{"rt":2133.5,"stimulus":"[A] option 1, [L] option 2, [G] neither","key_press":71,"name":"choice","trial_type":"html-keyboard-response","trial_index":153,"time_elapsed":387831,"internal_node_id":"0.0-153.0","subject":"S1C1677","sona":"41534","block":4,"time":"2021-09-28T14:39:10.927Z","response":"neither","certainty":"high","char":"G","transposition":3,"order":["swapped","shifted"],"probe_pitches":[6,10,8,10,6,5,10,8,12,2,10,7,6,11,6,14],"shifted_pitches":[6,10,8,10,6,5,10,9,12,2,10,7,6,11,6,14],"swapped_pitches":[6,10,8,10,6,5,10,12,8,2,10,7,6,11,6,14],"shift_direction":1,"question_num":131,"has_decoy":false},{"rt":5637.70000000298,"stimulus":"[A] option 1, [L] option 2, [G] neither","key_press":71,"name":"choice","trial_type":"html-keyboard-response","trial_index":164,"time_elapsed":416769,"internal_node_id":"0.0-164.0","subject":"S1C1677","sona":"41534","block":4,"time":"2021-09-28T14:39:10.927Z","response":"neither","certainty":"high","char":"G","transposition":1,"order":["shifted","swapped"],"probe_pitches":[13,8,4,8,11,1,11,6,13,11,1,6,13,11,8,6],"shifted_pitches":[13,8,4,8,11,1,11,6,12,11,1,6,13,11,8,6],"swapped_pitches":[13,8,4,8,11,1,11,13,6,11,1,6,13,11,8,6],"shift_direction":-1,"question_num":141,"has_decoy":false},{"rt":1571.2000000029802,"stimulus":"[A] option 1, [L] option 2, [G] neither","key_press":71,"name":"choice","trial_type":"html-keyboard-response","trial_index":175,"time_elapsed":444874,"internal_node_id":"0.0-175.0","subject":"S1C1677","sona":"41534","block":4,"time":"2021-09-28T14:39:10.927Z","response":"neither","certainty":"high","char":"G","transposition":0,"order":["swapped","shifted"],"probe_pitches":[13,9,5,4,12,8,12,13,11,6,5,4,14,5,14,8],"shifted_pitches":[13,9,5,4,12,8,12,13,10,6,5,4,14,5,14,8],"swapped_pitches":[13,9,5,4,12,8,12,11,13,6,5,4,14,5,14,8],"shift_direction":-1,"question_num":151,"has_decoy":false},{"rt":1381.7000000029802,"stimulus":"[A] option 1, [L] option 2, [G] neither","key_press":71,"name":"choice","trial_type":"html-keyboard-response","trial_index":186,"time_elapsed":472018,"internal_node_id":"0.0-186.0","subject":"S1C1677","sona":"41534","block":4,"time":"2021-09-28T14:39:10.927Z","response":"neither","certainty":"high","char":"G","transposition":-3,"order":["swapped","shifted"],"probe_pitches":[13,7,10,13,7,6,12,10,6,2,3,4,7,2,13,2],"shifted_pitches":[13,7,10,13,7,6,12,10,5,2,3,4,7,2,13,2],"swapped_pitches":[13,7,10,13,7,6,12,6,10,2,3,4,7,2,13,2],"shift_direction":-1,"question_num":161,"has_decoy":false},{"rt":8484.90000000596,"stimulus":"[A] option 1, [L] option 2, [G] neither","key_press":71,"name":"choice","trial_type":"html-keyboard-response","trial_index":197,"time_elapsed":504011,"internal_node_id":"0.0-197.0","subject":"S1C1677","sona":"41534","block":4,"time":"2021-09-28T14:39:10.927Z","response":"neither","certainty":"high","char":"G","transposition":-1,"order":["shifted","swapped"],"probe_pitches":[11,13,8,1,3,11,1,8,11,13,8,6,1,3,1,3],"shifted_pitches":[11,13,8,1,3,11,1,9,11,13,8,6,1,3,1,3],"swapped_pitches":[11,13,8,1,3,11,1,11,8,13,8,6,1,3,1,3],"shift_direction":1,"question_num":171,"has_decoy":false},{"rt":4078.2999999970198,"stimulus":"[A] option 1, [L] option 2, [G] neither","key_press":71,"name":"choice","trial_type":"html-keyboard-response","trial_index":208,"time_elapsed":532106,"internal_node_id":"0.0-208.0","subject":"S1C1677","sona":"41534","block":4,"time":"2021-09-28T14:39:10.927Z","response":"neither","certainty":"high","char":"G","transposition":-2,"order":["shifted","swapped"],"probe_pitches":[3,4,2,10,7,12,7,2,14,11,10,2,9,5,4,5],"shifted_pitches":[3,4,2,10,7,12,7,1,14,11,10,2,9,5,4,5],"swapped_pitches":[3,4,2,10,7,12,7,14,2,11,10,2,9,5,4,5],"shift_direction":-1,"question_num":181,"has_decoy":false},{"rt":10878.40000000596,"stimulus":"[A] option 1, [L] option 2, [G] neither","key_press":71,"name":"choice","trial_type":"html-keyboard-response","trial_index":219,"time_elapsed":566532,"internal_node_id":"0.0-219.0","subject":"S1C1677","sona":"41534","block":4,"time":"2021-09-28T14:39:10.927Z","response":"neither","certainty":"high","char":"G","transposition":3,"order":["shifted","swapped"],"probe_pitches":[11,13,11,9,1,4,13,6,4,13,1,9,11,6,1,11],"shifted_pitches":[11,13,11,9,1,4,13,7,4,13,1,9,11,6,1,11],"swapped_pitches":[11,13,11,9,1,4,13,4,6,13,1,9,11,6,1,11],"shift_direction":1,"question_num":191,"has_decoy":false}]