[{"rt":1225.0999999940395,"stimulus":"[A] option 1, [L] option 2, [G] neither","key_press":76,"name":"choice","trial_type":"html-keyboard-response","trial_index":10,"time_elapsed":24823,"internal_node_id":"0.0-10.0","subject":"S1C1677","sona":"41534","block":5,"time":"2021-09-28T14:48:28.191Z","response":"2nd","certainty":"high","char":"L","transposition":3,"order":["swapped","shifted"],"probe_pitches":[6,5,6,4,3,0,3,2,-2,8,-1,5,8,9,4,10],"shifted_pitches":[6,5,6,4,3,0,3,1,-2,8,-1,5,8,9,4,10],"swapped_pitches":[6,5,6,4,3,0,3,-2,2,8,-1,5,8,9,4,10],"shift_direction":-1,"question_num":1,"has_decoy":false},{"rt":4095,"stimulus":"[A] option 1, [L] option 2, [G] neither","key_press":76,"name":"choice","trial_type":"html-keyboard-response","trial_index":21,"time_elapsed":52663,"internal_node_id":"0.0-21.0","subject":"S1C1677","sona":"41534","block":5,"time":"2021-09-28T14:48:28.191Z","response":"2nd","certainty":"high","char":"L","transposition":-1,"order":["shifted","swapped"],"probe_pitches":[3,4,6,7,3,-2,0,-2,8,10,1,6,-2,3,8,0],"shifted_pitches":[3,4,6,7,3,-2,0,-2,9,10,1,6,-2,3,8,0],"swapped_pitches":[3,4,6,7,3,-2,0,8,-2,10,1,6,-2,3,8,0],"shift_direction":1,"question_num":11,"has_decoy":false},{"rt":1082.699999988079,"stimulus":"[A] option 1, [L] option 2, [G] neither","key_press":71,"name":"choice","trial_type":"html-keyboard-response","trial_index":32,"time_elapsed":77448,"internal_node_id":"0.0-32.0","subject":"S1C1677","sona":"41534","block":5,"time":"2021-09-28T14:48:28.191Z","response":"neither","certainty":"high","char":"G","transposition":-2,"order":["shifted","swapped"],"probe_pitches":[10,6,-1,0,-2,1,10,5,0,-1,8,0,3,8,6,0],"shifted_pitches":[10,6,-1,0,-2,1,10,4,0,-1,8,0,3,8,6,0],"swapped_pitches":[10,6,-1,0,-2,1,10,0,5,-1,8,0,3,8,6,0],"shift_direction":-1,"question_num":21,"has_decoy":false},{"rt":2466.8999999910593,"stimulus":"[A] option 1, [L] option 2, [G] neither","key_press":71,"name":"choice","trial_type":"html-keyboard-response","trial_index":43,"time_elapsed":105819,"internal_node_id":"0.0-43.0","subject":"S1C1677","sona":"41534","block":5,"time":"2021-09-28T14:48:28.191Z","response":"neither","certainty":"high","char":"G","transposition":0,"order":["swapped","shifted"],"probe_pitches":[8,5,8,12,3,8,10,5,12,8,0,10,8,5,12,0],"shifted_pitches":[8,5,8,12,3,8,10,5,13,8,0,10,8,5,12,0],"swapped_pitches":[8,5,8,12,3,8,10,12,5,8,0,10,8,5,12,0],"shift_direction":1,"question_num":31,"has_decoy":false},{"rt":1471.5,"stimulus":"[A] option 1, [L] option 2, [G] neither","key_press":71,"name":"choice","trial_type":"html-keyboard-response","trial_index":54,"time_elapsed":131575,"internal_node_id":"0.0-54.0","subject":"S1C1677","sona":"41534","block":5,"time":"2021-09-28T14:48:28.191Z","response":"neither","certainty":"high","char":"G","transposition":3,"order":["swapped","shifted"],"probe_pitches":[5,3,5,0,5,3,5,10,3,7,10,7,0,12,3,0],"shifted_pitches":[5,3,5,0,5,3,5,9,3,7,10,7,0,12,3,0],"swapped_pitches":[5,3,5,0,5,3,5,3,10,7,10,7,0,12,3,0],"shift_direction":-1,"question_num":41,"has_decoy":false},{"rt":9252.10000000894,"stimulus":"[A] option 1, [L] option 2, [G] neither","key_press":71,"name":"choice","trial_type":"html-keyboard-response","trial_index":65,"time_elapsed":167099,"internal_node_id":"0.0-65.0","subject":"S1C1677","sona":"41534","block":5,"time":"2021-09-28T14:48:28.191Z","response":"neither","certainty":"high","char":"G","transposition":-3,"order":["shifted","swapped"],"probe_pitches":[5,0,5,7,0,3,12,5,10,7,12,5,3,0,12,3],"shifted_pitches":[5,0,5,7,0,3,12,4,10,7,12,5,3,0,12,3],"swapped_pitches":[5,0,5,7,0,3,12,10,5,7,12,5,3,0,12,3],"shift_direction":-1,"question_num":51,"has_decoy":false},{"rt":1507,"stimulus":"[A] option 1, [L] option 2, [G] neither","key_press":76,"name":"choice","trial_type":"html-keyboard-response","trial_index":76,"time_elapsed":194240,"internal_node_id":"0.0-76.0","subject":"S1C1677","sona":"41534","block":5,"time":"2021-09-28T14:48:28.191Z","response":"2nd","certainty":"high","char":"L","transposition":-2,"order":["swapped","shifted"],"probe_pitches":[0,2,7,0,7,12,4,12,9,4,7,2,4,2,12,2],"shifted_pitches":[0,2,7,0,7,12,4,13,9,4,7,2,4,2,12,2],"swapped_pitches":[0,2,7,0,7,12,4,9,12,4,7,2,4,2,12,2],"shift_direction":1,"question_num":61,"has_decoy":false},{"rt":1040,"stimulus":"[A] option 1, [L] option 2, [G] neither","key_press":71,"name":"choice","trial_type":"html-keyboard-response","trial_index":87,"time_elapsed":218706,"internal_node_id":"0.0-87.0","subject":"S1C1677","sona":"41534","block":5,"time":"2021-09-28T14:48:28.191Z","response":"neither","certainty":"high","char":"G","transposition":-2,"order":["shifted","swapped"],"probe_pitches":[5,0,5,7,9,7,12,9,7,5,12,0,7,2,12,7],"shifted_pitches":[5,0,5,7,9,7,12,9,8,5,12,0,7,2,12,7],"swapped_pitches":[5,0,5,7,9,7,12,7,9,5,12,0,7,2,12,7],"shift_direction":1,"question_num":71,"has_decoy":false},{"rt":3325.199999988079,"stimulus":"[A] option 1, [L] option 2, [G] neither","key_press":71,"name":"choice","trial_type":"html-keyboard-response","trial_index":98,"time_elapsed":245460,"internal_node_id":"0.0-98.0","subject":"S1C1677","sona":"41534","block":5,"time":"2021-09-28T14:48:28.191Z","response":"neither","certainty":"high","char":"G","transposition":-1,"order":["shifted","swapped"],"probe_pitches":[5,-1,4,9,0,7,10,0,5,1,10,9,7,4,7,2],"shifted_pitches":[5,-1,4,9,0,7,10,0,6,1,10,9,7,4,7,2],"swapped_pitches":[5,-1,4,9,0,7,10,5,0,1,10,9,7,4,7,2],"shift_direction":1,"question_num":81,"has_decoy":false},{"rt":3712.9000000059605,"stimulus":"[A] option 1, [L] option 2, [G] neither","key_press":71,"name":"choice","trial_type":"html-keyboard-response","trial_index":109,"time_elapsed":273437,"internal_node_id":"0.0-109.0","subject":"S1C1677","sona":"41534","block":5,"time":"2021-09-28T14:48:28.191Z","response":"neither","certainty":"high","char":"G","transposition":-3,"order":["swapped","shifted"],"probe_pitches":[0,5,0,7,5,10,7,10,0,2,10,2,10,2,7,2],"shifted_pitches":[0,5,0,7,5,10,7,10,-1,2,10,2,10,2,7,2],"swapped_pitches":[0,5,0,7,5,10,7,0,10,2,10,2,10,2,7,2],"shift_direction":-1,"question_num":91,"has_decoy":false},{"rt":2631.9000000059605,"stimulus":"[A] option 1, [L] option 2, [G] neither","key_press":71,"name":"choice","trial_type":"html-keyboard-response","trial_index":120,"time_elapsed":303182,"internal_node_id":"0.0-120.0","subject":"S1C1677","sona":"41534","block":5,"time":"2021-09-28T14:48:28.191Z","response":"neither","certainty":"high","char":"G","transposition":0,"order":["swapped","shifted"],"probe_pitches":[4,5,-1,3,5,6,3,9,1,6,0,5,8,-2,4,-2],"shifted_pitches":[4,5,-1,3,5,6,3,9,2,6,0,5,8,-2,4,-2],"swapped_pitches":[4,5,-1,3,5,6,3,1,9,6,0,5,8,-2,4,-2],"shift_direction":1,"question_num":101,"has_decoy":false},{"rt":1774.300000011921,"stimulus":"[A] option 1, [L] option 2, [G] neither","key_press":71,"name":"choice","trial_type":"html-keyboard-response","trial_index":131,"time_elapsed":332021,"internal_node_id":"0.0-131.0","subject":"S1C1677","sona":"41534","block":5,"time":"2021-09-28T14:48:28.191Z","response":"neither","certainty":"high","char":"G","transposition":-1,"order":["shifted","swapped"],"probe_pitches":[3,0,5,8,12,5,0,12,8,3,12,10,5,3,5,12],"shifted_pitches":[3,0,5,8,12,5,0,12,9,3,12,10,5,3,5,12],"swapped_pitches":[3,0,5,8,12,5,0,8,12,3,12,10,5,3,5,12],"shift_direction":1,"question_num":111,"has_decoy":false},{"rt":4262,"stimulus":"[A] option 1, [L] option 2, [G] neither","key_press":71,"name":"choice","trial_type":"html-keyboard-response","trial_index":142,"time_elapsed":359698,"internal_node_id":"0.0-142.0","subject":"S1C1677","sona":"41534","block":5,"time":"2021-09-28T14:48:28.191Z","response":"neither","certainty":"high","char":"G","transposition":-3,"order":["shifted","swapped"],"probe_pitches":[10,7,3,0,4,6,3,4,10,8,-2,4,0,9,2,4],"shifted_pitches":[10,7,3,0,4,6,3,5,10,8,-2,4,0,9,2,4],"swapped_pitches":[10,7,3,0,4,6,3,10,4,8,-2,4,0,9,2,4],"shift_direction":1,"question_num":121,"has_decoy":false},{"rt":7117.20000000298,"stimulus":"[A] option 1, [L] option 2, [G] neither","key_press":71,"name":"choice","trial_type":"html-keyboard-response","trial_index":153,"time_elapsed":390696,"internal_node_id":"0.0-153.0","subject":"S1C1677","sona":"41534","block":5,"time":"2021-09-28T14:48:28.191Z","response":"neither","certainty":"high","char":"G","transposition":1,"order":["swapped","shifted"],"probe_pitches":[1,3,0,7,2,10,5,4,7,6,5,0,9,6,0,7],"shifted_pitches":[1,3,0,7,2,10,5,4,8,6,5,0,9,6,0,7],"swapped_pitches":[1,3,0,7,2,10,5,7,4,6,5,0,9,6,0,7],"shift_direction":1,"question_num":131,"has_decoy":false},{"rt":4482.5,"stimulus":"[A] option 1, [L] option 2, [G] neither","key_press":71,"name":"choice","trial_type":"html-keyboard-response","trial_index":164,"time_elapsed":418494,"internal_node_id":"0.0-164.0","subject":"S1C1677","sona":"41534","block":5,"time":"2021-09-28T14:48:28.191Z","response":"neither","certainty":"high","char":"G","transposition":2,"order":["shifted","swapped"],"probe_pitches":[5,8,2,5,9,10,-1,8,9,6,2,-2,5,-2,3,1],"shifted_pitches":[5,8,2,5,9,10,-1,7,9,6,2,-2,5,-2,3,1],"swapped_pitches":[5,8,2,5,9,10,-1,9,8,6,2,-2,5,-2,3,1],"shift_direction":-1,"question_num":141,"has_decoy":false},{"rt":4088.0999999940395,"stimulus":"[A] option 1, [L] option 2, [G] neither","key_press":71,"name":"choice","trial_type":"html-keyboard-response","trial_index":175,"time_elapsed":449779,"internal_node_id":"0.0-175.0","subject":"S1C1677","sona":"41534","block":5,"time":"2021-09-28T14:48:28.191Z","response":"neither","certainty":"high","char":"G","transposition":1,"order":["shifted","swapped"],"probe_pitches":[0,5,7,9,7,12,5,7,12,9,2,0,12,7,12,7],"shifted_pitches":[0,5,7,9,7,12,5,7,13,9,2,0,12,7,12,7],"swapped_pitches":[0,5,7,9,7,12,5,12,7,9,2,0,12,7,12,7],"shift_direction":1,"question_num":151,"has_decoy":false},{"rt":1359.2000000029802,"stimulus":"[A] option 1, [L] option 2, [G] neither","key_press":71,"name":"choice","trial_type":"html-keyboard-response","trial_index":186,"time_elapsed":474501,"internal_node_id":"0.0-186.0","subject":"S1C1677","sona":"41534","block":5,"time":"2021-09-28T14:48:28.191Z","response":"neither","certainty":"high","char":"G","transposition":-2,"order":["swapped","shifted"],"probe_pitches":[10,7,0,5,2,5,8,4,5,-2,7,-2,-1,8,5,9],"shifted_pitches":[10,7,0,5,2,5,8,3,5,-2,7,-2,-1,8,5,9],"swapped_pitches":[10,7,0,5,2,5,8,5,4,-2,7,-2,-1,8,5,9],"shift_direction":-1,"question_num":161,"has_decoy":false},{"rt":837.4000000059605,"stimulus":"[A] option 1, [L] option 2, [G] neither","key_press":71,"name":"choice","trial_type":"html-keyboard-response","trial_index":197,"time_elapsed":500165,"internal_node_id":"0.0-197.0","subject":"S1C1677","sona":"41534","block":5,"time":"2021-09-28T14:48:28.191Z","response":"neither","certainty":"high","char":"G","transposition":-3,"order":["swapped","shifted"],"probe_pitches":[10,4,3,10,2,3,-2,3,1,7,1,2,-2,3,9,1],"shifted_pitches":[10,4,3,10,2,3,-2,3,0,7,1,2,-2,3,9,1],"swapped_pitches":[10,4,3,10,2,3,-2,1,3,7,1,2,-2,3,9,1],"shift_direction":-1,"question_num":171,"has_decoy":false},{"rt":4570.4000000059605,"stimulus":"[A] option 1, [L] option 2, [G] neither","key_press":71,"name":"choice","trial_type":"html-keyboard-response","trial_index":208,"time_elapsed":528576,"internal_node_id":"0.0-208.0","subject":"S1C1677","sona":"41534","block":5,"time":"2021-09-28T14:48:28.191Z","response":"neither","certainty":"high","char":"G","transposition":2,"order":["shifted","swapped"],"probe_pitches":[9,4,0,7,0,7,2,0,12,4,12,7,2,0,2,0],"shifted_pitches":[9,4,0,7,0,7,2,-1,12,4,12,7,2,0,2,0],"swapped_pitches":[9,4,0,7,0,7,2,12,0,4,12,7,2,0,2,0],"shift_direction":-1,"question_num":181,"has_decoy":false},{"rt":1360.7000000029802,"stimulus":"[A] option 1, [L] option 2, [G] neither","key_press":71,"name":"choice","trial_type":"html-keyboard-response","trial_index":219,"time_elapsed":553465,"internal_node_id":"0.0-219.0","subject":"S1C1677","sona":"41534","block":5,"time":"2021-09-28T14:48:28.191Z","response":"neither","certainty":"high","char":"G","transposition":-1,"order":["swapped","shifted"],"probe_pitches":[12,10,5,2,5,0,10,7,2,10,2,7,5,0,12,0],"shifted_pitches":[12,10,5,2,5,0,10,6,2,10,2,7,5,0,12,0],"swapped_pitches":[12,10,5,2,5,0,10,2,7,10,2,7,5,0,12,0],"shift_direction":-1,"question_num":191,"has_decoy":false}]