[{"rt":951.9000000059605,"stimulus":"[A] option 1, [L] option 2, [G] neither","key_press":76,"name":"choice","trial_type":"html-keyboard-response","trial_index":10,"time_elapsed":23868,"internal_node_id":"0.0-10.0","subject":"S1C1677","sona":"41534","block":3,"time":"2021-09-28T14:29:40.531Z","response":"2nd","certainty":"high","char":"L","transposition":1,"order":["shifted","swapped"],"probe_pitches":[-1,4,5,1,6,8,3,4,10,5,4,-1,7,5,0,4],"shifted_pitches":[-1,4,5,1,6,8,3,4,9,5,4,-1,7,5,0,4],"swapped_pitches":[-1,4,5,1,6,8,3,10,4,5,4,-1,7,5,0,4],"shift_direction":-1,"question_num":1,"has_decoy":false},{"rt":1425.800000011921,"stimulus":"[A] option 1, [L] option 2, [G] neither","key_press":71,"name":"choice","trial_type":"html-keyboard-response","trial_index":21,"time_elapsed":48396,"internal_node_id":"0.0-21.0","subject":"S1C1677","sona":"41534","block":3,"time":"2021-09-28T14:29:40.531Z","response":"neither","certainty":"high","char":"G","transposition":3,"order":["shifted","swapped"],"probe_pitches":[2,-3,2,4,9,4,2,4,-1,-3,6,-1,6,9,6,-3],"shifted_pitches":[2,-3,2,4,9,4,2,5,-1,-3,6,-1,6,9,6,-3],"swapped_pitches":[2,-3,2,4,9,4,2,-1,4,-3,6,-1,6,9,6,-3],"shift_direction":1,"question_num":11,"has_decoy":false},{"rt":1421.2999999970198,"stimulus":"[A] option 1, [L] option 2, [G] neither","key_press":71,"name":"choice","trial_type":"html-keyboard-response","trial_index":32,"time_elapsed":72995,"internal_node_id":"0.0-32.0","subject":"S1C1677","sona":"41534","block":3,"time":"2021-09-28T14:29:40.531Z","response":"neither","certainty":"high","char":"G","transposition":-3,"order":["swapped","shifted"],"probe_pitches":[2,7,0,3,1,4,-1,6,8,1,6,3,0,2,3,10],"shifted_pitches":[2,7,0,3,1,4,-1,5,8,1,6,3,0,2,3,10],"swapped_pitches":[2,7,0,3,1,4,-1,8,6,1,6,3,0,2,3,10],"shift_direction":-1,"question_num":21,"has_decoy":false},{"rt":1663.1000000089407,"stimulus":"[A] option 1, [L] option 2, [G] neither","key_press":71,"name":"choice","trial_type":"html-keyboard-response","trial_index":43,"time_elapsed":97914,"internal_node_id":"0.0-43.0","subject":"S1C1677","sona":"41534","block":3,"time":"2021-09-28T14:29:40.531Z","response":"neither","certainty":"high","char":"G","transposition":-2,"order":["swapped","shifted"],"probe_pitches":[0,2,-3,0,7,2,0,2,4,9,4,7,9,2,0,-3],"shifted_pitches":[0,2,-3,0,7,2,0,1,4,9,4,7,9,2,0,-3],"swapped_pitches":[0,2,-3,0,7,2,0,4,2,9,4,7,9,2,0,-3],"shift_direction":-1,"question_num":31,"has_decoy":false},{"rt":989.9000000059605,"stimulus":"[A] option 1, [L] option 2, [G] neither","key_press":71,"name":"choice","trial_type":"html-keyboard-response","trial_index":54,"time_elapsed":121907,"internal_node_id":"0.0-54.0","subject":"S1C1677","sona":"41534","block":3,"time":"2021-09-28T14:29:40.531Z","response":"neither","certainty":"high","char":"G","transposition":-3,"order":["shifted","swapped"],"probe_pitches":[-3,2,7,5,7,9,2,-3,9,5,7,0,5,0,7,9],"shifted_pitches":[-3,2,7,5,7,9,2,-3,8,5,7,0,5,0,7,9],"swapped_pitches":[-3,2,7,5,7,9,2,9,-3,5,7,0,5,0,7,9],"shift_direction":-1,"question_num":41,"has_decoy":false},{"rt":2682.7000000029802,"stimulus":"[A] option 1, [L] option 2, [G] neither","key_press":71,"name":"choice","trial_type":"html-keyboard-response","trial_index":65,"time_elapsed":148880,"internal_node_id":"0.0-65.0","subject":"S1C1677","sona":"41534","block":3,"time":"2021-09-28T14:29:40.531Z","response":"neither","certainty":"high","char":"G","transposition":-3,"order":["swapped","shifted"],"probe_pitches":[6,4,9,4,-1,-3,4,-3,1,4,9,1,9,-1,-3,4],"shifted_pitches":[6,4,9,4,-1,-3,4,-3,2,4,9,1,9,-1,-3,4],"swapped_pitches":[6,4,9,4,-1,-3,4,1,-3,4,9,1,9,-1,-3,4],"shift_direction":1,"question_num":51,"has_decoy":false},{"rt":1752.6000000089407,"stimulus":"[A] option 1, [L] option 2, [G] neither","key_press":71,"name":"choice","trial_type":"html-keyboard-response","trial_index":76,"time_elapsed":174510,"internal_node_id":"0.0-76.0","subject":"S1C1677","sona":"41534","block":3,"time":"2021-09-28T14:29:40.531Z","response":"neither","certainty":"high","char":"G","transposition":-3,"order":["swapped","shifted"],"probe_pitches":[9,3,2,4,1,-1,1,9,8,5,0,2,1,8,6,3],"shifted_pitches":[9,3,2,4,1,-1,1,9,7,5,0,2,1,8,6,3],"swapped_pitches":[9,3,2,4,1,-1,1,8,9,5,0,2,1,8,6,3],"shift_direction":-1,"question_num":61,"has_decoy":false},{"rt":1317.2000000029802,"stimulus":"[A] option 1, [L] option 2, [G] neither","key_press":76,"name":"choice","trial_type":"html-keyboard-response","trial_index":87,"time_elapsed":199237,"internal_node_id":"0.0-87.0","subject":"S1C1677","sona":"41534","block":3,"time":"2021-09-28T14:29:40.531Z","response":"2nd","certainty":"high","char":"L","transposition":-1,"order":["swapped","shifted"],"probe_pitches":[4,2,-1,7,2,-1,4,-3,7,9,-3,4,9,2,-3,9],"shifted_pitches":[4,2,-1,7,2,-1,4,-4,7,9,-3,4,9,2,-3,9],"swapped_pitches":[4,2,-1,7,2,-1,4,7,-3,9,-3,4,9,2,-3,9],"shift_direction":-1,"question_num":71,"has_decoy":false},{"rt":4909,"stimulus":"[A] option 1, [L] option 2, [G] neither","key_press":76,"name":"choice","trial_type":"html-keyboard-response","trial_index":98,"time_elapsed":227708,"internal_node_id":"0.0-98.0","subject":"S1C1677","sona":"41534","block":3,"time":"2021-09-28T14:29:40.531Z","response":"2nd","certainty":"high","char":"L","transposition":-2,"order":["shifted","swapped"],"probe_pitches":[0,-3,2,-3,4,7,4,9,0,-3,4,9,2,0,4,7],"shifted_pitches":[0,-3,2,-3,4,7,4,9,-1,-3,4,9,2,0,4,7],"swapped_pitches":[0,-3,2,-3,4,7,4,0,9,-3,4,9,2,0,4,7],"shift_direction":-1,"question_num":81,"has_decoy":false},{"rt":1777.1000000089407,"stimulus":"[A] option 1, [L] option 2, [G] neither","key_press":76,"name":"choice","trial_type":"html-keyboard-response","trial_index":109,"time_elapsed":253046,"internal_node_id":"0.0-109.0","subject":"S1C1677","sona":"41534","block":3,"time":"2021-09-28T14:29:40.531Z","response":"2nd","certainty":"high","char":"L","transposition":2,"order":["swapped","shifted"],"probe_pitches":[-3,1,6,1,-1,4,-3,-1,4,-3,9,1,-3,9,1,-3],"shifted_pitches":[-3,1,6,1,-1,4,-3,-1,5,-3,9,1,-3,9,1,-3],"swapped_pitches":[-3,1,6,1,-1,4,-3,4,-1,-3,9,1,-3,9,1,-3],"shift_direction":1,"question_num":91,"has_decoy":false},{"rt":1705.199999988079,"stimulus":"[A] option 1, [L] option 2, [G] neither","key_press":71,"name":"choice","trial_type":"html-keyboard-response","trial_index":120,"time_elapsed":278392,"internal_node_id":"0.0-120.0","subject":"S1C1677","sona":"41534","block":3,"time":"2021-09-28T14:29:40.531Z","response":"neither","certainty":"high","char":"G","transposition":1,"order":["swapped","shifted"],"probe_pitches":[9,4,-3,4,-1,4,-3,4,9,6,9,2,-3,4,-3,4],"shifted_pitches":[9,4,-3,4,-1,4,-3,4,8,6,9,2,-3,4,-3,4],"swapped_pitches":[9,4,-3,4,-1,4,-3,9,4,6,9,2,-3,4,-3,4],"shift_direction":-1,"question_num":101,"has_decoy":false},{"rt":5288.70000000298,"stimulus":"[A] option 1, [L] option 2, [G] neither","key_press":71,"name":"choice","trial_type":"html-keyboard-response","trial_index":131,"time_elapsed":307213,"internal_node_id":"0.0-131.0","subject":"S1C1677","sona":"41534","block":3,"time":"2021-09-28T14:29:40.531Z","response":"neither","certainty":"high","char":"G","transposition":3,"order":["shifted","swapped"],"probe_pitches":[-1,1,6,8,6,5,0,2,6,11,6,2,-1,1,4,0],"shifted_pitches":[-1,1,6,8,6,5,0,3,6,11,6,2,-1,1,4,0],"swapped_pitches":[-1,1,6,8,6,5,0,6,2,11,6,2,-1,1,4,0],"shift_direction":1,"question_num":111,"has_decoy":false},{"rt":1339.699999988079,"stimulus":"[A] option 1, [L] option 2, [G] neither","key_press":76,"name":"choice","trial_type":"html-keyboard-response","trial_index":142,"time_elapsed":331296,"internal_node_id":"0.0-142.0","subject":"S1C1677","sona":"41534","block":3,"time":"2021-09-28T14:29:40.531Z","response":"2nd","certainty":"high","char":"L","transposition":0,"order":["shifted","swapped"],"probe_pitches":[-1,5,0,-1,0,7,8,9,1,3,0,2,5,4,5,0],"shifted_pitches":[-1,5,0,-1,0,7,8,10,1,3,0,2,5,4,5,0],"swapped_pitches":[-1,5,0,-1,0,7,8,1,9,3,0,2,5,4,5,0],"shift_direction":1,"question_num":121,"has_decoy":false},{"rt":1272.1000000089407,"stimulus":"[A] option 1, [L] option 2, [G] neither","key_press":76,"name":"choice","trial_type":"html-keyboard-response","trial_index":153,"time_elapsed":355676,"internal_node_id":"0.0-153.0","subject":"S1C1677","sona":"41534","block":3,"time":"2021-09-28T14:29:40.531Z","response":"2nd","certainty":"high","char":"L","transposition":-2,"order":["swapped","shifted"],"probe_pitches":[1,0,2,5,1,2,7,-1,5,0,3,10,0,6,5,-1],"shifted_pitches":[1,0,2,5,1,2,7,-1,4,0,3,10,0,6,5,-1],"swapped_pitches":[1,0,2,5,1,2,7,5,-1,0,3,10,0,6,5,-1],"shift_direction":-1,"question_num":131,"has_decoy":false},{"rt":4281.9000000059605,"stimulus":"[A] option 1, [L] option 2, [G] neither","key_press":76,"name":"choice","trial_type":"html-keyboard-response","trial_index":164,"time_elapsed":383864,"internal_node_id":"0.0-164.0","subject":"S1C1677","sona":"41534","block":3,"time":"2021-09-28T14:29:40.531Z","response":"2nd","certainty":"high","char":"L","transposition":-1,"order":["shifted","swapped"],"probe_pitches":[10,5,2,8,2,0,6,0,9,4,8,5,2,3,2,-1],"shifted_pitches":[10,5,2,8,2,0,6,1,9,4,8,5,2,3,2,-1],"swapped_pitches":[10,5,2,8,2,0,6,9,0,4,8,5,2,3,2,-1],"shift_direction":1,"question_num":141,"has_decoy":false},{"rt":2518.800000011921,"stimulus":"[A] option 1, [L] option 2, [G] neither","key_press":71,"name":"choice","trial_type":"html-keyboard-response","trial_index":175,"time_elapsed":409706,"internal_node_id":"0.0-175.0","subject":"S1C1677","sona":"41534","block":3,"time":"2021-09-28T14:29:40.531Z","response":"neither","certainty":"high","char":"G","transposition":0,"order":["shifted","swapped"],"probe_pitches":[2,5,0,7,0,9,0,5,9,0,5,2,-3,9,-3,9],"shifted_pitches":[2,5,0,7,0,9,0,6,9,0,5,2,-3,9,-3,9],"swapped_pitches":[2,5,0,7,0,9,0,9,5,0,5,2,-3,9,-3,9],"shift_direction":1,"question_num":151,"has_decoy":false},{"rt":6287,"stimulus":"[A] option 1, [L] option 2, [G] neither","key_press":71,"name":"choice","trial_type":"html-keyboard-response","trial_index":186,"time_elapsed":439656,"internal_node_id":"0.0-186.0","subject":"S1C1677","sona":"41534","block":3,"time":"2021-09-28T14:29:40.531Z","response":"neither","certainty":"high","char":"G","transposition":-1,"order":["swapped","shifted"],"probe_pitches":[9,4,1,0,5,1,-1,0,5,1,8,11,5,2,0,2],"shifted_pitches":[9,4,1,0,5,1,-1,0,6,1,8,11,5,2,0,2],"swapped_pitches":[9,4,1,0,5,1,-1,5,0,1,8,11,5,2,0,2],"shift_direction":1,"question_num":161,"has_decoy":false},{"rt":1736,"stimulus":"[A] option 1, [L] option 2, [G] neither","key_press":71,"name":"choice","trial_type":"html-keyboard-response","trial_index":197,"time_elapsed":464737,"internal_node_id":"0.0-197.0","subject":"S1C1677","sona":"41534","block":3,"time":"2021-09-28T14:29:40.531Z","response":"neither","certainty":"high","char":"G","transposition":-2,"order":["shifted","swapped"],"probe_pitches":[7,5,9,2,9,11,2,5,9,4,1,5,2,1,9,4],"shifted_pitches":[7,5,9,2,9,11,2,5,8,4,1,5,2,1,9,4],"swapped_pitches":[7,5,9,2,9,11,2,9,5,4,1,5,2,1,9,4],"shift_direction":-1,"question_num":171,"has_decoy":false},{"rt":896,"stimulus":"[A] option 1, [L] option 2, [G] neither","key_press":76,"name":"choice","trial_type":"html-keyboard-response","trial_index":208,"time_elapsed":489043,"internal_node_id":"0.0-208.0","subject":"S1C1677","sona":"41534","block":3,"time":"2021-09-28T14:29:40.531Z","response":"2nd","certainty":"high","char":"L","transposition":2,"order":["swapped","shifted"],"probe_pitches":[4,9,3,11,10,9,11,1,-1,0,10,9,10,9,1,6],"shifted_pitches":[4,9,3,11,10,9,11,2,-1,0,10,9,10,9,1,6],"swapped_pitches":[4,9,3,11,10,9,11,-1,1,0,10,9,10,9,1,6],"shift_direction":1,"question_num":181,"has_decoy":false},{"rt":2479.7999999970198,"stimulus":"[A] option 1, [L] option 2, [G] neither","key_press":71,"name":"choice","trial_type":"html-keyboard-response","trial_index":219,"time_elapsed":515821,"internal_node_id":"0.0-219.0","subject":"S1C1677","sona":"41534","block":3,"time":"2021-09-28T14:29:40.531Z","response":"neither","certainty":"high","char":"G","transposition":-1,"order":["shifted","swapped"],"probe_pitches":[9,7,4,-3,2,7,-3,7,9,-1,-3,9,4,2,7,-3],"shifted_pitches":[9,7,4,-3,2,7,-3,8,9,-1,-3,9,4,2,7,-3],"swapped_pitches":[9,7,4,-3,2,7,-3,9,7,-1,-3,9,4,2,7,-3],"shift_direction":1,"question_num":191,"has_decoy":false}]