[{"rt":628.2999999970198,"stimulus":"[A] option 1, [L] option 2, [G] neither","key_press":76,"name":"choice","trial_type":"html-keyboard-response","trial_index":10,"time_elapsed":23609,"internal_node_id":"0.0-10.0","subject":"S1C1677","sona":"41534","block":6,"time":"2021-09-28T14:57:02.866Z","response":"2nd","certainty":"high","char":"L","transposition":1,"order":["swapped","shifted"],"probe_pitches":[7,2,7,9,4,7,4,9,-3,2,7,-3,9,-1,4,-1],"shifted_pitches":[7,2,7,9,4,7,4,9,-2,2,7,-3,9,-1,4,-1],"swapped_pitches":[7,2,7,9,4,7,4,-3,9,2,7,-3,9,-1,4,-1],"shift_direction":1,"question_num":1,"has_decoy":false},{"rt":1944,"stimulus":"[A] option 1, [L] option 2, [G] neither","key_press":76,"name":"choice","trial_type":"html-keyboard-response","trial_index":21,"time_elapsed":48530,"internal_node_id":"0.0-21.0","subject":"S1C1677","sona":"41534","block":6,"time":"2021-09-28T14:57:02.866Z","response":"2nd","certainty":"high","char":"L","transposition":3,"order":["shifted","swapped"],"probe_pitches":[-1,2,-1,2,-3,-1,2,6,4,-3,4,9,-3,-1,4,9],"shifted_pitches":[-1,2,-1,2,-3,-1,2,6,5,-3,4,9,-3,-1,4,9],"swapped_pitches":[-1,2,-1,2,-3,-1,2,4,6,-3,4,9,-3,-1,4,9],"shift_direction":1,"question_num":11,"has_decoy":false},{"rt":2691.5999999940395,"stimulus":"[A] option 1, [L] option 2, [G] neither","key_press":76,"name":"choice","trial_type":"html-keyboard-response","trial_index":32,"time_elapsed":75005,"internal_node_id":"0.0-32.0","subject":"S1C1677","sona":"41534","block":6,"time":"2021-09-28T14:57:02.866Z","response":"2nd","certainty":"high","char":"L","transposition":-2,"order":["swapped","shifted"],"probe_pitches":[0,-3,2,7,2,-3,7,2,9,5,7,0,9,7,-3,2],"shifted_pitches":[0,-3,2,7,2,-3,7,2,8,5,7,0,9,7,-3,2],"swapped_pitches":[0,-3,2,7,2,-3,7,9,2,5,7,0,9,7,-3,2],"shift_direction":-1,"question_num":21,"has_decoy":false},{"rt":2010.5999999940395,"stimulus":"[A] option 1, [L] option 2, [G] neither","key_press":76,"name":"choice","trial_type":"html-keyboard-response","trial_index":43,"time_elapsed":100036,"internal_node_id":"0.0-43.0","subject":"S1C1677","sona":"41534","block":6,"time":"2021-09-28T14:57:02.866Z","response":"2nd","certainty":"high","char":"L","transposition":-3,"order":["shifted","swapped"],"probe_pitches":[6,9,6,4,6,9,-1,-3,4,1,4,-3,6,1,-3,1],"shifted_pitches":[6,9,6,4,6,9,-1,-4,4,1,4,-3,6,1,-3,1],"swapped_pitches":[6,9,6,4,6,9,-1,4,-3,1,4,-3,6,1,-3,1],"shift_direction":-1,"question_num":31,"has_decoy":false},{"rt":1034,"stimulus":"[A] option 1, [L] option 2, [G] neither","key_press":76,"name":"choice","trial_type":"html-keyboard-response","trial_index":54,"time_elapsed":126371,"internal_node_id":"0.0-54.0","subject":"S1C1677","sona":"41534","block":6,"time":"2021-09-28T14:57:02.866Z","response":"2nd","certainty":"high","char":"L","transposition":3,"order":["swapped","shifted"],"probe_pitches":[5,-1,-3,2,0,8,5,3,1,-3,-2,-3,8,1,0,-3],"shifted_pitches":[5,-1,-3,2,0,8,5,4,1,-3,-2,-3,8,1,0,-3],"swapped_pitches":[5,-1,-3,2,0,8,5,1,3,-3,-2,-3,8,1,0,-3],"shift_direction":1,"question_num":41,"has_decoy":false},{"rt":3342.5999999940395,"stimulus":"[A] option 1, [L] option 2, [G] neither","key_press":71,"name":"choice","trial_type":"html-keyboard-response","trial_index":65,"time_elapsed":153276,"internal_node_id":"0.0-65.0","subject":"S1C1677","sona":"41534","block":6,"time":"2021-09-28T14:57:02.866Z","response":"neither","certainty":"high","char":"G","transposition":2,"order":["shifted","swapped"],"probe_pitches":[9,7,1,6,-2,-3,4,1,0,7,-2,6,4,3,4,9],"shifted_pitches":[9,7,1,6,-2,-3,4,2,0,7,-2,6,4,3,4,9],"swapped_pitches":[9,7,1,6,-2,-3,4,0,1,7,-2,6,4,3,4,9],"shift_direction":1,"question_num":51,"has_decoy":false},{"rt":1552,"stimulus":"[A] option 1, [L] option 2, [G] neither","key_press":71,"name":"choice","trial_type":"html-keyboard-response","trial_index":76,"time_elapsed":179090,"internal_node_id":"0.0-76.0","subject":"S1C1677","sona":"41534","block":6,"time":"2021-09-28T14:57:02.866Z","response":"neither","certainty":"high","char":"G","transposition":2,"order":["swapped","shifted"],"probe_pitches":[2,4,0,7,2,4,2,9,0,4,2,-3,9,0,4,0],"shifted_pitches":[2,4,0,7,2,4,2,9,-1,4,2,-3,9,0,4,0],"swapped_pitches":[2,4,0,7,2,4,2,0,9,4,2,-3,9,0,4,0],"shift_direction":-1,"question_num":61,"has_decoy":false},{"rt":1297.7999999970198,"stimulus":"[A] option 1, [L] option 2, [G] neither","key_press":76,"name":"choice","trial_type":"html-keyboard-response","trial_index":87,"time_elapsed":203699,"internal_node_id":"0.0-87.0","subject":"S1C1677","sona":"41534","block":6,"time":"2021-09-28T14:57:02.866Z","response":"2nd","certainty":"high","char":"L","transposition":-1,"order":["shifted","swapped"],"probe_pitches":[-1,1,6,-1,-2,6,4,9,6,8,-3,9,2,1,-3,4],"shifted_pitches":[-1,1,6,-1,-2,6,4,9,7,8,-3,9,2,1,-3,4],"swapped_pitches":[-1,1,6,-1,-2,6,4,6,9,8,-3,9,2,1,-3,4],"shift_direction":1,"question_num":71,"has_decoy":false},{"rt":1634.2000000029802,"stimulus":"[A] option 1, [L] option 2, [G] neither","key_press":71,"name":"choice","trial_type":"html-keyboard-response","trial_index":98,"time_elapsed":228777,"internal_node_id":"0.0-98.0","subject":"S1C1677","sona":"41534","block":6,"time":"2021-09-28T14:57:02.866Z","response":"neither","certainty":"high","char":"G","transposition":-2,"order":["swapped","shifted"],"probe_pitches":[-1,1,7,5,6,1,-2,6,7,9,7,1,-3,9,-3,-1],"shifted_pitches":[-1,1,7,5,6,1,-2,6,8,9,7,1,-3,9,-3,-1],"swapped_pitches":[-1,1,7,5,6,1,-2,7,6,9,7,1,-3,9,-3,-1],"shift_direction":1,"question_num":81,"has_decoy":false},{"rt":5456.70000000298,"stimulus":"[A] option 1, [L] option 2, [G] neither","key_press":71,"name":"choice","trial_type":"html-keyboard-response","trial_index":109,"time_elapsed":257703,"internal_node_id":"0.0-109.0","subject":"S1C1677","sona":"41534","block":6,"time":"2021-09-28T14:57:02.866Z","response":"neither","certainty":"high","char":"G","transposition":-1,"order":["swapped","shifted"],"probe_pitches":[5,0,4,-3,1,8,-3,0,7,9,3,-3,2,-2,2,-3],"shifted_pitches":[5,0,4,-3,1,8,-3,0,6,9,3,-3,2,-2,2,-3],"swapped_pitches":[5,0,4,-3,1,8,-3,7,0,9,3,-3,2,-2,2,-3],"shift_direction":-1,"question_num":91,"has_decoy":false},{"rt":2553.4000000059605,"stimulus":"[A] option 1, [L] option 2, [G] neither","key_press":71,"name":"choice","trial_type":"html-keyboard-response","trial_index":120,"time_elapsed":283520,"internal_node_id":"0.0-120.0","subject":"S1C1677","sona":"41534","block":6,"time":"2021-09-28T14:57:02.866Z","response":"neither","certainty":"high","char":"G","transposition":-3,"order":["swapped","shifted"],"probe_pitches":[3,7,9,1,-2,2,3,6,9,7,6,2,9,8,3,7],"shifted_pitches":[3,7,9,1,-2,2,3,5,9,7,6,2,9,8,3,7],"swapped_pitches":[3,7,9,1,-2,2,3,9,6,7,6,2,9,8,3,7],"shift_direction":-1,"question_num":101,"has_decoy":false},{"rt":1419.3999999910593,"stimulus":"[A] option 1, [L] option 2, [G] neither","key_press":76,"name":"choice","trial_type":"html-keyboard-response","trial_index":131,"time_elapsed":308039,"internal_node_id":"0.0-131.0","subject":"S1C1677","sona":"41534","block":6,"time":"2021-09-28T14:57:02.866Z","response":"2nd","certainty":"high","char":"L","transposition":0,"order":["shifted","swapped"],"probe_pitches":[9,8,2,7,1,-1,2,4,-2,0,-1,4,7,2,4,-3],"shifted_pitches":[9,8,2,7,1,-1,2,3,-2,0,-1,4,7,2,4,-3],"swapped_pitches":[9,8,2,7,1,-1,2,-2,4,0,-1,4,7,2,4,-3],"shift_direction":-1,"question_num":111,"has_decoy":false},{"rt":4494.29999999702,"stimulus":"[A] option 1, [L] option 2, [G] neither","key_press":71,"name":"choice","trial_type":"html-keyboard-response","trial_index":142,"time_elapsed":335401,"internal_node_id":"0.0-142.0","subject":"S1C1677","sona":"41534","block":6,"time":"2021-09-28T14:57:02.866Z","response":"neither","certainty":"high","char":"G","transposition":0,"order":["swapped","shifted"],"probe_pitches":[9,7,9,5,0,-3,7,9,5,2,5,-3,7,0,9,5],"shifted_pitches":[9,7,9,5,0,-3,7,10,5,2,5,-3,7,0,9,5],"swapped_pitches":[9,7,9,5,0,-3,7,5,9,2,5,-3,7,0,9,5],"shift_direction":1,"question_num":121,"has_decoy":false},{"rt":1312.199999988079,"stimulus":"[A] option 1, [L] option 2, [G] neither","key_press":76,"name":"choice","trial_type":"html-keyboard-response","trial_index":153,"time_elapsed":361557,"internal_node_id":"0.0-153.0","subject":"S1C1677","sona":"41534","block":6,"time":"2021-09-28T14:57:02.866Z","response":"2nd","certainty":"high","char":"L","transposition":1,"order":["swapped","shifted"],"probe_pitches":[5,-1,1,9,5,9,2,4,-1,1,-3,-2,9,4,7,-1],"shifted_pitches":[5,-1,1,9,5,9,2,4,0,1,-3,-2,9,4,7,-1],"swapped_pitches":[5,-1,1,9,5,9,2,-1,4,1,-3,-2,9,4,7,-1],"shift_direction":1,"question_num":131,"has_decoy":false},{"rt":1700.7999999970198,"stimulus":"[A] option 1, [L] option 2, [G] neither","key_press":71,"name":"choice","trial_type":"html-keyboard-response","trial_index":164,"time_elapsed":386511,"internal_node_id":"0.0-164.0","subject":"S1C1677","sona":"41534","block":6,"time":"2021-09-28T14:57:02.866Z","response":"neither","certainty":"high","char":"G","transposition":-1,"order":["swapped","shifted"],"probe_pitches":[-1,2,6,-1,2,-1,2,4,-3,6,9,-3,4,-3,6,9],"shifted_pitches":[-1,2,6,-1,2,-1,2,3,-3,6,9,-3,4,-3,6,9],"swapped_pitches":[-1,2,6,-1,2,-1,2,-3,4,6,9,-3,4,-3,6,9],"shift_direction":-1,"question_num":141,"has_decoy":false},{"rt":1405.9000000059605,"stimulus":"[A] option 1, [L] option 2, [G] neither","key_press":71,"name":"choice","trial_type":"html-keyboard-response","trial_index":175,"time_elapsed":411005,"internal_node_id":"0.0-175.0","subject":"S1C1677","sona":"41534","block":6,"time":"2021-09-28T14:57:02.866Z","response":"neither","certainty":"high","char":"G","transposition":-1,"order":["shifted","swapped"],"probe_pitches":[-1,1,-1,1,9,-1,9,4,6,9,1,-3,6,1,9,4],"shifted_pitches":[-1,1,-1,1,9,-1,9,5,6,9,1,-3,6,1,9,4],"swapped_pitches":[-1,1,-1,1,9,-1,9,6,4,9,1,-3,6,1,9,4],"shift_direction":1,"question_num":151,"has_decoy":false},{"rt":1245.800000011921,"stimulus":"[A] option 1, [L] option 2, [G] neither","key_press":76,"name":"choice","trial_type":"html-keyboard-response","trial_index":186,"time_elapsed":435479,"internal_node_id":"0.0-186.0","subject":"S1C1677","sona":"41534","block":6,"time":"2021-09-28T14:57:02.866Z","response":"2nd","certainty":"high","char":"L","transposition":-2,"order":["shifted","swapped"],"probe_pitches":[7,2,9,4,9,4,-3,4,7,-3,9,0,4,9,0,4],"shifted_pitches":[7,2,9,4,9,4,-3,4,8,-3,9,0,4,9,0,4],"swapped_pitches":[7,2,9,4,9,4,-3,7,4,-3,9,0,4,9,0,4],"shift_direction":1,"question_num":161,"has_decoy":false},{"rt":1694.699999988079,"stimulus":"[A] option 1, [L] option 2, [G] neither","key_press":71,"name":"choice","trial_type":"html-keyboard-response","trial_index":197,"time_elapsed":460664,"internal_node_id":"0.0-197.0","subject":"S1C1677","sona":"41534","block":6,"time":"2021-09-28T14:57:02.866Z","response":"neither","certainty":"high","char":"G","transposition":-3,"order":["shifted","swapped"],"probe_pitches":[9,4,2,-1,2,-1,9,2,4,-3,7,9,2,4,-3,9],"shifted_pitches":[9,4,2,-1,2,-1,9,1,4,-3,7,9,2,4,-3,9],"swapped_pitches":[9,4,2,-1,2,-1,9,4,2,-3,7,9,2,4,-3,9],"shift_direction":-1,"question_num":171,"has_decoy":false},{"rt":1464.0999999940395,"stimulus":"[A] option 1, [L] option 2, [G] neither","key_press":71,"name":"choice","trial_type":"html-keyboard-response","trial_index":208,"time_elapsed":485638,"internal_node_id":"0.0-208.0","subject":"S1C1677","sona":"41534","block":6,"time":"2021-09-28T14:57:02.866Z","response":"neither","certainty":"high","char":"G","transposition":-2,"order":["shifted","swapped"],"probe_pitches":[-2,-1,-3,0,-1,3,7,2,4,-2,4,-1,9,4,5,9],"shifted_pitches":[-2,-1,-3,0,-1,3,7,1,4,-2,4,-1,9,4,5,9],"swapped_pitches":[-2,-1,-3,0,-1,3,7,4,2,-2,4,-1,9,4,5,9],"shift_direction":-1,"question_num":181,"has_decoy":false},{"rt":1950.9000000059605,"stimulus":"[A] option 1, [L] option 2, [G] neither","key_press":71,"name":"choice","trial_type":"html-keyboard-response","trial_index":219,"time_elapsed":510615,"internal_node_id":"0.0-219.0","subject":"S1C1677","sona":"41534","block":6,"time":"2021-09-28T14:57:02.866Z","response":"neither","certainty":"high","char":"G","transposition":-3,"order":["shifted","swapped"],"probe_pitches":[7,3,8,4,2,1,-2,-3,0,-2,-3,3,1,9,-2,6],"shifted_pitches":[7,3,8,4,2,1,-2,-3,-1,-2,-3,3,1,9,-2,6],"swapped_pitches":[7,3,8,4,2,1,-2,0,-3,-2,-3,3,1,9,-2,6],"shift_direction":-1,"question_num":191,"has_decoy":false}]