[{"rt":6801.699999928474,"stimulus":"[A] option 1, [L] option 2, [G] neither","key_press":76,"name":"choice","trial_type":"html-keyboard-response","trial_index":15,"time_elapsed":189855,"internal_node_id":"0.0-15.0","response":"2nd","certainty":"high","char":"L","transposition":-2,"order":["shifted","swapped"],"probe_pitches":[4,6,9,6,9,4,13,9,1,11,9,1],"shifted_pitches":[4,6,9,6,9,4,14,9,1,11,9,1],"swapped_pitches":[4,6,9,6,9,13,4,9,1,11,9,1],"shift_direction":1,"question_num":1,"has_decoy":false,"subject":"S1C1254","sona":"41737","block":1,"time":"2021-09-22T13:51:22.227Z"},{"rt":3075.100000023842,"stimulus":"[A] option 1, [L] option 2, [G] neither","key_press":76,"name":"choice","trial_type":"html-keyboard-response","trial_index":26,"time_elapsed":213501,"internal_node_id":"0.0-26.0","response":"2nd","certainty":"high","char":"L","transposition":-3,"order":["shifted","swapped"],"probe_pitches":[4,2,5,6,4,2,0,6,2,0,6,8],"shifted_pitches":[4,2,5,6,4,3,0,6,2,0,6,8],"swapped_pitches":[4,2,5,6,4,0,2,6,2,0,6,8],"shift_direction":1,"question_num":11,"has_decoy":false,"subject":"S1C1254","sona":"41737","block":1,"time":"2021-09-22T13:51:22.227Z"},{"rt":653.3000000715256,"stimulus":"[A] option 1, [L] option 2, [G] neither","key_press":76,"name":"choice","trial_type":"html-keyboard-response","trial_index":37,"time_elapsed":234439,"internal_node_id":"0.0-37.0","response":"2nd","certainty":"high","char":"L","transposition":-3,"order":["swapped","shifted"],"probe_pitches":[13,9,13,11,13,9,1,4,11,9,6,4],"shifted_pitches":[13,9,13,11,13,8,1,4,11,9,6,4],"swapped_pitches":[13,9,13,11,13,1,9,4,11,9,6,4],"shift_direction":-1,"question_num":21,"has_decoy":false,"subject":"S1C1254","sona":"41737","block":1,"time":"2021-09-22T13:51:22.227Z"},{"rt":110497.30000007153,"stimulus":"[A] option 1, [L] option 2, [G] neither","key_press":65,"name":"choice","trial_type":"html-keyboard-response","trial_index":48,"time_elapsed":365192,"internal_node_id":"0.0-48.0","response":"1st","certainty":"high","char":"A","transposition":3,"order":["shifted","swapped"],"probe_pitches":[4,8,11,13,4,8,1,6,8,4,11,4],"shifted_pitches":[4,8,11,13,4,7,1,6,8,4,11,4],"swapped_pitches":[4,8,11,13,4,1,8,6,8,4,11,4],"shift_direction":-1,"question_num":31,"has_decoy":false,"subject":"S1C1254","sona":"41737","block":1,"time":"2021-09-22T13:51:22.227Z"},{"rt":3455.5,"stimulus":"[A] option 1, [L] option 2, [G] neither","key_press":76,"name":"choice","trial_type":"html-keyboard-response","trial_index":59,"time_elapsed":481110,"internal_node_id":"0.0-59.0","response":"2nd","certainty":"high","char":"L","transposition":2,"order":["shifted","swapped"],"probe_pitches":[7,6,3,-2,4,-1,10,9,3,1,9,7],"shifted_pitches":[7,6,3,-2,4,0,10,9,3,1,9,7],"swapped_pitches":[7,6,3,-2,4,10,-1,9,3,1,9,7],"shift_direction":1,"question_num":41,"has_decoy":false,"subject":"S1C1254","sona":"41737","block":1,"time":"2021-09-22T13:51:22.227Z"},{"rt":21240.899999976158,"stimulus":"[A] option 1, [L] option 2, [G] neither","key_press":65,"name":"choice","trial_type":"html-keyboard-response","trial_index":70,"time_elapsed":528117,"internal_node_id":"0.0-70.0","response":"1st","certainty":"high","char":"A","transposition":-2,"order":["shifted","swapped"],"probe_pitches":[3,1,8,10,5,10,3,1,3,5,8,10],"shifted_pitches":[3,1,8,10,5,10,4,1,3,5,8,10],"swapped_pitches":[3,1,8,10,5,3,10,1,3,5,8,10],"shift_direction":1,"question_num":51,"has_decoy":false,"subject":"S1C1254","sona":"41737","block":1,"time":"2021-09-22T13:51:22.227Z"},{"rt":781,"stimulus":"[A] option 1, [L] option 2, [G] neither","key_press":65,"name":"choice","trial_type":"html-keyboard-response","trial_index":81,"time_elapsed":549266,"internal_node_id":"0.0-81.0","response":"1st","certainty":"high","char":"A","transposition":3,"order":["swapped","shifted"],"probe_pitches":[-1,2,8,2,10,0,6,8,4,2,4,0],"shifted_pitches":[-1,2,8,2,10,0,5,8,4,2,4,0],"swapped_pitches":[-1,2,8,2,10,6,0,8,4,2,4,0],"shift_direction":-1,"question_num":61,"has_decoy":false,"subject":"S1C1254","sona":"41737","block":1,"time":"2021-09-22T13:51:22.227Z"},{"rt":837.1999999284744,"stimulus":"[A] option 1, [L] option 2, [G] neither","key_press":76,"name":"choice","trial_type":"html-keyboard-response","trial_index":92,"time_elapsed":606167,"internal_node_id":"0.0-92.0","response":"2nd","certainty":"high","char":"L","transposition":-1,"order":["swapped","shifted"],"probe_pitches":[13,11,13,8,1,6,4,8,4,8,13,4],"shifted_pitches":[13,11,13,8,1,7,4,8,4,8,13,4],"swapped_pitches":[13,11,13,8,1,4,6,8,4,8,13,4],"shift_direction":1,"question_num":71,"has_decoy":false,"subject":"S1C1254","sona":"41737","block":1,"time":"2021-09-22T13:51:22.227Z"},{"rt":2531.1999999284744,"stimulus":"[A] option 1, [L] option 2, [G] neither","key_press":65,"name":"choice","trial_type":"html-keyboard-response","trial_index":103,"time_elapsed":636631,"internal_node_id":"0.0-103.0","response":"1st","certainty":"high","char":"A","transposition":0,"order":["swapped","shifted"],"probe_pitches":[6,8,13,10,6,8,10,13,3,10,1,3],"shifted_pitches":[6,8,13,10,6,9,10,13,3,10,1,3],"swapped_pitches":[6,8,13,10,6,10,8,13,3,10,1,3],"shift_direction":1,"question_num":81,"has_decoy":false,"subject":"S1C1254","sona":"41737","block":1,"time":"2021-09-22T13:51:22.227Z"},{"rt":1237.2000000476837,"stimulus":"[A] option 1, [L] option 2, [G] neither","key_press":65,"name":"choice","trial_type":"html-keyboard-response","trial_index":114,"time_elapsed":660127,"internal_node_id":"0.0-114.0","response":"1st","certainty":"high","char":"A","transposition":-1,"order":["swapped","shifted"],"probe_pitches":[0,3,0,8,4,9,7,8,1,9,1,0],"shifted_pitches":[0,3,0,8,4,9,6,8,1,9,1,0],"swapped_pitches":[0,3,0,8,4,7,9,8,1,9,1,0],"shift_direction":-1,"question_num":91,"has_decoy":false,"subject":"S1C1254","sona":"41737","block":1,"time":"2021-09-22T13:51:22.227Z"},{"rt":1443.8999999761581,"stimulus":"[A] option 1, [L] option 2, [G] neither","key_press":65,"name":"choice","trial_type":"html-keyboard-response","trial_index":125,"time_elapsed":683975,"internal_node_id":"0.0-125.0","response":"1st","certainty":"high","char":"A","transposition":-3,"order":["shifted","swapped"],"probe_pitches":[3,1,6,3,1,6,11,3,8,3,1,6],"shifted_pitches":[3,1,6,3,1,6,10,3,8,3,1,6],"swapped_pitches":[3,1,6,3,1,11,6,3,8,3,1,6],"shift_direction":-1,"question_num":101,"has_decoy":false,"subject":"S1C1254","sona":"41737","block":1,"time":"2021-09-22T13:51:22.227Z"},{"rt":1642.6000000238419,"stimulus":"[A] option 1, [L] option 2, [G] neither","key_press":76,"name":"choice","trial_type":"html-keyboard-response","trial_index":136,"time_elapsed":707333,"internal_node_id":"0.0-136.0","response":"2nd","certainty":"high","char":"L","transposition":1,"order":["shifted","swapped"],"probe_pitches":[3,7,0,-1,-2,3,2,-1,10,5,6,1],"shifted_pitches":[3,7,0,-1,-2,4,2,-1,10,5,6,1],"swapped_pitches":[3,7,0,-1,-2,2,3,-1,10,5,6,1],"shift_direction":1,"question_num":111,"has_decoy":false,"subject":"S1C1254","sona":"41737","block":1,"time":"2021-09-22T13:51:22.227Z"},{"rt":2018.3999999761581,"stimulus":"[A] option 1, [L] option 2, [G] neither","key_press":65,"name":"choice","trial_type":"html-keyboard-response","trial_index":147,"time_elapsed":728989,"internal_node_id":"0.0-147.0","response":"1st","certainty":"high","char":"A","transposition":2,"order":["shifted","swapped"],"probe_pitches":[3,1,8,1,3,1,6,3,6,11,3,11],"shifted_pitches":[3,1,8,1,3,1,5,3,6,11,3,11],"swapped_pitches":[3,1,8,1,3,6,1,3,6,11,3,11],"shift_direction":-1,"question_num":121,"has_decoy":false,"subject":"S1C1254","sona":"41737","block":1,"time":"2021-09-22T13:51:22.227Z"},{"rt":3054.5,"stimulus":"[A] option 1, [L] option 2, [G] neither","key_press":65,"name":"choice","trial_type":"html-keyboard-response","trial_index":158,"time_elapsed":751255,"internal_node_id":"0.0-158.0","response":"1st","certainty":"high","char":"A","transposition":-2,"order":["swapped","shifted"],"probe_pitches":[1,4,-2,5,0,-1,1,6,1,-1,9,-2],"shifted_pitches":[1,4,-2,5,0,-1,2,6,1,-1,9,-2],"swapped_pitches":[1,4,-2,5,0,1,-1,6,1,-1,9,-2],"shift_direction":1,"question_num":131,"has_decoy":false,"subject":"S1C1254","sona":"41737","block":1,"time":"2021-09-22T13:51:22.227Z"},{"rt":1939.7000000476837,"stimulus":"[A] option 1, [L] option 2, [G] neither","key_press":76,"name":"choice","trial_type":"html-keyboard-response","trial_index":169,"time_elapsed":774561,"internal_node_id":"0.0-169.0","response":"2nd","certainty":"high","char":"L","transposition":1,"order":["swapped","shifted"],"probe_pitches":[10,8,10,3,8,3,6,10,13,3,6,1],"shifted_pitches":[10,8,10,3,8,4,6,10,13,3,6,1],"swapped_pitches":[10,8,10,3,8,6,3,10,13,3,6,1],"shift_direction":1,"question_num":141,"has_decoy":false,"subject":"S1C1254","sona":"41737","block":1,"time":"2021-09-22T13:51:22.227Z"},{"rt":2909.399999976158,"stimulus":"[A] option 1, [L] option 2, [G] neither","key_press":76,"name":"choice","trial_type":"html-keyboard-response","trial_index":180,"time_elapsed":799810,"internal_node_id":"0.0-180.0","response":"2nd","certainty":"high","char":"L","transposition":0,"order":["swapped","shifted"],"probe_pitches":[5,-1,2,7,5,10,8,7,3,-1,3,7],"shifted_pitches":[5,-1,2,7,5,9,8,7,3,-1,3,7],"swapped_pitches":[5,-1,2,7,5,8,10,7,3,-1,3,7],"shift_direction":-1,"question_num":151,"has_decoy":false,"subject":"S1C1254","sona":"41737","block":1,"time":"2021-09-22T13:51:22.227Z"},{"rt":534.8999999761581,"stimulus":"[A] option 1, [L] option 2, [G] neither","key_press":65,"name":"choice","trial_type":"html-keyboard-response","trial_index":191,"time_elapsed":818625,"internal_node_id":"0.0-191.0","response":"1st","certainty":"high","char":"A","transposition":-1,"order":["swapped","shifted"],"probe_pitches":[8,10,5,10,8,5,13,10,5,3,5,3],"shifted_pitches":[8,10,5,10,8,5,12,10,5,3,5,3],"swapped_pitches":[8,10,5,10,8,13,5,10,5,3,5,3],"shift_direction":-1,"question_num":161,"has_decoy":false,"subject":"S1C1254","sona":"41737","block":1,"time":"2021-09-22T13:51:22.227Z"},{"rt":571.5,"stimulus":"[A] option 1, [L] option 2, [G] neither","key_press":65,"name":"choice","trial_type":"html-keyboard-response","trial_index":202,"time_elapsed":839542,"internal_node_id":"0.0-202.0","response":"1st","certainty":"high","char":"A","transposition":-2,"order":["shifted","swapped"],"probe_pitches":[1,4,2,3,10,9,8,2,5,8,6,3],"shifted_pitches":[1,4,2,3,10,9,7,2,5,8,6,3],"swapped_pitches":[1,4,2,3,10,8,9,2,5,8,6,3],"shift_direction":-1,"question_num":171,"has_decoy":false,"subject":"S1C1254","sona":"41737","block":1,"time":"2021-09-22T13:51:22.227Z"},{"rt":2332.600000023842,"stimulus":"[A] option 1, [L] option 2, [G] neither","key_press":65,"name":"choice","trial_type":"html-keyboard-response","trial_index":213,"time_elapsed":861953,"internal_node_id":"0.0-213.0","response":"1st","certainty":"high","char":"A","transposition":-3,"order":["shifted","swapped"],"probe_pitches":[1,-2,2,7,3,6,7,4,1,9,-1,9],"shifted_pitches":[1,-2,2,7,3,6,8,4,1,9,-1,9],"swapped_pitches":[1,-2,2,7,3,7,6,4,1,9,-1,9],"shift_direction":1,"question_num":181,"has_decoy":false,"subject":"S1C1254","sona":"41737","block":1,"time":"2021-09-22T13:51:22.227Z"},{"rt":1137.3999999761581,"stimulus":"[A] option 1, [L] option 2, [G] neither","key_press":65,"name":"choice","trial_type":"html-keyboard-response","trial_index":224,"time_elapsed":882687,"internal_node_id":"0.0-224.0","response":"1st","certainty":"high","char":"A","transposition":-1,"order":["swapped","shifted"],"probe_pitches":[5,6,-1,7,3,2,-2,0,2,5,-1,5],"shifted_pitches":[5,6,-1,7,3,1,-2,0,2,5,-1,5],"swapped_pitches":[5,6,-1,7,3,-2,2,0,2,5,-1,5],"shift_direction":-1,"question_num":191,"has_decoy":false,"subject":"S1C1254","sona":"41737","block":1,"time":"2021-09-22T13:51:22.227Z"}]