[{"rt":735.3999999761581,"stimulus":"[A] option 1, [L] option 2, [G] neither","key_press":76,"name":"choice","trial_type":"html-keyboard-response","trial_index":10,"time_elapsed":30015,"internal_node_id":"0.0-10.0","subject":"S1C1254","sona":"41737","block":5,"time":"2021-09-22T14:23:07.743Z","response":"2nd","certainty":"high","char":"L","transposition":1,"order":["swapped","shifted"],"probe_pitches":[4,2,8,2,5,2,-1,-2,4,-1,1,10],"shifted_pitches":[4,2,8,2,5,2,0,-2,4,-1,1,10],"swapped_pitches":[4,2,8,2,5,-1,2,-2,4,-1,1,10],"shift_direction":1,"question_num":1,"has_decoy":false},{"rt":560,"stimulus":"[A] option 1, [L] option 2, [G] neither","key_press":76,"name":"choice","trial_type":"html-keyboard-response","trial_index":21,"time_elapsed":51179,"internal_node_id":"0.0-21.0","subject":"S1C1254","sona":"41737","block":5,"time":"2021-09-22T14:23:07.743Z","response":"2nd","certainty":"high","char":"L","transposition":0,"order":["swapped","shifted"],"probe_pitches":[0,5,4,9,7,2,9,-2,9,6,0,2],"shifted_pitches":[0,5,4,9,7,1,9,-2,9,6,0,2],"swapped_pitches":[0,5,4,9,7,9,2,-2,9,6,0,2],"shift_direction":-1,"question_num":11,"has_decoy":false},{"rt":847.2000000476837,"stimulus":"[A] option 1, [L] option 2, [G] neither","key_press":65,"name":"choice","trial_type":"html-keyboard-response","trial_index":32,"time_elapsed":71826,"internal_node_id":"0.0-32.0","subject":"S1C1254","sona":"41737","block":5,"time":"2021-09-22T14:23:07.743Z","response":"1st","certainty":"high","char":"A","transposition":-3,"order":["swapped","shifted"],"probe_pitches":[1,-2,-1,0,6,1,2,8,4,2,-2,9],"shifted_pitches":[1,-2,-1,0,6,1,3,8,4,2,-2,9],"swapped_pitches":[1,-2,-1,0,6,2,1,8,4,2,-2,9],"shift_direction":1,"question_num":21,"has_decoy":false},{"rt":417.10000002384186,"stimulus":"[A] option 1, [L] option 2, [G] neither","key_press":76,"name":"choice","trial_type":"html-keyboard-response","trial_index":43,"time_elapsed":90966,"internal_node_id":"0.0-43.0","subject":"S1C1254","sona":"41737","block":5,"time":"2021-09-22T14:23:07.743Z","response":"2nd","certainty":"high","char":"L","transposition":-2,"order":["shifted","swapped"],"probe_pitches":[7,5,2,9,1,2,7,10,7,5,7,3],"shifted_pitches":[7,5,2,9,1,2,6,10,7,5,7,3],"swapped_pitches":[7,5,2,9,1,7,2,10,7,5,7,3],"shift_direction":-1,"question_num":31,"has_decoy":false},{"rt":1378.0999999046326,"stimulus":"[A] option 1, [L] option 2, [G] neither","key_press":65,"name":"choice","trial_type":"html-keyboard-response","trial_index":54,"time_elapsed":112567,"internal_node_id":"0.0-54.0","subject":"S1C1254","sona":"41737","block":5,"time":"2021-09-22T14:23:07.743Z","response":"1st","certainty":"high","char":"A","transposition":-2,"order":["swapped","shifted"],"probe_pitches":[1,-2,-1,7,-1,8,5,0,1,-1,3,0],"shifted_pitches":[1,-2,-1,7,-1,8,4,0,1,-1,3,0],"swapped_pitches":[1,-2,-1,7,-1,5,8,0,1,-1,3,0],"shift_direction":-1,"question_num":41,"has_decoy":false},{"rt":1408.6999999284744,"stimulus":"[A] option 1, [L] option 2, [G] neither","key_press":76,"name":"choice","trial_type":"html-keyboard-response","trial_index":65,"time_elapsed":134478,"internal_node_id":"0.0-65.0","subject":"S1C1254","sona":"41737","block":5,"time":"2021-09-22T14:23:07.743Z","response":"2nd","certainty":"high","char":"L","transposition":1,"order":["swapped","shifted"],"probe_pitches":[2,-1,4,2,7,4,9,2,9,-3,7,2],"shifted_pitches":[2,-1,4,2,7,5,9,2,9,-3,7,2],"swapped_pitches":[2,-1,4,2,7,9,4,2,9,-3,7,2],"shift_direction":1,"question_num":51,"has_decoy":false},{"rt":1511.7000000476837,"stimulus":"[A] option 1, [L] option 2, [G] neither","key_press":76,"name":"choice","trial_type":"html-keyboard-response","trial_index":76,"time_elapsed":157491,"internal_node_id":"0.0-76.0","subject":"S1C1254","sona":"41737","block":5,"time":"2021-09-22T14:23:07.743Z","response":"2nd","certainty":"high","char":"L","transposition":0,"order":["shifted","swapped"],"probe_pitches":[2,6,9,6,9,4,2,9,-1,4,-1,6],"shifted_pitches":[2,6,9,6,9,4,3,9,-1,4,-1,6],"swapped_pitches":[2,6,9,6,9,2,4,9,-1,4,-1,6],"shift_direction":1,"question_num":61,"has_decoy":false},{"rt":630.5,"stimulus":"[A] option 1, [L] option 2, [G] neither","key_press":65,"name":"choice","trial_type":"html-keyboard-response","trial_index":87,"time_elapsed":179890,"internal_node_id":"0.0-87.0","subject":"S1C1254","sona":"41737","block":5,"time":"2021-09-22T14:23:07.743Z","response":"1st","certainty":"high","char":"A","transposition":3,"order":["shifted","swapped"],"probe_pitches":[7,1,-2,4,1,10,2,0,4,1,8,5],"shifted_pitches":[7,1,-2,4,1,9,2,0,4,1,8,5],"swapped_pitches":[7,1,-2,4,1,2,10,0,4,1,8,5],"shift_direction":-1,"question_num":71,"has_decoy":false},{"rt":973.7000000476837,"stimulus":"[A] option 1, [L] option 2, [G] neither","key_press":65,"name":"choice","trial_type":"html-keyboard-response","trial_index":98,"time_elapsed":200723,"internal_node_id":"0.0-98.0","subject":"S1C1254","sona":"41737","block":5,"time":"2021-09-22T14:23:07.743Z","response":"1st","certainty":"high","char":"A","transposition":2,"order":["shifted","swapped"],"probe_pitches":[5,9,7,5,1,7,9,-2,0,6,2,1],"shifted_pitches":[5,9,7,5,1,8,9,-2,0,6,2,1],"swapped_pitches":[5,9,7,5,1,9,7,-2,0,6,2,1],"shift_direction":1,"question_num":81,"has_decoy":false},{"rt":3181.600000023842,"stimulus":"[A] option 1, [L] option 2, [G] neither","key_press":76,"name":"choice","trial_type":"html-keyboard-response","trial_index":109,"time_elapsed":226291,"internal_node_id":"0.0-109.0","subject":"S1C1254","sona":"41737","block":5,"time":"2021-09-22T14:23:07.743Z","response":"2nd","certainty":"high","char":"L","transposition":-1,"order":["swapped","shifted"],"probe_pitches":[-1,-3,-1,2,9,4,2,9,4,7,-1,7],"shifted_pitches":[-1,-3,-1,2,9,4,3,9,4,7,-1,7],"swapped_pitches":[-1,-3,-1,2,9,2,4,9,4,7,-1,7],"shift_direction":1,"question_num":91,"has_decoy":false},{"rt":1408.7000000476837,"stimulus":"[A] option 1, [L] option 2, [G] neither","key_press":76,"name":"choice","trial_type":"html-keyboard-response","trial_index":120,"time_elapsed":249128,"internal_node_id":"0.0-120.0","subject":"S1C1254","sona":"41737","block":5,"time":"2021-09-22T14:23:07.743Z","response":"2nd","certainty":"high","char":"L","transposition":-3,"order":["shifted","swapped"],"probe_pitches":[1,5,-2,5,10,0,3,5,9,6,5,7],"shifted_pitches":[1,5,-2,5,10,0,2,5,9,6,5,7],"swapped_pitches":[1,5,-2,5,10,3,0,5,9,6,5,7],"shift_direction":-1,"question_num":101,"has_decoy":false},{"rt":7098.899999976158,"stimulus":"[A] option 1, [L] option 2, [G] neither","key_press":65,"name":"choice","trial_type":"html-keyboard-response","trial_index":131,"time_elapsed":275407,"internal_node_id":"0.0-131.0","subject":"S1C1254","sona":"41737","block":5,"time":"2021-09-22T14:23:07.743Z","response":"1st","certainty":"high","char":"A","transposition":2,"order":["swapped","shifted"],"probe_pitches":[1,-3,1,-1,1,6,9,-3,-1,-3,4,6],"shifted_pitches":[1,-3,1,-1,1,6,8,-3,-1,-3,4,6],"swapped_pitches":[1,-3,1,-1,1,9,6,-3,-1,-3,4,6],"shift_direction":-1,"question_num":111,"has_decoy":false},{"rt":1388.5999999046326,"stimulus":"[A] option 1, [L] option 2, [G] neither","key_press":76,"name":"choice","trial_type":"html-keyboard-response","trial_index":142,"time_elapsed":300278,"internal_node_id":"0.0-142.0","subject":"S1C1254","sona":"41737","block":5,"time":"2021-09-22T14:23:07.743Z","response":"2nd","certainty":"high","char":"L","transposition":-1,"order":["shifted","swapped"],"probe_pitches":[9,6,-1,6,4,1,9,-3,6,9,4,6],"shifted_pitches":[9,6,-1,6,4,0,9,-3,6,9,4,6],"swapped_pitches":[9,6,-1,6,4,9,1,-3,6,9,4,6],"shift_direction":-1,"question_num":121,"has_decoy":false},{"rt":498.39999997615814,"stimulus":"[A] option 1, [L] option 2, [G] neither","key_press":76,"name":"choice","trial_type":"html-keyboard-response","trial_index":153,"time_elapsed":320628,"internal_node_id":"0.0-153.0","subject":"S1C1254","sona":"41737","block":5,"time":"2021-09-22T14:23:07.743Z","response":"2nd","certainty":"high","char":"L","transposition":-2,"order":["shifted","swapped"],"probe_pitches":[9,5,9,2,0,2,9,7,0,-3,7,0],"shifted_pitches":[9,5,9,2,0,3,9,7,0,-3,7,0],"swapped_pitches":[9,5,9,2,0,9,2,7,0,-3,7,0],"shift_direction":1,"question_num":131,"has_decoy":false},{"rt":539.2000000476837,"stimulus":"[A] option 1, [L] option 2, [G] neither","key_press":76,"name":"choice","trial_type":"html-keyboard-response","trial_index":164,"time_elapsed":339888,"internal_node_id":"0.0-164.0","subject":"S1C1254","sona":"41737","block":5,"time":"2021-09-22T14:23:07.743Z","response":"2nd","certainty":"high","char":"L","transposition":-1,"order":["swapped","shifted"],"probe_pitches":[7,3,0,4,9,4,2,1,7,-1,9,2],"shifted_pitches":[7,3,0,4,9,5,2,1,7,-1,9,2],"swapped_pitches":[7,3,0,4,9,2,4,1,7,-1,9,2],"shift_direction":1,"question_num":141,"has_decoy":false},{"rt":1455.3999999761581,"stimulus":"[A] option 1, [L] option 2, [G] neither","key_press":65,"name":"choice","trial_type":"html-keyboard-response","trial_index":175,"time_elapsed":360964,"internal_node_id":"0.0-175.0","subject":"S1C1254","sona":"41737","block":5,"time":"2021-09-22T14:23:07.743Z","response":"1st","certainty":"high","char":"A","transposition":-3,"order":["shifted","swapped"],"probe_pitches":[9,4,2,0,2,4,-3,7,9,0,9,2],"shifted_pitches":[9,4,2,0,2,3,-3,7,9,0,9,2],"swapped_pitches":[9,4,2,0,2,-3,4,7,9,0,9,2],"shift_direction":-1,"question_num":151,"has_decoy":false},{"rt":928.7000000476837,"stimulus":"[A] option 1, [L] option 2, [G] neither","key_press":76,"name":"choice","trial_type":"html-keyboard-response","trial_index":186,"time_elapsed":380487,"internal_node_id":"0.0-186.0","subject":"S1C1254","sona":"41737","block":5,"time":"2021-09-22T14:23:07.743Z","response":"2nd","certainty":"high","char":"L","transposition":-1,"order":["shifted","swapped"],"probe_pitches":[5,9,2,5,4,6,-1,5,8,1,-2,5],"shifted_pitches":[5,9,2,5,4,7,-1,5,8,1,-2,5],"swapped_pitches":[5,9,2,5,4,-1,6,5,8,1,-2,5],"shift_direction":1,"question_num":161,"has_decoy":false},{"rt":821.7000000476837,"stimulus":"[A] option 1, [L] option 2, [G] neither","key_press":65,"name":"choice","trial_type":"html-keyboard-response","trial_index":197,"time_elapsed":402181,"internal_node_id":"0.0-197.0","subject":"S1C1254","sona":"41737","block":5,"time":"2021-09-22T14:23:07.743Z","response":"1st","certainty":"high","char":"A","transposition":3,"order":["shifted","swapped"],"probe_pitches":[9,7,4,2,4,9,7,-3,0,-3,9,7],"shifted_pitches":[9,7,4,2,4,9,6,-3,0,-3,9,7],"swapped_pitches":[9,7,4,2,4,7,9,-3,0,-3,9,7],"shift_direction":-1,"question_num":171,"has_decoy":false},{"rt":1247,"stimulus":"[A] option 1, [L] option 2, [G] neither","key_press":76,"name":"choice","trial_type":"html-keyboard-response","trial_index":208,"time_elapsed":424786,"internal_node_id":"0.0-208.0","subject":"S1C1254","sona":"41737","block":5,"time":"2021-09-22T14:23:07.743Z","response":"2nd","certainty":"high","char":"L","transposition":-2,"order":["swapped","shifted"],"probe_pitches":[7,2,7,0,-3,2,0,7,2,5,9,7],"shifted_pitches":[7,2,7,0,-3,2,1,7,2,5,9,7],"swapped_pitches":[7,2,7,0,-3,0,2,7,2,5,9,7],"shift_direction":1,"question_num":181,"has_decoy":false},{"rt":1077.2000000476837,"stimulus":"[A] option 1, [L] option 2, [G] neither","key_press":76,"name":"choice","trial_type":"html-keyboard-response","trial_index":219,"time_elapsed":447537,"internal_node_id":"0.0-219.0","subject":"S1C1254","sona":"41737","block":5,"time":"2021-09-22T14:23:07.743Z","response":"2nd","certainty":"high","char":"L","transposition":-3,"order":["swapped","shifted"],"probe_pitches":[6,9,4,9,6,-1,4,-3,2,4,-3,2],"shifted_pitches":[6,9,4,9,6,-2,4,-3,2,4,-3,2],"swapped_pitches":[6,9,4,9,6,4,-1,-3,2,4,-3,2],"shift_direction":-1,"question_num":191,"has_decoy":false}]