[{"rt":7487.200000047684,"stimulus":"[A] option 1, [L] option 2, [G] neither","key_press":76,"name":"choice","trial_type":"html-keyboard-response","trial_index":10,"time_elapsed":28081,"internal_node_id":"0.0-10.0","subject":"S1C1254","sona":"41737","block":3,"time":"2021-09-22T14:07:49.430Z","response":"2nd","certainty":"high","char":"L","transposition":3,"order":["swapped","shifted"],"probe_pitches":[11,13,11,12,13,5,7,11,7,5,3,8],"shifted_pitches":[11,13,11,12,13,5,6,11,7,5,3,8],"swapped_pitches":[11,13,11,12,13,7,5,11,7,5,3,8],"shift_direction":-1,"question_num":1,"has_decoy":false},{"rt":11278.100000023842,"stimulus":"[A] option 1, [L] option 2, [G] neither","key_press":76,"name":"choice","trial_type":"html-keyboard-response","trial_index":21,"time_elapsed":60341,"internal_node_id":"0.0-21.0","subject":"S1C1254","sona":"41737","block":3,"time":"2021-09-22T14:07:49.430Z","response":"2nd","certainty":"high","char":"L","transposition":-1,"order":["swapped","shifted"],"probe_pitches":[1,-2,3,10,8,-2,6,1,8,6,8,6],"shifted_pitches":[1,-2,3,10,8,-2,5,1,8,6,8,6],"swapped_pitches":[1,-2,3,10,8,6,-2,1,8,6,8,6],"shift_direction":-1,"question_num":11,"has_decoy":false},{"rt":16272.200000047684,"stimulus":"[A] option 1, [L] option 2, [G] neither","key_press":76,"name":"choice","trial_type":"html-keyboard-response","trial_index":32,"time_elapsed":97817,"internal_node_id":"0.0-32.0","subject":"S1C1254","sona":"41737","block":3,"time":"2021-09-22T14:07:49.430Z","response":"2nd","certainty":"high","char":"L","transposition":-3,"order":["shifted","swapped"],"probe_pitches":[10,7,10,5,-2,0,10,3,-2,5,0,5],"shifted_pitches":[10,7,10,5,-2,-1,10,3,-2,5,0,5],"swapped_pitches":[10,7,10,5,-2,10,0,3,-2,5,0,5],"shift_direction":-1,"question_num":21,"has_decoy":false},{"rt":2395.1999999284744,"stimulus":"[A] option 1, [L] option 2, [G] neither","key_press":76,"name":"choice","trial_type":"html-keyboard-response","trial_index":43,"time_elapsed":125927,"internal_node_id":"0.0-43.0","subject":"S1C1254","sona":"41737","block":3,"time":"2021-09-22T14:07:49.430Z","response":"2nd","certainty":"high","char":"L","transposition":2,"order":["swapped","shifted"],"probe_pitches":[5,2,0,2,-2,5,0,2,5,-2,7,10],"shifted_pitches":[5,2,0,2,-2,5,-1,2,5,-2,7,10],"swapped_pitches":[5,2,0,2,-2,0,5,2,5,-2,7,10],"shift_direction":-1,"question_num":31,"has_decoy":false},{"rt":1248.2000000476837,"stimulus":"[A] option 1, [L] option 2, [G] neither","key_press":65,"name":"choice","trial_type":"html-keyboard-response","trial_index":54,"time_elapsed":145841,"internal_node_id":"0.0-54.0","subject":"S1C1254","sona":"41737","block":3,"time":"2021-09-22T14:07:49.430Z","response":"1st","certainty":"high","char":"A","transposition":-1,"order":["shifted","swapped"],"probe_pitches":[3,5,-2,1,10,1,8,10,8,5,3,8],"shifted_pitches":[3,5,-2,1,10,2,8,10,8,5,3,8],"swapped_pitches":[3,5,-2,1,10,8,1,10,8,5,3,8],"shift_direction":1,"question_num":41,"has_decoy":false},{"rt":1396.1000000238419,"stimulus":"[A] option 1, [L] option 2, [G] neither","key_press":76,"name":"choice","trial_type":"html-keyboard-response","trial_index":65,"time_elapsed":167802,"internal_node_id":"0.0-65.0","subject":"S1C1254","sona":"41737","block":3,"time":"2021-09-22T14:07:49.430Z","response":"2nd","certainty":"high","char":"L","transposition":0,"order":["shifted","swapped"],"probe_pitches":[0,3,-2,5,8,-2,5,8,5,8,3,-2],"shifted_pitches":[0,3,-2,5,8,-2,6,8,5,8,3,-2],"swapped_pitches":[0,3,-2,5,8,5,-2,8,5,8,3,-2],"shift_direction":1,"question_num":51,"has_decoy":false},{"rt":455.6999999284744,"stimulus":"[A] option 1, [L] option 2, [G] neither","key_press":65,"name":"choice","trial_type":"html-keyboard-response","trial_index":76,"time_elapsed":187759,"internal_node_id":"0.0-76.0","subject":"S1C1254","sona":"41737","block":3,"time":"2021-09-22T14:07:49.430Z","response":"1st","certainty":"high","char":"A","transposition":-2,"order":["shifted","swapped"],"probe_pitches":[8,10,6,-2,1,10,8,6,8,6,3,10],"shifted_pitches":[8,10,6,-2,1,11,8,6,8,6,3,10],"swapped_pitches":[8,10,6,-2,1,8,10,6,8,6,3,10],"shift_direction":1,"question_num":61,"has_decoy":false},{"rt":338.3000000715256,"stimulus":"[A] option 1, [L] option 2, [G] neither","key_press":76,"name":"choice","trial_type":"html-keyboard-response","trial_index":87,"time_elapsed":206742,"internal_node_id":"0.0-87.0","subject":"S1C1254","sona":"41737","block":3,"time":"2021-09-22T14:07:49.430Z","response":"2nd","certainty":"high","char":"L","transposition":1,"order":["swapped","shifted"],"probe_pitches":[0,3,5,10,5,3,0,7,3,-2,5,-2],"shifted_pitches":[0,3,5,10,5,3,1,7,3,-2,5,-2],"swapped_pitches":[0,3,5,10,5,0,3,7,3,-2,5,-2],"shift_direction":1,"question_num":71,"has_decoy":false},{"rt":428.2999999523163,"stimulus":"[A] option 1, [L] option 2, [G] neither","key_press":76,"name":"choice","trial_type":"html-keyboard-response","trial_index":98,"time_elapsed":225421,"internal_node_id":"0.0-98.0","subject":"S1C1254","sona":"41737","block":3,"time":"2021-09-22T14:07:49.430Z","response":"2nd","certainty":"high","char":"L","transposition":-3,"order":["shifted","swapped"],"probe_pitches":[10,7,8,13,14,10,13,4,10,12,14,12],"shifted_pitches":[10,7,8,13,14,9,13,4,10,12,14,12],"swapped_pitches":[10,7,8,13,14,13,10,4,10,12,14,12],"shift_direction":-1,"question_num":81,"has_decoy":false},{"rt":653.5,"stimulus":"[A] option 1, [L] option 2, [G] neither","key_press":76,"name":"choice","trial_type":"html-keyboard-response","trial_index":109,"time_elapsed":245127,"internal_node_id":"0.0-109.0","subject":"S1C1254","sona":"41737","block":3,"time":"2021-09-22T14:07:49.430Z","response":"2nd","certainty":"high","char":"L","transposition":3,"order":["shifted","swapped"],"probe_pitches":[10,5,3,-2,1,10,8,-2,5,10,8,10],"shifted_pitches":[10,5,3,-2,1,9,8,-2,5,10,8,10],"swapped_pitches":[10,5,3,-2,1,8,10,-2,5,10,8,10],"shift_direction":-1,"question_num":91,"has_decoy":false},{"rt":516.5,"stimulus":"[A] option 1, [L] option 2, [G] neither","key_press":76,"name":"choice","trial_type":"html-keyboard-response","trial_index":120,"time_elapsed":266631,"internal_node_id":"0.0-120.0","subject":"S1C1254","sona":"41737","block":3,"time":"2021-09-22T14:07:49.430Z","response":"2nd","certainty":"high","char":"L","transposition":-2,"order":["shifted","swapped"],"probe_pitches":[13,10,6,3,12,13,8,5,2,11,10,12],"shifted_pitches":[13,10,6,3,12,13,7,5,2,11,10,12],"swapped_pitches":[13,10,6,3,12,8,13,5,2,11,10,12],"shift_direction":-1,"question_num":101,"has_decoy":false},{"rt":262.3000000715256,"stimulus":"[A] option 1, [L] option 2, [G] neither","key_press":76,"name":"choice","trial_type":"html-keyboard-response","trial_index":131,"time_elapsed":289446,"internal_node_id":"0.0-131.0","subject":"S1C1254","sona":"41737","block":3,"time":"2021-09-22T14:07:49.430Z","response":"2nd","certainty":"high","char":"L","transposition":-2,"order":["swapped","shifted"],"probe_pitches":[3,5,3,10,8,0,-2,3,10,0,10,-2],"shifted_pitches":[3,5,3,10,8,0,-3,3,10,0,10,-2],"swapped_pitches":[3,5,3,10,8,-2,0,3,10,0,10,-2],"shift_direction":-1,"question_num":111,"has_decoy":false},{"rt":840.4000000953674,"stimulus":"[A] option 1, [L] option 2, [G] neither","key_press":65,"name":"choice","trial_type":"html-keyboard-response","trial_index":142,"time_elapsed":311323,"internal_node_id":"0.0-142.0","subject":"S1C1254","sona":"41737","block":3,"time":"2021-09-22T14:07:49.430Z","response":"1st","certainty":"high","char":"A","transposition":-1,"order":["swapped","shifted"],"probe_pitches":[3,6,4,7,6,4,2,3,10,14,8,3],"shifted_pitches":[3,6,4,7,6,5,2,3,10,14,8,3],"swapped_pitches":[3,6,4,7,6,2,4,3,10,14,8,3],"shift_direction":1,"question_num":121,"has_decoy":false},{"rt":2081.399999976158,"stimulus":"[A] option 1, [L] option 2, [G] neither","key_press":76,"name":"choice","trial_type":"html-keyboard-response","trial_index":153,"time_elapsed":335134,"internal_node_id":"0.0-153.0","subject":"S1C1254","sona":"41737","block":3,"time":"2021-09-22T14:07:49.430Z","response":"2nd","certainty":"high","char":"L","transposition":-3,"order":["swapped","shifted"],"probe_pitches":[7,10,7,0,2,-2,5,2,0,-2,7,5],"shifted_pitches":[7,10,7,0,2,-1,5,2,0,-2,7,5],"swapped_pitches":[7,10,7,0,2,5,-2,2,0,-2,7,5],"shift_direction":1,"question_num":131,"has_decoy":false},{"rt":454.10000002384186,"stimulus":"[A] option 1, [L] option 2, [G] neither","key_press":65,"name":"choice","trial_type":"html-keyboard-response","trial_index":164,"time_elapsed":359627,"internal_node_id":"0.0-164.0","subject":"S1C1254","sona":"41737","block":3,"time":"2021-09-22T14:07:49.430Z","response":"1st","certainty":"high","char":"A","transposition":-3,"order":["swapped","shifted"],"probe_pitches":[6,2,3,7,14,5,9,11,2,13,9,5],"shifted_pitches":[6,2,3,7,14,5,8,11,2,13,9,5],"swapped_pitches":[6,2,3,7,14,9,5,11,2,13,9,5],"shift_direction":-1,"question_num":141,"has_decoy":false},{"rt":1203.6000000238419,"stimulus":"[A] option 1, [L] option 2, [G] neither","key_press":65,"name":"choice","trial_type":"html-keyboard-response","trial_index":175,"time_elapsed":381007,"internal_node_id":"0.0-175.0","subject":"S1C1254","sona":"41737","block":3,"time":"2021-09-22T14:07:49.430Z","response":"1st","certainty":"high","char":"A","transposition":-1,"order":["swapped","shifted"],"probe_pitches":[8,2,9,8,4,10,14,5,7,3,9,2],"shifted_pitches":[8,2,9,8,4,11,14,5,7,3,9,2],"swapped_pitches":[8,2,9,8,4,14,10,5,7,3,9,2],"shift_direction":1,"question_num":151,"has_decoy":false},{"rt":578.2999999523163,"stimulus":"[A] option 1, [L] option 2, [G] neither","key_press":65,"name":"choice","trial_type":"html-keyboard-response","trial_index":186,"time_elapsed":403592,"internal_node_id":"0.0-186.0","subject":"S1C1254","sona":"41737","block":3,"time":"2021-09-22T14:07:49.430Z","response":"1st","certainty":"high","char":"A","transposition":2,"order":["shifted","swapped"],"probe_pitches":[2,7,2,5,14,11,7,3,4,12,7,12],"shifted_pitches":[2,7,2,5,14,10,7,3,4,12,7,12],"swapped_pitches":[2,7,2,5,14,7,11,3,4,12,7,12],"shift_direction":-1,"question_num":161,"has_decoy":false},{"rt":4162.599999904633,"stimulus":"[A] option 1, [L] option 2, [G] neither","key_press":76,"name":"choice","trial_type":"html-keyboard-response","trial_index":197,"time_elapsed":428696,"internal_node_id":"0.0-197.0","subject":"S1C1254","sona":"41737","block":3,"time":"2021-09-22T14:07:49.430Z","response":"2nd","certainty":"high","char":"L","transposition":-2,"order":["shifted","swapped"],"probe_pitches":[2,3,8,10,5,11,12,2,11,12,4,10],"shifted_pitches":[2,3,8,10,5,11,13,2,11,12,4,10],"swapped_pitches":[2,3,8,10,5,12,11,2,11,12,4,10],"shift_direction":1,"question_num":171,"has_decoy":false},{"rt":2278.7000000476837,"stimulus":"[A] option 1, [L] option 2, [G] neither","key_press":76,"name":"choice","trial_type":"html-keyboard-response","trial_index":208,"time_elapsed":453522,"internal_node_id":"0.0-208.0","subject":"S1C1254","sona":"41737","block":3,"time":"2021-09-22T14:07:49.430Z","response":"2nd","certainty":"high","char":"L","transposition":0,"order":["shifted","swapped"],"probe_pitches":[11,14,7,4,2,11,5,14,8,10,13,6],"shifted_pitches":[11,14,7,4,2,12,5,14,8,10,13,6],"swapped_pitches":[11,14,7,4,2,5,11,14,8,10,13,6],"shift_direction":1,"question_num":181,"has_decoy":false},{"rt":3103.899999976158,"stimulus":"[A] option 1, [L] option 2, [G] neither","key_press":65,"name":"choice","trial_type":"html-keyboard-response","trial_index":219,"time_elapsed":479687,"internal_node_id":"0.0-219.0","subject":"S1C1254","sona":"41737","block":3,"time":"2021-09-22T14:07:49.430Z","response":"1st","certainty":"high","char":"A","transposition":1,"order":["swapped","shifted"],"probe_pitches":[8,5,12,8,14,9,3,5,13,11,5,9],"shifted_pitches":[8,5,12,8,14,9,4,5,13,11,5,9],"swapped_pitches":[8,5,12,8,14,3,9,5,13,11,5,9],"shift_direction":1,"question_num":191,"has_decoy":false}]