[{"rt":1724.8999999761581,"stimulus":"[A] option 1, [L] option 2, [G] neither","key_press":76,"name":"choice","trial_type":"html-keyboard-response","trial_index":10,"time_elapsed":25887,"internal_node_id":"0.0-10.0","subject":"S1C1254","sona":"41737","block":4,"time":"2021-09-22T14:15:36.059Z","response":"2nd","certainty":"high","char":"L","transposition":0,"order":["swapped","shifted"],"probe_pitches":[12,9,4,7,9,4,11,1,7,8,10,4],"shifted_pitches":[12,9,4,7,9,5,11,1,7,8,10,4],"swapped_pitches":[12,9,4,7,9,11,4,1,7,8,10,4],"shift_direction":1,"question_num":1,"has_decoy":false},{"rt":2512.2999999523163,"stimulus":"[A] option 1, [L] option 2, [G] neither","key_press":76,"name":"choice","trial_type":"html-keyboard-response","trial_index":21,"time_elapsed":47025,"internal_node_id":"0.0-21.0","subject":"S1C1254","sona":"41737","block":4,"time":"2021-09-22T14:15:36.059Z","response":"2nd","certainty":"high","char":"L","transposition":3,"order":["shifted","swapped"],"probe_pitches":[6,8,2,9,11,4,8,9,3,8,6,3],"shifted_pitches":[6,8,2,9,11,4,7,9,3,8,6,3],"swapped_pitches":[6,8,2,9,11,8,4,9,3,8,6,3],"shift_direction":-1,"question_num":11,"has_decoy":false},{"rt":1615.8000000715256,"stimulus":"[A] option 1, [L] option 2, [G] neither","key_press":76,"name":"choice","trial_type":"html-keyboard-response","trial_index":32,"time_elapsed":68428,"internal_node_id":"0.0-32.0","subject":"S1C1254","sona":"41737","block":4,"time":"2021-09-22T14:15:36.059Z","response":"2nd","certainty":"high","char":"L","transposition":-3,"order":["swapped","shifted"],"probe_pitches":[10,8,7,3,1,8,13,9,10,9,7,2],"shifted_pitches":[10,8,7,3,1,8,12,9,10,9,7,2],"swapped_pitches":[10,8,7,3,1,13,8,9,10,9,7,2],"shift_direction":-1,"question_num":21,"has_decoy":false},{"rt":3382.399999976158,"stimulus":"[A] option 1, [L] option 2, [G] neither","key_press":65,"name":"choice","trial_type":"html-keyboard-response","trial_index":43,"time_elapsed":91944,"internal_node_id":"0.0-43.0","subject":"S1C1254","sona":"41737","block":4,"time":"2021-09-22T14:15:36.059Z","response":"1st","certainty":"high","char":"A","transposition":-1,"order":["swapped","shifted"],"probe_pitches":[-3,0,7,5,0,2,7,9,-3,0,9,-3],"shifted_pitches":[-3,0,7,5,0,3,7,9,-3,0,9,-3],"swapped_pitches":[-3,0,7,5,0,7,2,9,-3,0,9,-3],"shift_direction":1,"question_num":31,"has_decoy":false},{"rt":1483.5,"stimulus":"[A] option 1, [L] option 2, [G] neither","key_press":76,"name":"choice","trial_type":"html-keyboard-response","trial_index":54,"time_elapsed":115516,"internal_node_id":"0.0-54.0","subject":"S1C1254","sona":"41737","block":4,"time":"2021-09-22T14:15:36.059Z","response":"2nd","certainty":"high","char":"L","transposition":-2,"order":["shifted","swapped"],"probe_pitches":[-3,-1,2,-1,-3,2,-1,-3,6,-3,4,6],"shifted_pitches":[-3,-1,2,-1,-3,2,0,-3,6,-3,4,6],"swapped_pitches":[-3,-1,2,-1,-3,-1,2,-3,6,-3,4,6],"shift_direction":1,"question_num":41,"has_decoy":false},{"rt":1182.5,"stimulus":"[A] option 1, [L] option 2, [G] neither","key_press":65,"name":"choice","trial_type":"html-keyboard-response","trial_index":65,"time_elapsed":137255,"internal_node_id":"0.0-65.0","subject":"S1C1254","sona":"41737","block":4,"time":"2021-09-22T14:15:36.059Z","response":"1st","certainty":"high","char":"A","transposition":-2,"order":["shifted","swapped"],"probe_pitches":[7,9,4,9,4,9,2,4,-3,7,-1,2],"shifted_pitches":[7,9,4,9,4,9,1,4,-3,7,-1,2],"swapped_pitches":[7,9,4,9,4,2,9,4,-3,7,-1,2],"shift_direction":-1,"question_num":51,"has_decoy":false},{"rt":4998.5,"stimulus":"[A] option 1, [L] option 2, [G] neither","key_press":76,"name":"choice","trial_type":"html-keyboard-response","trial_index":76,"time_elapsed":164081,"internal_node_id":"0.0-76.0","subject":"S1C1254","sona":"41737","block":4,"time":"2021-09-22T14:15:36.059Z","response":"2nd","certainty":"high","char":"L","transposition":-1,"order":["swapped","shifted"],"probe_pitches":[3,9,5,13,9,12,3,9,3,8,12,13],"shifted_pitches":[3,9,5,13,9,11,3,9,3,8,12,13],"swapped_pitches":[3,9,5,13,9,3,12,9,3,8,12,13],"shift_direction":-1,"question_num":61,"has_decoy":false},{"rt":1570.3000000715256,"stimulus":"[A] option 1, [L] option 2, [G] neither","key_press":65,"name":"choice","trial_type":"html-keyboard-response","trial_index":87,"time_elapsed":188152,"internal_node_id":"0.0-87.0","subject":"S1C1254","sona":"41737","block":4,"time":"2021-09-22T14:15:36.059Z","response":"1st","certainty":"high","char":"A","transposition":-1,"order":["shifted","swapped"],"probe_pitches":[0,-3,0,-3,2,7,4,-3,9,-3,2,-3],"shifted_pitches":[0,-3,0,-3,2,6,4,-3,9,-3,2,-3],"swapped_pitches":[0,-3,0,-3,2,4,7,-3,9,-3,2,-3],"shift_direction":-1,"question_num":71,"has_decoy":false},{"rt":584.6000000238419,"stimulus":"[A] option 1, [L] option 2, [G] neither","key_press":76,"name":"choice","trial_type":"html-keyboard-response","trial_index":98,"time_elapsed":209147,"internal_node_id":"0.0-98.0","subject":"S1C1254","sona":"41737","block":4,"time":"2021-09-22T14:15:36.059Z","response":"2nd","certainty":"high","char":"L","transposition":2,"order":["swapped","shifted"],"probe_pitches":[7,2,7,4,7,2,-3,4,9,4,7,0],"shifted_pitches":[7,2,7,4,7,2,-4,4,9,4,7,0],"swapped_pitches":[7,2,7,4,7,-3,2,4,9,4,7,0],"shift_direction":-1,"question_num":81,"has_decoy":false},{"rt":1849.6000000238419,"stimulus":"[A] option 1, [L] option 2, [G] neither","key_press":76,"name":"choice","trial_type":"html-keyboard-response","trial_index":109,"time_elapsed":231972,"internal_node_id":"0.0-109.0","subject":"S1C1254","sona":"41737","block":4,"time":"2021-09-22T14:15:36.059Z","response":"2nd","certainty":"high","char":"L","transposition":-3,"order":["shifted","swapped"],"probe_pitches":[-3,2,4,6,-3,2,6,-3,-1,2,4,-3],"shifted_pitches":[-3,2,4,6,-3,3,6,-3,-1,2,4,-3],"swapped_pitches":[-3,2,4,6,-3,6,2,-3,-1,2,4,-3],"shift_direction":1,"question_num":91,"has_decoy":false},{"rt":2818,"stimulus":"[A] option 1, [L] option 2, [G] neither","key_press":65,"name":"choice","trial_type":"html-keyboard-response","trial_index":120,"time_elapsed":253250,"internal_node_id":"0.0-120.0","subject":"S1C1254","sona":"41737","block":4,"time":"2021-09-22T14:15:36.059Z","response":"1st","certainty":"high","char":"A","transposition":2,"order":["shifted","swapped"],"probe_pitches":[13,8,4,8,12,7,4,5,10,1,10,8],"shifted_pitches":[13,8,4,8,12,7,3,5,10,1,10,8],"swapped_pitches":[13,8,4,8,12,4,7,5,10,1,10,8],"shift_direction":-1,"question_num":101,"has_decoy":false},{"rt":415.2000000476837,"stimulus":"[A] option 1, [L] option 2, [G] neither","key_press":76,"name":"choice","trial_type":"html-keyboard-response","trial_index":131,"time_elapsed":273508,"internal_node_id":"0.0-131.0","subject":"S1C1254","sona":"41737","block":4,"time":"2021-09-22T14:15:36.059Z","response":"2nd","certainty":"high","char":"L","transposition":0,"order":["swapped","shifted"],"probe_pitches":[9,6,1,4,6,4,-1,-3,9,-1,9,1],"shifted_pitches":[9,6,1,4,6,5,-1,-3,9,-1,9,1],"swapped_pitches":[9,6,1,4,6,-1,4,-3,9,-1,9,1],"shift_direction":1,"question_num":111,"has_decoy":false},{"rt":670.5,"stimulus":"[A] option 1, [L] option 2, [G] neither","key_press":65,"name":"choice","trial_type":"html-keyboard-response","trial_index":142,"time_elapsed":292553,"internal_node_id":"0.0-142.0","subject":"S1C1254","sona":"41737","block":4,"time":"2021-09-22T14:15:36.059Z","response":"1st","certainty":"high","char":"A","transposition":-3,"order":["shifted","swapped"],"probe_pitches":[4,7,2,9,2,9,-1,7,9,-3,9,4],"shifted_pitches":[4,7,2,9,2,9,-2,7,9,-3,9,4],"swapped_pitches":[4,7,2,9,2,-1,9,7,9,-3,9,4],"shift_direction":-1,"question_num":121,"has_decoy":false},{"rt":2427.6999999284744,"stimulus":"[A] option 1, [L] option 2, [G] neither","key_press":65,"name":"choice","trial_type":"html-keyboard-response","trial_index":153,"time_elapsed":317190,"internal_node_id":"0.0-153.0","subject":"S1C1254","sona":"41737","block":4,"time":"2021-09-22T14:15:36.059Z","response":"1st","certainty":"high","char":"A","transposition":-3,"order":["shifted","swapped"],"probe_pitches":[13,7,5,4,13,3,7,10,4,12,10,5],"shifted_pitches":[13,7,5,4,13,3,8,10,4,12,10,5],"swapped_pitches":[13,7,5,4,13,7,3,10,4,12,10,5],"shift_direction":1,"question_num":131,"has_decoy":false},{"rt":1020.9000000953674,"stimulus":"[A] option 1, [L] option 2, [G] neither","key_press":76,"name":"choice","trial_type":"html-keyboard-response","trial_index":164,"time_elapsed":338664,"internal_node_id":"0.0-164.0","subject":"S1C1254","sona":"41737","block":4,"time":"2021-09-22T14:15:36.059Z","response":"2nd","certainty":"high","char":"L","transposition":1,"order":["shifted","swapped"],"probe_pitches":[10,4,8,10,13,5,11,1,9,7,2,10],"shifted_pitches":[10,4,8,10,13,6,11,1,9,7,2,10],"swapped_pitches":[10,4,8,10,13,11,5,1,9,7,2,10],"shift_direction":1,"question_num":141,"has_decoy":false},{"rt":1255.5,"stimulus":"[A] option 1, [L] option 2, [G] neither","key_press":65,"name":"choice","trial_type":"html-keyboard-response","trial_index":175,"time_elapsed":360198,"internal_node_id":"0.0-175.0","subject":"S1C1254","sona":"41737","block":4,"time":"2021-09-22T14:15:36.059Z","response":"1st","certainty":"high","char":"A","transposition":-1,"order":["shifted","swapped"],"probe_pitches":[12,13,10,7,10,3,8,13,10,13,7,1],"shifted_pitches":[12,13,10,7,10,3,9,13,10,13,7,1],"swapped_pitches":[12,13,10,7,10,8,3,13,10,13,7,1],"shift_direction":1,"question_num":151,"has_decoy":false},{"rt":4501.400000095367,"stimulus":"[A] option 1, [L] option 2, [G] neither","key_press":65,"name":"choice","trial_type":"html-keyboard-response","trial_index":186,"time_elapsed":386804,"internal_node_id":"0.0-186.0","subject":"S1C1254","sona":"41737","block":4,"time":"2021-09-22T14:15:36.059Z","response":"1st","certainty":"high","char":"A","transposition":3,"order":["swapped","shifted"],"probe_pitches":[-3,0,7,0,7,9,2,7,5,0,7,5],"shifted_pitches":[-3,0,7,0,7,9,3,7,5,0,7,5],"swapped_pitches":[-3,0,7,0,7,2,9,7,5,0,7,5],"shift_direction":1,"question_num":161,"has_decoy":false},{"rt":1354.7000000476837,"stimulus":"[A] option 1, [L] option 2, [G] neither","key_press":76,"name":"choice","trial_type":"html-keyboard-response","trial_index":197,"time_elapsed":407747,"internal_node_id":"0.0-197.0","subject":"S1C1254","sona":"41737","block":4,"time":"2021-09-22T14:15:36.059Z","response":"2nd","certainty":"high","char":"L","transposition":1,"order":["swapped","shifted"],"probe_pitches":[-3,-1,1,-3,4,-1,6,9,1,-3,-1,6],"shifted_pitches":[-3,-1,1,-3,4,-2,6,9,1,-3,-1,6],"swapped_pitches":[-3,-1,1,-3,4,6,-1,9,1,-3,-1,6],"shift_direction":-1,"question_num":171,"has_decoy":false},{"rt":3273.600000023842,"stimulus":"[A] option 1, [L] option 2, [G] neither","key_press":65,"name":"choice","trial_type":"html-keyboard-response","trial_index":208,"time_elapsed":433216,"internal_node_id":"0.0-208.0","subject":"S1C1254","sona":"41737","block":4,"time":"2021-09-22T14:15:36.059Z","response":"1st","certainty":"high","char":"A","transposition":-2,"order":["swapped","shifted"],"probe_pitches":[11,9,3,11,2,9,4,11,2,7,8,7],"shifted_pitches":[11,9,3,11,2,10,4,11,2,7,8,7],"swapped_pitches":[11,9,3,11,2,4,9,11,2,7,8,7],"shift_direction":1,"question_num":181,"has_decoy":false},{"rt":4473.299999952316,"stimulus":"[A] option 1, [L] option 2, [G] neither","key_press":65,"name":"choice","trial_type":"html-keyboard-response","trial_index":219,"time_elapsed":461646,"internal_node_id":"0.0-219.0","subject":"S1C1254","sona":"41737","block":4,"time":"2021-09-22T14:15:36.059Z","response":"1st","certainty":"high","char":"A","transposition":-2,"order":["swapped","shifted"],"probe_pitches":[1,2,7,12,13,5,11,9,5,11,8,1],"shifted_pitches":[1,2,7,12,13,4,11,9,5,11,8,1],"swapped_pitches":[1,2,7,12,13,11,5,9,5,11,8,1],"shift_direction":-1,"question_num":191,"has_decoy":false}]