[{"rt":1731.8000000715256,"stimulus":"[A] option 1, [L] option 2, [G] neither","key_press":76,"name":"choice","trial_type":"html-keyboard-response","trial_index":10,"time_elapsed":20020,"internal_node_id":"0.0-10.0","subject":"S1C1254","sona":"41737","block":6,"time":"2021-09-22T14:30:48.342Z","response":"2nd","certainty":"high","char":"L","transposition":1,"order":["shifted","swapped"],"probe_pitches":[11,8,13,6,11,6,3,1,11,6,3,13],"shifted_pitches":[11,8,13,6,11,7,3,1,11,6,3,13],"swapped_pitches":[11,8,13,6,11,3,6,1,11,6,3,13],"shift_direction":1,"question_num":1,"has_decoy":false},{"rt":577.3999999761581,"stimulus":"[A] option 1, [L] option 2, [G] neither","key_press":76,"name":"choice","trial_type":"html-keyboard-response","trial_index":21,"time_elapsed":39836,"internal_node_id":"0.0-21.0","subject":"S1C1254","sona":"41737","block":6,"time":"2021-09-22T14:30:48.342Z","response":"2nd","certainty":"high","char":"L","transposition":3,"order":["swapped","shifted"],"probe_pitches":[6,1,6,8,11,1,4,13,1,6,8,11],"shifted_pitches":[6,1,6,8,11,0,4,13,1,6,8,11],"swapped_pitches":[6,1,6,8,11,4,1,13,1,6,8,11],"shift_direction":-1,"question_num":11,"has_decoy":false},{"rt":1486.5,"stimulus":"[A] option 1, [L] option 2, [G] neither","key_press":76,"name":"choice","trial_type":"html-keyboard-response","trial_index":32,"time_elapsed":60714,"internal_node_id":"0.0-32.0","subject":"S1C1254","sona":"41737","block":6,"time":"2021-09-22T14:30:48.342Z","response":"2nd","certainty":"high","char":"L","transposition":-2,"order":["shifted","swapped"],"probe_pitches":[-3,0,1,6,7,3,-2,7,6,2,8,2],"shifted_pitches":[-3,0,1,6,7,4,-2,7,6,2,8,2],"swapped_pitches":[-3,0,1,6,7,-2,3,7,6,2,8,2],"shift_direction":1,"question_num":21,"has_decoy":false},{"rt":4141.100000023842,"stimulus":"[A] option 1, [L] option 2, [G] neither","key_press":65,"name":"choice","trial_type":"html-keyboard-response","trial_index":43,"time_elapsed":84100,"internal_node_id":"0.0-43.0","subject":"S1C1254","sona":"41737","block":6,"time":"2021-09-22T14:30:48.342Z","response":"1st","certainty":"high","char":"A","transposition":2,"order":["shifted","swapped"],"probe_pitches":[3,1,8,1,6,1,8,6,1,8,3,10],"shifted_pitches":[3,1,8,1,6,1,9,6,1,8,3,10],"swapped_pitches":[3,1,8,1,6,8,1,6,1,8,3,10],"shift_direction":1,"question_num":31,"has_decoy":false},{"rt":942.3999999761581,"stimulus":"[A] option 1, [L] option 2, [G] neither","key_press":76,"name":"choice","trial_type":"html-keyboard-response","trial_index":54,"time_elapsed":106620,"internal_node_id":"0.0-54.0","subject":"S1C1254","sona":"41737","block":6,"time":"2021-09-22T14:30:48.342Z","response":"2nd","certainty":"high","char":"L","transposition":-3,"order":["swapped","shifted"],"probe_pitches":[11,8,4,6,4,8,13,1,6,8,13,4],"shifted_pitches":[11,8,4,6,4,8,12,1,6,8,13,4],"swapped_pitches":[11,8,4,6,4,13,8,1,6,8,13,4],"shift_direction":-1,"question_num":41,"has_decoy":false},{"rt":1256.2999999523163,"stimulus":"[A] option 1, [L] option 2, [G] neither","key_press":76,"name":"choice","trial_type":"html-keyboard-response","trial_index":65,"time_elapsed":128285,"internal_node_id":"0.0-65.0","subject":"S1C1254","sona":"41737","block":6,"time":"2021-09-22T14:30:48.342Z","response":"2nd","certainty":"high","char":"L","transposition":-3,"order":["shifted","swapped"],"probe_pitches":[-2,0,7,0,8,-2,2,8,3,2,-3,0],"shifted_pitches":[-2,0,7,0,8,-1,2,8,3,2,-3,0],"swapped_pitches":[-2,0,7,0,8,2,-2,8,3,2,-3,0],"shift_direction":1,"question_num":51,"has_decoy":false},{"rt":2847.5999999046326,"stimulus":"[A] option 1, [L] option 2, [G] neither","key_press":65,"name":"choice","trial_type":"html-keyboard-response","trial_index":76,"time_elapsed":152596,"internal_node_id":"0.0-76.0","subject":"S1C1254","sona":"41737","block":6,"time":"2021-09-22T14:30:48.342Z","response":"1st","certainty":"high","char":"A","transposition":-1,"order":["shifted","swapped"],"probe_pitches":[8,7,9,6,7,9,2,-1,4,1,5,7],"shifted_pitches":[8,7,9,6,7,9,3,-1,4,1,5,7],"swapped_pitches":[8,7,9,6,7,2,9,-1,4,1,5,7],"shift_direction":1,"question_num":61,"has_decoy":false},{"rt":2335.899999976158,"stimulus":"[A] option 1, [L] option 2, [G] neither","key_press":76,"name":"choice","trial_type":"html-keyboard-response","trial_index":87,"time_elapsed":175094,"internal_node_id":"0.0-87.0","subject":"S1C1254","sona":"41737","block":6,"time":"2021-09-22T14:30:48.342Z","response":"2nd","certainty":"high","char":"L","transposition":1,"order":["shifted","swapped"],"probe_pitches":[-1,5,2,7,3,2,-2,6,-3,5,3,0],"shifted_pitches":[-1,5,2,7,3,1,-2,6,-3,5,3,0],"swapped_pitches":[-1,5,2,7,3,-2,2,6,-3,5,3,0],"shift_direction":-1,"question_num":71,"has_decoy":false},{"rt":1428.6000000238419,"stimulus":"[A] option 1, [L] option 2, [G] neither","key_press":76,"name":"choice","trial_type":"html-keyboard-response","trial_index":98,"time_elapsed":195757,"internal_node_id":"0.0-98.0","subject":"S1C1254","sona":"41737","block":6,"time":"2021-09-22T14:30:48.342Z","response":"2nd","certainty":"high","char":"L","transposition":0,"order":["swapped","shifted"],"probe_pitches":[1,6,4,-3,1,3,-1,9,-2,5,-3,4],"shifted_pitches":[1,6,4,-3,1,2,-1,9,-2,5,-3,4],"swapped_pitches":[1,6,4,-3,1,-1,3,9,-2,5,-3,4],"shift_direction":-1,"question_num":81,"has_decoy":false},{"rt":340.3000000715256,"stimulus":"[A] option 1, [L] option 2, [G] neither","key_press":65,"name":"choice","trial_type":"html-keyboard-response","trial_index":109,"time_elapsed":218518,"internal_node_id":"0.0-109.0","subject":"S1C1254","sona":"41737","block":6,"time":"2021-09-22T14:30:48.342Z","response":"1st","certainty":"high","char":"A","transposition":-2,"order":["swapped","shifted"],"probe_pitches":[-3,0,-1,-3,0,2,6,0,4,3,7,2],"shifted_pitches":[-3,0,-1,-3,0,2,5,0,4,3,7,2],"swapped_pitches":[-3,0,-1,-3,0,6,2,0,4,3,7,2],"shift_direction":-1,"question_num":91,"has_decoy":false},{"rt":1338,"stimulus":"[A] option 1, [L] option 2, [G] neither","key_press":76,"name":"choice","trial_type":"html-keyboard-response","trial_index":120,"time_elapsed":238176,"internal_node_id":"0.0-120.0","subject":"S1C1254","sona":"41737","block":6,"time":"2021-09-22T14:30:48.342Z","response":"2nd","certainty":"high","char":"L","transposition":-3,"order":["swapped","shifted"],"probe_pitches":[6,10,3,8,3,6,10,1,10,13,8,13],"shifted_pitches":[6,10,3,8,3,7,10,1,10,13,8,13],"swapped_pitches":[6,10,3,8,3,10,6,1,10,13,8,13],"shift_direction":1,"question_num":101,"has_decoy":false},{"rt":1736.1000000238419,"stimulus":"[A] option 1, [L] option 2, [G] neither","key_press":76,"name":"choice","trial_type":"html-keyboard-response","trial_index":131,"time_elapsed":263484,"internal_node_id":"0.0-131.0","subject":"S1C1254","sona":"41737","block":6,"time":"2021-09-22T14:30:48.342Z","response":"2nd","certainty":"high","char":"L","transposition":0,"order":["shifted","swapped"],"probe_pitches":[13,11,6,4,13,4,1,9,11,1,9,1],"shifted_pitches":[13,11,6,4,13,4,2,9,11,1,9,1],"swapped_pitches":[13,11,6,4,13,1,4,9,11,1,9,1],"shift_direction":1,"question_num":111,"has_decoy":false},{"rt":590.3999999761581,"stimulus":"[A] option 1, [L] option 2, [G] neither","key_press":65,"name":"choice","trial_type":"html-keyboard-response","trial_index":142,"time_elapsed":283809,"internal_node_id":"0.0-142.0","subject":"S1C1254","sona":"41737","block":6,"time":"2021-09-22T14:30:48.342Z","response":"1st","certainty":"high","char":"A","transposition":-2,"order":["swapped","shifted"],"probe_pitches":[13,8,10,3,8,13,5,8,13,8,1,8],"shifted_pitches":[13,8,10,3,8,13,6,8,13,8,1,8],"swapped_pitches":[13,8,10,3,8,5,13,8,13,8,1,8],"shift_direction":1,"question_num":121,"has_decoy":false},{"rt":842.7000000476837,"stimulus":"[A] option 1, [L] option 2, [G] neither","key_press":76,"name":"choice","trial_type":"html-keyboard-response","trial_index":153,"time_elapsed":303571,"internal_node_id":"0.0-153.0","subject":"S1C1254","sona":"41737","block":6,"time":"2021-09-22T14:30:48.342Z","response":"2nd","certainty":"high","char":"L","transposition":2,"order":["swapped","shifted"],"probe_pitches":[2,-3,2,6,4,9,8,1,4,5,-3,-2],"shifted_pitches":[2,-3,2,6,4,9,7,1,4,5,-3,-2],"swapped_pitches":[2,-3,2,6,4,8,9,1,4,5,-3,-2],"shift_direction":-1,"question_num":131,"has_decoy":false},{"rt":971,"stimulus":"[A] option 1, [L] option 2, [G] neither","key_press":65,"name":"choice","trial_type":"html-keyboard-response","trial_index":164,"time_elapsed":324549,"internal_node_id":"0.0-164.0","subject":"S1C1254","sona":"41737","block":6,"time":"2021-09-22T14:30:48.342Z","response":"1st","certainty":"high","char":"A","transposition":-1,"order":["shifted","swapped"],"probe_pitches":[-2,1,3,1,2,-3,-2,9,5,1,9,7],"shifted_pitches":[-2,1,3,1,2,-4,-2,9,5,1,9,7],"swapped_pitches":[-2,1,3,1,2,-2,-3,9,5,1,9,7],"shift_direction":-1,"question_num":141,"has_decoy":false},{"rt":9693.699999928474,"stimulus":"[A] option 1, [L] option 2, [G] neither","key_press":65,"name":"choice","trial_type":"html-keyboard-response","trial_index":175,"time_elapsed":352752,"internal_node_id":"0.0-175.0","subject":"S1C1254","sona":"41737","block":6,"time":"2021-09-22T14:30:48.342Z","response":"1st","certainty":"high","char":"A","transposition":3,"order":["swapped","shifted"],"probe_pitches":[9,3,1,8,2,1,-1,2,7,8,7,-1],"shifted_pitches":[9,3,1,8,2,1,0,2,7,8,7,-1],"swapped_pitches":[9,3,1,8,2,-1,1,2,7,8,7,-1],"shift_direction":1,"question_num":151,"has_decoy":false},{"rt":413.7000000476837,"stimulus":"[A] option 1, [L] option 2, [G] neither","key_press":65,"name":"choice","trial_type":"html-keyboard-response","trial_index":186,"time_elapsed":383892,"internal_node_id":"0.0-186.0","subject":"S1C1254","sona":"41737","block":6,"time":"2021-09-22T14:30:48.342Z","response":"1st","certainty":"high","char":"A","transposition":-1,"order":["shifted","swapped"],"probe_pitches":[8,3,5,13,5,1,10,13,10,13,1,8],"shifted_pitches":[8,3,5,13,5,0,10,13,10,13,1,8],"swapped_pitches":[8,3,5,13,5,10,1,13,10,13,1,8],"shift_direction":-1,"question_num":161,"has_decoy":false},{"rt":2488.7000000476837,"stimulus":"[A] option 1, [L] option 2, [G] neither","key_press":76,"name":"choice","trial_type":"html-keyboard-response","trial_index":197,"time_elapsed":405608,"internal_node_id":"0.0-197.0","subject":"S1C1254","sona":"41737","block":6,"time":"2021-09-22T14:30:48.342Z","response":"2nd","certainty":"high","char":"L","transposition":-1,"order":["swapped","shifted"],"probe_pitches":[13,11,6,1,3,6,8,11,8,11,3,8],"shifted_pitches":[13,11,6,1,3,6,7,11,8,11,3,8],"swapped_pitches":[13,11,6,1,3,8,6,11,8,11,3,8],"shift_direction":-1,"question_num":171,"has_decoy":false},{"rt":2503.899999976158,"stimulus":"[A] option 1, [L] option 2, [G] neither","key_press":76,"name":"choice","trial_type":"html-keyboard-response","trial_index":208,"time_elapsed":428513,"internal_node_id":"0.0-208.0","subject":"S1C1254","sona":"41737","block":6,"time":"2021-09-22T14:30:48.342Z","response":"2nd","certainty":"high","char":"L","transposition":-2,"order":["shifted","swapped"],"probe_pitches":[9,11,4,11,6,11,9,13,1,6,13,11],"shifted_pitches":[9,11,4,11,6,10,9,13,1,6,13,11],"swapped_pitches":[9,11,4,11,6,9,11,13,1,6,13,11],"shift_direction":-1,"question_num":181,"has_decoy":false},{"rt":2991.7000000476837,"stimulus":"[A] option 1, [L] option 2, [G] neither","key_press":76,"name":"choice","trial_type":"html-keyboard-response","trial_index":219,"time_elapsed":454380,"internal_node_id":"0.0-219.0","subject":"S1C1254","sona":"41737","block":6,"time":"2021-09-22T14:30:48.342Z","response":"2nd","certainty":"high","char":"L","transposition":-3,"order":["swapped","shifted"],"probe_pitches":[9,7,1,-1,2,4,5,1,-2,-3,4,-1],"shifted_pitches":[9,7,1,-1,2,4,6,1,-2,-3,4,-1],"swapped_pitches":[9,7,1,-1,2,5,4,1,-2,-3,4,-1],"shift_direction":1,"question_num":191,"has_decoy":false}]