[{"rt":8517.5,"stimulus":"[A] option 1, [L] option 2, [G] neither","key_press":65,"name":"choice","trial_type":"html-keyboard-response","trial_index":10,"time_elapsed":30745,"internal_node_id":"0.0-10.0","subject":"S1C1254","sona":"41737","block":2,"time":"2021-09-22T13:59:41.339Z","response":"1st","certainty":"high","char":"A","transposition":-2,"order":["shifted","swapped"],"probe_pitches":[10,5,3,0,3,12,10,0,7,3,10,12],"shifted_pitches":[10,5,3,0,3,11,10,0,7,3,10,12],"swapped_pitches":[10,5,3,0,3,10,12,0,7,3,10,12],"shift_direction":-1,"question_num":1,"has_decoy":false},{"rt":671.8999999761581,"stimulus":"[A] option 1, [L] option 2, [G] neither","key_press":65,"name":"choice","trial_type":"html-keyboard-response","trial_index":21,"time_elapsed":53289,"internal_node_id":"0.0-21.0","subject":"S1C1254","sona":"41737","block":2,"time":"2021-09-22T13:59:41.339Z","response":"1st","certainty":"high","char":"A","transposition":1,"order":["shifted","swapped"],"probe_pitches":[5,8,1,3,4,-2,1,7,8,-1,4,-1],"shifted_pitches":[5,8,1,3,4,-3,1,7,8,-1,4,-1],"swapped_pitches":[5,8,1,3,4,1,-2,7,8,-1,4,-1],"shift_direction":-1,"question_num":11,"has_decoy":false},{"rt":4523.399999976158,"stimulus":"[A] option 1, [L] option 2, [G] neither","key_press":65,"name":"choice","trial_type":"html-keyboard-response","trial_index":32,"time_elapsed":78690,"internal_node_id":"0.0-32.0","subject":"S1C1254","sona":"41737","block":2,"time":"2021-09-22T13:59:41.339Z","response":"1st","certainty":"high","char":"A","transposition":-3,"order":["swapped","shifted"],"probe_pitches":[6,10,5,10,6,-2,2,9,1,-2,4,9],"shifted_pitches":[6,10,5,10,6,-2,3,9,1,-2,4,9],"swapped_pitches":[6,10,5,10,6,2,-2,9,1,-2,4,9],"shift_direction":1,"question_num":21,"has_decoy":false},{"rt":2043.1000000238419,"stimulus":"[A] option 1, [L] option 2, [G] neither","key_press":76,"name":"choice","trial_type":"html-keyboard-response","trial_index":43,"time_elapsed":102660,"internal_node_id":"0.0-43.0","subject":"S1C1254","sona":"41737","block":2,"time":"2021-09-22T13:59:41.339Z","response":"2nd","certainty":"high","char":"L","transposition":-3,"order":["shifted","swapped"],"probe_pitches":[3,2,7,6,3,0,2,9,7,-1,10,6],"shifted_pitches":[3,2,7,6,3,0,1,9,7,-1,10,6],"swapped_pitches":[3,2,7,6,3,2,0,9,7,-1,10,6],"shift_direction":-1,"question_num":31,"has_decoy":false},{"rt":8355,"stimulus":"[A] option 1, [L] option 2, [G] neither","key_press":76,"name":"choice","trial_type":"html-keyboard-response","trial_index":54,"time_elapsed":138912,"internal_node_id":"0.0-54.0","subject":"S1C1254","sona":"41737","block":2,"time":"2021-09-22T13:59:41.339Z","response":"2nd","certainty":"high","char":"L","transposition":1,"order":["shifted","swapped"],"probe_pitches":[10,5,12,10,7,10,0,7,12,3,10,0],"shifted_pitches":[10,5,12,10,7,10,1,7,12,3,10,0],"swapped_pitches":[10,5,12,10,7,0,10,7,12,3,10,0],"shift_direction":1,"question_num":41,"has_decoy":false},{"rt":444.40000009536743,"stimulus":"[A] option 1, [L] option 2, [G] neither","key_press":65,"name":"choice","trial_type":"html-keyboard-response","trial_index":65,"time_elapsed":163973,"internal_node_id":"0.0-65.0","subject":"S1C1254","sona":"41737","block":2,"time":"2021-09-22T13:59:41.339Z","response":"1st","certainty":"high","char":"A","transposition":-1,"order":["shifted","swapped"],"probe_pitches":[-1,0,1,5,9,2,7,3,8,4,2,8],"shifted_pitches":[-1,0,1,5,9,2,6,3,8,4,2,8],"swapped_pitches":[-1,0,1,5,9,7,2,3,8,4,2,8],"shift_direction":-1,"question_num":51,"has_decoy":false},{"rt":590.2000000476837,"stimulus":"[A] option 1, [L] option 2, [G] neither","key_press":65,"name":"choice","trial_type":"html-keyboard-response","trial_index":76,"time_elapsed":188318,"internal_node_id":"0.0-76.0","subject":"S1C1254","sona":"41737","block":2,"time":"2021-09-22T13:59:41.339Z","response":"1st","certainty":"high","char":"A","transposition":0,"order":["shifted","swapped"],"probe_pitches":[0,6,3,2,0,7,6,-2,7,1,3,1],"shifted_pitches":[0,6,3,2,0,7,5,-2,7,1,3,1],"swapped_pitches":[0,6,3,2,0,6,7,-2,7,1,3,1],"shift_direction":-1,"question_num":61,"has_decoy":false},{"rt":6264.700000047684,"stimulus":"[A] option 1, [L] option 2, [G] neither","key_press":65,"name":"choice","trial_type":"html-keyboard-response","trial_index":87,"time_elapsed":213712,"internal_node_id":"0.0-87.0","subject":"S1C1254","sona":"41737","block":2,"time":"2021-09-22T13:59:41.339Z","response":"1st","certainty":"high","char":"A","transposition":3,"order":["swapped","shifted"],"probe_pitches":[12,9,12,4,12,2,0,7,9,4,12,0],"shifted_pitches":[12,9,12,4,12,3,0,7,9,4,12,0],"swapped_pitches":[12,9,12,4,12,0,2,7,9,4,12,0],"shift_direction":1,"question_num":71,"has_decoy":false},{"rt":7437.300000071526,"stimulus":"[A] option 1, [L] option 2, [G] neither","key_press":76,"name":"choice","trial_type":"html-keyboard-response","trial_index":98,"time_elapsed":244075,"internal_node_id":"0.0-98.0","subject":"S1C1254","sona":"41737","block":2,"time":"2021-09-22T13:59:41.339Z","response":"2nd","certainty":"high","char":"L","transposition":-3,"order":["swapped","shifted"],"probe_pitches":[0,2,0,7,12,7,2,10,5,10,12,10],"shifted_pitches":[0,2,0,7,12,7,3,10,5,10,12,10],"swapped_pitches":[0,2,0,7,12,2,7,10,5,10,12,10],"shift_direction":1,"question_num":81,"has_decoy":false},{"rt":4679,"stimulus":"[A] option 1, [L] option 2, [G] neither","key_press":65,"name":"choice","trial_type":"html-keyboard-response","trial_index":109,"time_elapsed":268996,"internal_node_id":"0.0-109.0","subject":"S1C1254","sona":"41737","block":2,"time":"2021-09-22T13:59:41.339Z","response":"1st","certainty":"high","char":"A","transposition":-1,"order":["swapped","shifted"],"probe_pitches":[9,4,0,2,0,7,4,9,4,9,0,2],"shifted_pitches":[9,4,0,2,0,6,4,9,4,9,0,2],"swapped_pitches":[9,4,0,2,0,4,7,9,4,9,0,2],"shift_direction":-1,"question_num":91,"has_decoy":false},{"rt":1717.1999999284744,"stimulus":"[A] option 1, [L] option 2, [G] neither","key_press":76,"name":"choice","trial_type":"html-keyboard-response","trial_index":120,"time_elapsed":294284,"internal_node_id":"0.0-120.0","subject":"S1C1254","sona":"41737","block":2,"time":"2021-09-22T13:59:41.339Z","response":"2nd","certainty":"high","char":"L","transposition":-1,"order":["shifted","swapped"],"probe_pitches":[8,12,8,5,3,8,5,10,12,5,12,10],"shifted_pitches":[8,12,8,5,3,8,4,10,12,5,12,10],"swapped_pitches":[8,12,8,5,3,5,8,10,12,5,12,10],"shift_direction":-1,"question_num":101,"has_decoy":false},{"rt":1275,"stimulus":"[A] option 1, [L] option 2, [G] neither","key_press":76,"name":"choice","trial_type":"html-keyboard-response","trial_index":131,"time_elapsed":316252,"internal_node_id":"0.0-131.0","subject":"S1C1254","sona":"41737","block":2,"time":"2021-09-22T13:59:41.339Z","response":"2nd","certainty":"high","char":"L","transposition":0,"order":["shifted","swapped"],"probe_pitches":[5,7,9,12,7,2,12,5,2,12,7,12],"shifted_pitches":[5,7,9,12,7,3,12,5,2,12,7,12],"swapped_pitches":[5,7,9,12,7,12,2,5,2,12,7,12],"shift_direction":1,"question_num":111,"has_decoy":false},{"rt":1530.2999999523163,"stimulus":"[A] option 1, [L] option 2, [G] neither","key_press":76,"name":"choice","trial_type":"html-keyboard-response","trial_index":142,"time_elapsed":339298,"internal_node_id":"0.0-142.0","subject":"S1C1254","sona":"41737","block":2,"time":"2021-09-22T13:59:41.339Z","response":"2nd","certainty":"high","char":"L","transposition":-2,"order":["swapped","shifted"],"probe_pitches":[12,8,12,8,5,0,8,12,0,8,10,3],"shifted_pitches":[12,8,12,8,5,0,7,12,0,8,10,3],"swapped_pitches":[12,8,12,8,5,8,0,12,0,8,10,3],"shift_direction":-1,"question_num":121,"has_decoy":false},{"rt":855.7999999523163,"stimulus":"[A] option 1, [L] option 2, [G] neither","key_press":76,"name":"choice","trial_type":"html-keyboard-response","trial_index":153,"time_elapsed":358382,"internal_node_id":"0.0-153.0","subject":"S1C1254","sona":"41737","block":2,"time":"2021-09-22T13:59:41.339Z","response":"2nd","certainty":"high","char":"L","transposition":2,"order":["swapped","shifted"],"probe_pitches":[4,-1,2,-1,5,8,9,10,5,10,2,3],"shifted_pitches":[4,-1,2,-1,5,7,9,10,5,10,2,3],"swapped_pitches":[4,-1,2,-1,5,9,8,10,5,10,2,3],"shift_direction":-1,"question_num":131,"has_decoy":false},{"rt":1620.3999999761581,"stimulus":"[A] option 1, [L] option 2, [G] neither","key_press":76,"name":"choice","trial_type":"html-keyboard-response","trial_index":164,"time_elapsed":380188,"internal_node_id":"0.0-164.0","subject":"S1C1254","sona":"41737","block":2,"time":"2021-09-22T13:59:41.339Z","response":"2nd","certainty":"high","char":"L","transposition":-3,"order":["shifted","swapped"],"probe_pitches":[7,12,10,7,5,7,10,0,10,12,5,2],"shifted_pitches":[7,12,10,7,5,7,11,0,10,12,5,2],"swapped_pitches":[7,12,10,7,5,10,7,0,10,12,5,2],"shift_direction":1,"question_num":141,"has_decoy":false},{"rt":2588.600000023842,"stimulus":"[A] option 1, [L] option 2, [G] neither","key_press":76,"name":"choice","trial_type":"html-keyboard-response","trial_index":175,"time_elapsed":402156,"internal_node_id":"0.0-175.0","subject":"S1C1254","sona":"41737","block":2,"time":"2021-09-22T13:59:41.339Z","response":"2nd","certainty":"high","char":"L","transposition":2,"order":["swapped","shifted"],"probe_pitches":[7,5,9,12,9,2,7,9,5,7,0,5],"shifted_pitches":[7,5,9,12,9,1,7,9,5,7,0,5],"swapped_pitches":[7,5,9,12,9,7,2,9,5,7,0,5],"shift_direction":-1,"question_num":151,"has_decoy":false},{"rt":1206.1000000238419,"stimulus":"[A] option 1, [L] option 2, [G] neither","key_press":65,"name":"choice","trial_type":"html-keyboard-response","trial_index":186,"time_elapsed":424654,"internal_node_id":"0.0-186.0","subject":"S1C1254","sona":"41737","block":2,"time":"2021-09-22T13:59:41.339Z","response":"1st","certainty":"high","char":"A","transposition":-1,"order":["swapped","shifted"],"probe_pitches":[6,2,6,10,8,3,5,1,6,-2,7,10],"shifted_pitches":[6,2,6,10,8,4,5,1,6,-2,7,10],"swapped_pitches":[6,2,6,10,8,5,3,1,6,-2,7,10],"shift_direction":1,"question_num":161,"has_decoy":false},{"rt":2441.100000023842,"stimulus":"[A] option 1, [L] option 2, [G] neither","key_press":76,"name":"choice","trial_type":"html-keyboard-response","trial_index":197,"time_elapsed":445688,"internal_node_id":"0.0-197.0","subject":"S1C1254","sona":"41737","block":2,"time":"2021-09-22T13:59:41.339Z","response":"2nd","certainty":"high","char":"L","transposition":-2,"order":["shifted","swapped"],"probe_pitches":[9,4,-2,4,8,-1,1,7,10,6,-1,4],"shifted_pitches":[9,4,-2,4,8,0,1,7,10,6,-1,4],"swapped_pitches":[9,4,-2,4,8,1,-1,7,10,6,-1,4],"shift_direction":1,"question_num":171,"has_decoy":false},{"rt":797.6999999284744,"stimulus":"[A] option 1, [L] option 2, [G] neither","key_press":65,"name":"choice","trial_type":"html-keyboard-response","trial_index":208,"time_elapsed":469846,"internal_node_id":"0.0-208.0","subject":"S1C1254","sona":"41737","block":2,"time":"2021-09-22T13:59:41.339Z","response":"1st","certainty":"high","char":"A","transposition":3,"order":["swapped","shifted"],"probe_pitches":[3,5,7,6,0,2,7,-1,5,0,7,3],"shifted_pitches":[3,5,7,6,0,2,8,-1,5,0,7,3],"swapped_pitches":[3,5,7,6,0,7,2,-1,5,0,7,3],"shift_direction":1,"question_num":181,"has_decoy":false},{"rt":1780.1000000238419,"stimulus":"[A] option 1, [L] option 2, [G] neither","key_press":76,"name":"choice","trial_type":"html-keyboard-response","trial_index":219,"time_elapsed":492158,"internal_node_id":"0.0-219.0","subject":"S1C1254","sona":"41737","block":2,"time":"2021-09-22T13:59:41.339Z","response":"2nd","certainty":"high","char":"L","transposition":-2,"order":["swapped","shifted"],"probe_pitches":[10,5,-2,5,4,1,0,10,5,8,-2,6],"shifted_pitches":[10,5,-2,5,4,2,0,10,5,8,-2,6],"swapped_pitches":[10,5,-2,5,4,0,1,10,5,8,-2,6],"shift_direction":1,"question_num":191,"has_decoy":false}]