[{"rt":1569.5999999642372,"stimulus":"[A] option 1, [L] option 2, [G] neither","key_press":65,"name":"choice","trial_type":"html-keyboard-response","trial_index":10,"time_elapsed":30020,"internal_node_id":"0.0-10.0","subject":"S1C1604","sona":"41424","block":3,"time":"2021-09-05T23:03:02.316Z","response":"1st","certainty":"high","char":"A","transposition":-3,"order":["shifted","swapped"],"probe_pitches":[-2,3,4,-2,-1,4,-3,0,7,9,5,8,2,7,-3,6],"shifted_pitches":[-2,3,4,-2,-1,4,-3,1,7,9,5,8,2,7,-3,6],"swapped_pitches":[-2,3,4,-2,-1,4,-3,7,0,9,5,8,2,7,-3,6],"shift_direction":1,"question_num":1,"has_decoy":false},{"rt":18734.19999998808,"stimulus":"[A] option 1, [L] option 2, [G] neither","key_press":65,"name":"choice","trial_type":"html-keyboard-response","trial_index":21,"time_elapsed":73895,"internal_node_id":"0.0-21.0","subject":"S1C1604","sona":"41424","block":3,"time":"2021-09-05T23:03:02.316Z","response":"1st","certainty":"high","char":"A","transposition":3,"order":["swapped","shifted"],"probe_pitches":[0,4,9,2,9,4,2,9,-3,2,-3,9,0,7,9,7],"shifted_pitches":[0,4,9,2,9,4,2,9,-2,2,-3,9,0,7,9,7],"swapped_pitches":[0,4,9,2,9,4,2,-3,9,2,-3,9,0,7,9,7],"shift_direction":1,"question_num":11,"has_decoy":false},{"rt":10198.300000011921,"stimulus":"[A] option 1, [L] option 2, [G] neither","key_press":76,"name":"choice","trial_type":"html-keyboard-response","trial_index":32,"time_elapsed":106816,"internal_node_id":"0.0-32.0","subject":"S1C1604","sona":"41424","block":3,"time":"2021-09-05T23:03:02.316Z","response":"2nd","certainty":"high","char":"L","transposition":1,"order":["swapped","shifted"],"probe_pitches":[9,6,9,2,6,-3,6,9,4,2,-3,-1,2,6,4,-1],"shifted_pitches":[9,6,9,2,6,-3,6,9,5,2,-3,-1,2,6,4,-1],"swapped_pitches":[9,6,9,2,6,-3,6,4,9,2,-3,-1,2,6,4,-1],"shift_direction":1,"question_num":21,"has_decoy":false},{"rt":18650.80000001192,"stimulus":"[A] option 1, [L] option 2, [G] neither","key_press":65,"name":"choice","trial_type":"html-keyboard-response","trial_index":43,"time_elapsed":148330,"internal_node_id":"0.0-43.0","subject":"S1C1604","sona":"41424","block":3,"time":"2021-09-05T23:03:02.316Z","response":"1st","certainty":"high","char":"A","transposition":0,"order":["swapped","shifted"],"probe_pitches":[0,-2,0,-2,2,4,3,7,6,9,-3,9,6,-2,-3,3],"shifted_pitches":[0,-2,0,-2,2,4,3,7,5,9,-3,9,6,-2,-3,3],"swapped_pitches":[0,-2,0,-2,2,4,3,6,7,9,-3,9,6,-2,-3,3],"shift_direction":-1,"question_num":31,"has_decoy":false},{"rt":969.1999999880791,"stimulus":"[A] option 1, [L] option 2, [G] neither","key_press":76,"name":"choice","trial_type":"html-keyboard-response","trial_index":54,"time_elapsed":172251,"internal_node_id":"0.0-54.0","subject":"S1C1604","sona":"41424","block":3,"time":"2021-09-05T23:03:02.316Z","response":"2nd","certainty":"high","char":"L","transposition":1,"order":["swapped","shifted"],"probe_pitches":[-1,-3,-1,0,8,4,9,3,7,8,3,6,-1,9,8,-3],"shifted_pitches":[-1,-3,-1,0,8,4,9,2,7,8,3,6,-1,9,8,-3],"swapped_pitches":[-1,-3,-1,0,8,4,9,7,3,8,3,6,-1,9,8,-3],"shift_direction":-1,"question_num":41,"has_decoy":false},{"rt":3568.099999964237,"stimulus":"[A] option 1, [L] option 2, [G] neither","key_press":76,"name":"choice","trial_type":"html-keyboard-response","trial_index":65,"time_elapsed":200534,"internal_node_id":"0.0-65.0","subject":"S1C1604","sona":"41424","block":3,"time":"2021-09-05T23:03:02.316Z","response":"2nd","certainty":"high","char":"L","transposition":-2,"order":["shifted","swapped"],"probe_pitches":[2,-1,4,2,4,7,9,4,-1,-3,-1,-3,9,-1,4,9],"shifted_pitches":[2,-1,4,2,4,7,9,3,-1,-3,-1,-3,9,-1,4,9],"swapped_pitches":[2,-1,4,2,4,7,9,-1,4,-3,-1,-3,9,-1,4,9],"shift_direction":-1,"question_num":51,"has_decoy":false},{"rt":339.39999997615814,"stimulus":"[A] option 1, [L] option 2, [G] neither","key_press":76,"name":"choice","trial_type":"html-keyboard-response","trial_index":76,"time_elapsed":223815,"internal_node_id":"0.0-76.0","subject":"S1C1604","sona":"41424","block":3,"time":"2021-09-05T23:03:02.316Z","response":"2nd","certainty":"high","char":"L","transposition":-1,"order":["swapped","shifted"],"probe_pitches":[-1,4,6,-1,6,-1,-3,-1,9,6,-3,6,4,6,9,1],"shifted_pitches":[-1,4,6,-1,6,-1,-3,-1,10,6,-3,6,4,6,9,1],"swapped_pitches":[-1,4,6,-1,6,-1,-3,9,-1,6,-3,6,4,6,9,1],"shift_direction":1,"question_num":61,"has_decoy":false},{"rt":2290.599999964237,"stimulus":"[A] option 1, [L] option 2, [G] neither","key_press":65,"name":"choice","trial_type":"html-keyboard-response","trial_index":87,"time_elapsed":252391,"internal_node_id":"0.0-87.0","subject":"S1C1604","sona":"41424","block":3,"time":"2021-09-05T23:03:02.316Z","response":"1st","certainty":"high","char":"A","transposition":-2,"order":["shifted","swapped"],"probe_pitches":[9,7,2,-3,2,9,4,9,2,-3,4,7,9,2,7,-1],"shifted_pitches":[9,7,2,-3,2,9,4,9,1,-3,4,7,9,2,7,-1],"swapped_pitches":[9,7,2,-3,2,9,4,2,9,-3,4,7,9,2,7,-1],"shift_direction":-1,"question_num":71,"has_decoy":false},{"rt":5564.300000011921,"stimulus":"[A] option 1, [L] option 2, [G] neither","key_press":65,"name":"choice","trial_type":"html-keyboard-response","trial_index":98,"time_elapsed":280606,"internal_node_id":"0.0-98.0","subject":"S1C1604","sona":"41424","block":3,"time":"2021-09-05T23:03:02.316Z","response":"1st","certainty":"high","char":"A","transposition":3,"order":["swapped","shifted"],"probe_pitches":[6,2,6,7,8,5,1,6,3,-2,0,-1,9,3,0,8],"shifted_pitches":[6,2,6,7,8,5,1,6,4,-2,0,-1,9,3,0,8],"swapped_pitches":[6,2,6,7,8,5,1,3,6,-2,0,-1,9,3,0,8],"shift_direction":1,"question_num":81,"has_decoy":false},{"rt":1090.1000000238419,"stimulus":"[A] option 1, [L] option 2, [G] neither","key_press":76,"name":"choice","trial_type":"html-keyboard-response","trial_index":109,"time_elapsed":304772,"internal_node_id":"0.0-109.0","subject":"S1C1604","sona":"41424","block":3,"time":"2021-09-05T23:03:02.316Z","response":"2nd","certainty":"high","char":"L","transposition":-3,"order":["shifted","swapped"],"probe_pitches":[-2,-1,-2,2,3,5,-3,-2,1,9,-2,1,7,5,4,5],"shifted_pitches":[-2,-1,-2,2,3,5,-3,-2,0,9,-2,1,7,5,4,5],"swapped_pitches":[-2,-1,-2,2,3,5,-3,1,-2,9,-2,1,7,5,4,5],"shift_direction":-1,"question_num":91,"has_decoy":false},{"rt":2178.099999964237,"stimulus":"[A] option 1, [L] option 2, [G] neither","key_press":65,"name":"choice","trial_type":"html-keyboard-response","trial_index":120,"time_elapsed":336931,"internal_node_id":"0.0-120.0","subject":"S1C1604","sona":"41424","block":3,"time":"2021-09-05T23:03:02.316Z","response":"1st","certainty":"high","char":"A","transposition":-1,"order":["swapped","shifted"],"probe_pitches":[4,1,4,-1,-3,6,9,-3,6,9,4,6,1,6,4,9],"shifted_pitches":[4,1,4,-1,-3,6,9,-4,6,9,4,6,1,6,4,9],"swapped_pitches":[4,1,4,-1,-3,6,9,6,-3,9,4,6,1,6,4,9],"shift_direction":-1,"question_num":101,"has_decoy":false},{"rt":2303.599999964237,"stimulus":"[A] option 1, [L] option 2, [G] neither","key_press":76,"name":"choice","trial_type":"html-keyboard-response","trial_index":131,"time_elapsed":361964,"internal_node_id":"0.0-131.0","subject":"S1C1604","sona":"41424","block":3,"time":"2021-09-05T23:03:02.316Z","response":"2nd","certainty":"high","char":"L","transposition":-3,"order":["shifted","swapped"],"probe_pitches":[7,5,9,5,-3,7,5,0,9,-3,0,2,9,7,0,2],"shifted_pitches":[7,5,9,5,-3,7,5,1,9,-3,0,2,9,7,0,2],"swapped_pitches":[7,5,9,5,-3,7,5,9,0,-3,0,2,9,7,0,2],"shift_direction":1,"question_num":111,"has_decoy":false},{"rt":1813.9000000357628,"stimulus":"[A] option 1, [L] option 2, [G] neither","key_press":65,"name":"choice","trial_type":"html-keyboard-response","trial_index":142,"time_elapsed":387002,"internal_node_id":"0.0-142.0","subject":"S1C1604","sona":"41424","block":3,"time":"2021-09-05T23:03:02.316Z","response":"1st","certainty":"high","char":"A","transposition":-3,"order":["shifted","swapped"],"probe_pitches":[-3,0,7,9,7,2,-3,2,9,0,5,7,-3,0,5,7],"shifted_pitches":[-3,0,7,9,7,2,-3,3,9,0,5,7,-3,0,5,7],"swapped_pitches":[-3,0,7,9,7,2,-3,9,2,0,5,7,-3,0,5,7],"shift_direction":1,"question_num":121,"has_decoy":false},{"rt":4817.699999988079,"stimulus":"[A] option 1, [L] option 2, [G] neither","key_press":65,"name":"choice","trial_type":"html-keyboard-response","trial_index":153,"time_elapsed":414727,"internal_node_id":"0.0-153.0","subject":"S1C1604","sona":"41424","block":3,"time":"2021-09-05T23:03:02.316Z","response":"1st","certainty":"high","char":"A","transposition":-1,"order":["shifted","swapped"],"probe_pitches":[-2,-1,-3,5,2,-2,3,5,8,0,3,5,8,-2,7,0],"shifted_pitches":[-2,-1,-3,5,2,-2,3,6,8,0,3,5,8,-2,7,0],"swapped_pitches":[-2,-1,-3,5,2,-2,3,8,5,0,3,5,8,-2,7,0],"shift_direction":1,"question_num":131,"has_decoy":false},{"rt":8287,"stimulus":"[A] option 1, [L] option 2, [G] neither","key_press":65,"name":"choice","trial_type":"html-keyboard-response","trial_index":164,"time_elapsed":445872,"internal_node_id":"0.0-164.0","subject":"S1C1604","sona":"41424","block":3,"time":"2021-09-05T23:03:02.316Z","response":"1st","certainty":"high","char":"A","transposition":-1,"order":["swapped","shifted"],"probe_pitches":[5,9,5,9,4,-3,2,0,8,9,-2,1,4,6,0,-1],"shifted_pitches":[5,9,5,9,4,-3,2,0,7,9,-2,1,4,6,0,-1],"swapped_pitches":[5,9,5,9,4,-3,2,8,0,9,-2,1,4,6,0,-1],"shift_direction":-1,"question_num":141,"has_decoy":false},{"rt":2226.5,"stimulus":"[A] option 1, [L] option 2, [G] neither","key_press":65,"name":"choice","trial_type":"html-keyboard-response","trial_index":175,"time_elapsed":470559,"internal_node_id":"0.0-175.0","subject":"S1C1604","sona":"41424","block":3,"time":"2021-09-05T23:03:02.316Z","response":"1st","certainty":"high","char":"A","transposition":2,"order":["shifted","swapped"],"probe_pitches":[3,-2,-1,-2,2,-3,7,-1,9,2,-3,2,4,-2,4,2],"shifted_pitches":[3,-2,-1,-2,2,-3,7,-1,8,2,-3,2,4,-2,4,2],"swapped_pitches":[3,-2,-1,-2,2,-3,7,9,-1,2,-3,2,4,-2,4,2],"shift_direction":-1,"question_num":151,"has_decoy":false},{"rt":2324.100000023842,"stimulus":"[A] option 1, [L] option 2, [G] neither","key_press":65,"name":"choice","trial_type":"html-keyboard-response","trial_index":186,"time_elapsed":495557,"internal_node_id":"0.0-186.0","subject":"S1C1604","sona":"41424","block":3,"time":"2021-09-05T23:03:02.316Z","response":"1st","certainty":"high","char":"A","transposition":2,"order":["shifted","swapped"],"probe_pitches":[4,7,0,7,2,7,4,7,9,0,2,0,9,0,9,0],"shifted_pitches":[4,7,0,7,2,7,4,6,9,0,2,0,9,0,9,0],"swapped_pitches":[4,7,0,7,2,7,4,9,7,0,2,0,9,0,9,0],"shift_direction":-1,"question_num":161,"has_decoy":false},{"rt":917.7000000476837,"stimulus":"[A] option 1, [L] option 2, [G] neither","key_press":76,"name":"choice","trial_type":"html-keyboard-response","trial_index":197,"time_elapsed":519453,"internal_node_id":"0.0-197.0","subject":"S1C1604","sona":"41424","block":3,"time":"2021-09-05T23:03:02.316Z","response":"2nd","certainty":"high","char":"L","transposition":-2,"order":["swapped","shifted"],"probe_pitches":[-3,-2,5,-3,1,-1,6,2,1,9,-1,4,9,-2,0,7],"shifted_pitches":[-3,-2,5,-3,1,-1,6,3,1,9,-1,4,9,-2,0,7],"swapped_pitches":[-3,-2,5,-3,1,-1,6,1,2,9,-1,4,9,-2,0,7],"shift_direction":1,"question_num":171,"has_decoy":false},{"rt":1526.699999988079,"stimulus":"[A] option 1, [L] option 2, [G] neither","key_press":76,"name":"choice","trial_type":"html-keyboard-response","trial_index":208,"time_elapsed":544458,"internal_node_id":"0.0-208.0","subject":"S1C1604","sona":"41424","block":3,"time":"2021-09-05T23:03:02.316Z","response":"2nd","certainty":"high","char":"L","transposition":0,"order":["swapped","shifted"],"probe_pitches":[-1,-3,-1,6,-1,2,9,2,6,-1,-3,6,-1,4,-1,2],"shifted_pitches":[-1,-3,-1,6,-1,2,9,2,5,-1,-3,6,-1,4,-1,2],"swapped_pitches":[-1,-3,-1,6,-1,2,9,6,2,-1,-3,6,-1,4,-1,2],"shift_direction":-1,"question_num":181,"has_decoy":false},{"rt":10021.5,"stimulus":"[A] option 1, [L] option 2, [G] neither","key_press":65,"name":"choice","trial_type":"html-keyboard-response","trial_index":219,"time_elapsed":577140,"internal_node_id":"0.0-219.0","subject":"S1C1604","sona":"41424","block":3,"time":"2021-09-05T23:03:02.316Z","response":"1st","certainty":"high","char":"A","transposition":-2,"order":["shifted","swapped"],"probe_pitches":[9,3,9,2,9,3,2,-2,7,-3,0,1,2,1,2,0],"shifted_pitches":[9,3,9,2,9,3,2,-1,7,-3,0,1,2,1,2,0],"swapped_pitches":[9,3,9,2,9,3,2,7,-2,-3,0,1,2,1,2,0],"shift_direction":1,"question_num":191,"has_decoy":false}]