[{"rt":729.1999999880791,"stimulus":"[A] option 1, [L] option 2, [G] neither","key_press":76,"name":"choice","trial_type":"html-keyboard-response","trial_index":10,"time_elapsed":26213,"internal_node_id":"0.0-10.0","subject":"S1C1604","sona":"41424","block":6,"time":"2021-09-05T23:28:15.969Z","response":"2nd","certainty":"high","char":"L","transposition":-1,"order":["swapped","shifted"],"probe_pitches":[2,7,2,5,7,14,7,9,12,7,12,7,9,12,2,12],"shifted_pitches":[2,7,2,5,7,14,7,10,12,7,12,7,9,12,2,12],"swapped_pitches":[2,7,2,5,7,14,7,12,9,7,12,7,9,12,2,12],"shift_direction":1,"question_num":1,"has_decoy":false},{"rt":354.10000002384186,"stimulus":"[A] option 1, [L] option 2, [G] neither","key_press":76,"name":"choice","trial_type":"html-keyboard-response","trial_index":21,"time_elapsed":50142,"internal_node_id":"0.0-21.0","subject":"S1C1604","sona":"41424","block":6,"time":"2021-09-05T23:28:15.969Z","response":"2nd","certainty":"high","char":"L","transposition":-3,"order":["swapped","shifted"],"probe_pitches":[14,12,10,12,7,10,12,10,5,12,5,14,10,14,5,10],"shifted_pitches":[14,12,10,12,7,10,12,11,5,12,5,14,10,14,5,10],"swapped_pitches":[14,12,10,12,7,10,12,5,10,12,5,14,10,14,5,10],"shift_direction":1,"question_num":11,"has_decoy":false},{"rt":2502.399999976158,"stimulus":"[A] option 1, [L] option 2, [G] neither","key_press":65,"name":"choice","trial_type":"html-keyboard-response","trial_index":32,"time_elapsed":75804,"internal_node_id":"0.0-32.0","subject":"S1C1604","sona":"41424","block":6,"time":"2021-09-05T23:28:15.969Z","response":"1st","certainty":"high","char":"A","transposition":-3,"order":["swapped","shifted"],"probe_pitches":[1,5,0,1,-1,8,5,8,9,6,3,4,8,-1,9,1],"shifted_pitches":[1,5,0,1,-1,8,5,7,9,6,3,4,8,-1,9,1],"swapped_pitches":[1,5,0,1,-1,8,5,9,8,6,3,4,8,-1,9,1],"shift_direction":-1,"question_num":21,"has_decoy":false},{"rt":956.3000000119209,"stimulus":"[A] option 1, [L] option 2, [G] neither","key_press":65,"name":"choice","trial_type":"html-keyboard-response","trial_index":43,"time_elapsed":100262,"internal_node_id":"0.0-43.0","subject":"S1C1604","sona":"41424","block":6,"time":"2021-09-05T23:28:15.969Z","response":"1st","certainty":"high","char":"A","transposition":3,"order":["shifted","swapped"],"probe_pitches":[14,9,4,9,2,9,4,7,9,4,7,9,14,2,11,14],"shifted_pitches":[14,9,4,9,2,9,4,7,10,4,7,9,14,2,11,14],"swapped_pitches":[14,9,4,9,2,9,4,9,7,4,7,9,14,2,11,14],"shift_direction":1,"question_num":31,"has_decoy":false},{"rt":460.30000001192093,"stimulus":"[A] option 1, [L] option 2, [G] neither","key_press":65,"name":"choice","trial_type":"html-keyboard-response","trial_index":54,"time_elapsed":123704,"internal_node_id":"0.0-54.0","subject":"S1C1604","sona":"41424","block":6,"time":"2021-09-05T23:28:15.969Z","response":"1st","certainty":"high","char":"A","transposition":-3,"order":["shifted","swapped"],"probe_pitches":[2,4,-1,4,6,7,4,7,3,-2,2,3,9,10,2,9],"shifted_pitches":[2,4,-1,4,6,7,4,8,3,-2,2,3,9,10,2,9],"swapped_pitches":[2,4,-1,4,6,7,4,3,7,-2,2,3,9,10,2,9],"shift_direction":1,"question_num":41,"has_decoy":false},{"rt":315.5999999642372,"stimulus":"[A] option 1, [L] option 2, [G] neither","key_press":76,"name":"choice","trial_type":"html-keyboard-response","trial_index":65,"time_elapsed":147270,"internal_node_id":"0.0-65.0","subject":"S1C1604","sona":"41424","block":6,"time":"2021-09-05T23:28:15.969Z","response":"2nd","certainty":"high","char":"L","transposition":-1,"order":["shifted","swapped"],"probe_pitches":[12,7,2,7,12,9,2,14,7,12,7,5,14,2,5,12],"shifted_pitches":[12,7,2,7,12,9,2,14,8,12,7,5,14,2,5,12],"swapped_pitches":[12,7,2,7,12,9,2,7,14,12,7,5,14,2,5,12],"shift_direction":1,"question_num":51,"has_decoy":false},{"rt":2107.199999988079,"stimulus":"[A] option 1, [L] option 2, [G] neither","key_press":65,"name":"choice","trial_type":"html-keyboard-response","trial_index":76,"time_elapsed":172802,"internal_node_id":"0.0-76.0","subject":"S1C1604","sona":"41424","block":6,"time":"2021-09-05T23:28:15.969Z","response":"1st","certainty":"high","char":"A","transposition":-3,"order":["shifted","swapped"],"probe_pitches":[2,4,11,6,2,6,2,9,14,11,14,6,9,14,4,6],"shifted_pitches":[2,4,11,6,2,6,2,9,13,11,14,6,9,14,4,6],"swapped_pitches":[2,4,11,6,2,6,2,14,9,11,14,6,9,14,4,6],"shift_direction":-1,"question_num":61,"has_decoy":false},{"rt":401.10000002384186,"stimulus":"[A] option 1, [L] option 2, [G] neither","key_press":76,"name":"choice","trial_type":"html-keyboard-response","trial_index":87,"time_elapsed":196224,"internal_node_id":"0.0-87.0","subject":"S1C1604","sona":"41424","block":6,"time":"2021-09-05T23:28:15.969Z","response":"2nd","certainty":"high","char":"L","transposition":0,"order":["swapped","shifted"],"probe_pitches":[2,7,2,4,11,14,4,7,9,11,7,4,2,4,14,11],"shifted_pitches":[2,7,2,4,11,14,4,6,9,11,7,4,2,4,14,11],"swapped_pitches":[2,7,2,4,11,14,4,9,7,11,7,4,2,4,14,11],"shift_direction":-1,"question_num":71,"has_decoy":false},{"rt":1450.5,"stimulus":"[A] option 1, [L] option 2, [G] neither","key_press":76,"name":"choice","trial_type":"html-keyboard-response","trial_index":98,"time_elapsed":221989,"internal_node_id":"0.0-98.0","subject":"S1C1604","sona":"41424","block":6,"time":"2021-09-05T23:28:15.969Z","response":"2nd","certainty":"high","char":"L","transposition":1,"order":["swapped","shifted"],"probe_pitches":[2,4,-1,2,3,5,6,10,-2,8,6,5,-2,7,4,0],"shifted_pitches":[2,4,-1,2,3,5,6,9,-2,8,6,5,-2,7,4,0],"swapped_pitches":[2,4,-1,2,3,5,6,-2,10,8,6,5,-2,7,4,0],"shift_direction":-1,"question_num":81,"has_decoy":false},{"rt":349.9000000357628,"stimulus":"[A] option 1, [L] option 2, [G] neither","key_press":65,"name":"choice","trial_type":"html-keyboard-response","trial_index":109,"time_elapsed":245854,"internal_node_id":"0.0-109.0","subject":"S1C1604","sona":"41424","block":6,"time":"2021-09-05T23:28:15.969Z","response":"1st","certainty":"high","char":"A","transposition":1,"order":["shifted","swapped"],"probe_pitches":[9,4,9,12,4,7,2,4,14,2,12,4,7,9,12,9],"shifted_pitches":[9,4,9,12,4,7,2,3,14,2,12,4,7,9,12,9],"swapped_pitches":[9,4,9,12,4,7,2,14,4,2,12,4,7,9,12,9],"shift_direction":-1,"question_num":91,"has_decoy":false},{"rt":416.5999999642372,"stimulus":"[A] option 1, [L] option 2, [G] neither","key_press":76,"name":"choice","trial_type":"html-keyboard-response","trial_index":120,"time_elapsed":268738,"internal_node_id":"0.0-120.0","subject":"S1C1604","sona":"41424","block":6,"time":"2021-09-05T23:28:15.969Z","response":"2nd","certainty":"high","char":"L","transposition":-2,"order":["swapped","shifted"],"probe_pitches":[2,6,11,14,9,6,14,9,4,11,14,2,11,4,6,4],"shifted_pitches":[2,6,11,14,9,6,14,8,4,11,14,2,11,4,6,4],"swapped_pitches":[2,6,11,14,9,6,14,4,9,11,14,2,11,4,6,4],"shift_direction":-1,"question_num":101,"has_decoy":false},{"rt":1475,"stimulus":"[A] option 1, [L] option 2, [G] neither","key_press":65,"name":"choice","trial_type":"html-keyboard-response","trial_index":131,"time_elapsed":292724,"internal_node_id":"0.0-131.0","subject":"S1C1604","sona":"41424","block":6,"time":"2021-09-05T23:28:15.969Z","response":"1st","certainty":"high","char":"A","transposition":2,"order":["shifted","swapped"],"probe_pitches":[8,10,3,-1,-2,6,9,4,-1,1,8,10,2,6,-1,1],"shifted_pitches":[8,10,3,-1,-2,6,9,4,0,1,8,10,2,6,-1,1],"swapped_pitches":[8,10,3,-1,-2,6,9,-1,4,1,8,10,2,6,-1,1],"shift_direction":1,"question_num":111,"has_decoy":false},{"rt":727.6999999880791,"stimulus":"[A] option 1, [L] option 2, [G] neither","key_press":76,"name":"choice","trial_type":"html-keyboard-response","trial_index":142,"time_elapsed":316262,"internal_node_id":"0.0-142.0","subject":"S1C1604","sona":"41424","block":6,"time":"2021-09-05T23:28:15.969Z","response":"2nd","certainty":"high","char":"L","transposition":-2,"order":["shifted","swapped"],"probe_pitches":[2,-2,0,2,-2,-1,4,2,7,3,2,6,4,10,8,3],"shifted_pitches":[2,-2,0,2,-2,-1,4,1,7,3,2,6,4,10,8,3],"swapped_pitches":[2,-2,0,2,-2,-1,4,7,2,3,2,6,4,10,8,3],"shift_direction":-1,"question_num":121,"has_decoy":false},{"rt":2136.600000023842,"stimulus":"[A] option 1, [L] option 2, [G] neither","key_press":76,"name":"choice","trial_type":"html-keyboard-response","trial_index":153,"time_elapsed":341116,"internal_node_id":"0.0-153.0","subject":"S1C1604","sona":"41424","block":6,"time":"2021-09-05T23:28:15.969Z","response":"2nd","certainty":"high","char":"L","transposition":-1,"order":["swapped","shifted"],"probe_pitches":[9,8,3,6,-2,8,-1,7,4,-1,4,8,3,9,7,4],"shifted_pitches":[9,8,3,6,-2,8,-1,7,5,-1,4,8,3,9,7,4],"swapped_pitches":[9,8,3,6,-2,8,-1,4,7,-1,4,8,3,9,7,4],"shift_direction":1,"question_num":131,"has_decoy":false},{"rt":1978.1000000238419,"stimulus":"[A] option 1, [L] option 2, [G] neither","key_press":65,"name":"choice","trial_type":"html-keyboard-response","trial_index":164,"time_elapsed":366514,"internal_node_id":"0.0-164.0","subject":"S1C1604","sona":"41424","block":6,"time":"2021-09-05T23:28:15.969Z","response":"1st","certainty":"high","char":"A","transposition":3,"order":["shifted","swapped"],"probe_pitches":[4,-1,-2,3,1,8,0,3,-1,0,-2,0,9,8,1,-2],"shifted_pitches":[4,-1,-2,3,1,8,0,2,-1,0,-2,0,9,8,1,-2],"swapped_pitches":[4,-1,-2,3,1,8,0,-1,3,0,-2,0,9,8,1,-2],"shift_direction":-1,"question_num":141,"has_decoy":false},{"rt":287.5999999642372,"stimulus":"[A] option 1, [L] option 2, [G] neither","key_press":76,"name":"choice","trial_type":"html-keyboard-response","trial_index":175,"time_elapsed":389412,"internal_node_id":"0.0-175.0","subject":"S1C1604","sona":"41424","block":6,"time":"2021-09-05T23:28:15.969Z","response":"2nd","certainty":"high","char":"L","transposition":-2,"order":["swapped","shifted"],"probe_pitches":[-2,0,-2,0,1,5,-1,4,2,10,1,8,6,5,6,2],"shifted_pitches":[-2,0,-2,0,1,5,-1,4,3,10,1,8,6,5,6,2],"swapped_pitches":[-2,0,-2,0,1,5,-1,2,4,10,1,8,6,5,6,2],"shift_direction":1,"question_num":151,"has_decoy":false},{"rt":1769.699999988079,"stimulus":"[A] option 1, [L] option 2, [G] neither","key_press":65,"name":"choice","trial_type":"html-keyboard-response","trial_index":186,"time_elapsed":414802,"internal_node_id":"0.0-186.0","subject":"S1C1604","sona":"41424","block":6,"time":"2021-09-05T23:28:15.969Z","response":"1st","certainty":"high","char":"A","transposition":-2,"order":["shifted","swapped"],"probe_pitches":[7,2,7,5,7,14,12,5,7,10,2,12,10,7,5,7],"shifted_pitches":[7,2,7,5,7,14,12,5,8,10,2,12,10,7,5,7],"swapped_pitches":[7,2,7,5,7,14,12,7,5,10,2,12,10,7,5,7],"shift_direction":1,"question_num":161,"has_decoy":false},{"rt":2653.400000035763,"stimulus":"[A] option 1, [L] option 2, [G] neither","key_press":65,"name":"choice","trial_type":"html-keyboard-response","trial_index":197,"time_elapsed":441539,"internal_node_id":"0.0-197.0","subject":"S1C1604","sona":"41424","block":6,"time":"2021-09-05T23:28:15.969Z","response":"1st","certainty":"high","char":"A","transposition":2,"order":["swapped","shifted"],"probe_pitches":[4,9,12,9,2,9,2,9,7,14,9,12,7,4,9,14],"shifted_pitches":[4,9,12,9,2,9,2,9,6,14,9,12,7,4,9,14],"swapped_pitches":[4,9,12,9,2,9,2,7,9,14,9,12,7,4,9,14],"shift_direction":-1,"question_num":171,"has_decoy":false},{"rt":1782.800000011921,"stimulus":"[A] option 1, [L] option 2, [G] neither","key_press":76,"name":"choice","trial_type":"html-keyboard-response","trial_index":208,"time_elapsed":466214,"internal_node_id":"0.0-208.0","subject":"S1C1604","sona":"41424","block":6,"time":"2021-09-05T23:28:15.969Z","response":"2nd","certainty":"high","char":"L","transposition":0,"order":["swapped","shifted"],"probe_pitches":[5,4,-2,1,7,0,8,-2,7,1,2,3,5,3,7,2],"shifted_pitches":[5,4,-2,1,7,0,8,-2,6,1,2,3,5,3,7,2],"swapped_pitches":[5,4,-2,1,7,0,8,7,-2,1,2,3,5,3,7,2],"shift_direction":-1,"question_num":181,"has_decoy":false},{"rt":2250.900000035763,"stimulus":"[A] option 1, [L] option 2, [G] neither","key_press":65,"name":"choice","trial_type":"html-keyboard-response","trial_index":219,"time_elapsed":491369,"internal_node_id":"0.0-219.0","subject":"S1C1604","sona":"41424","block":6,"time":"2021-09-05T23:28:15.969Z","response":"1st","certainty":"high","char":"A","transposition":-1,"order":["shifted","swapped"],"probe_pitches":[3,2,-1,0,6,7,2,9,3,10,-2,3,0,3,8,-1],"shifted_pitches":[3,2,-1,0,6,7,2,9,4,10,-2,3,0,3,8,-1],"swapped_pitches":[3,2,-1,0,6,7,2,3,9,10,-2,3,0,3,8,-1],"shift_direction":1,"question_num":191,"has_decoy":false}]