[{"rt":5778.599999964237,"stimulus":"[A] option 1, [L] option 2, [G] neither","key_press":65,"name":"choice","trial_type":"html-keyboard-response","trial_index":15,"time_elapsed":102106,"internal_node_id":"0.0-15.0","response":"1st","certainty":"high","char":"A","transposition":3,"order":["swapped","shifted"],"probe_pitches":[3,-2,-1,2,3,4,3,2,8,1,2,6,3,4,8,5],"shifted_pitches":[3,-2,-1,2,3,4,3,2,9,1,2,6,3,4,8,5],"swapped_pitches":[3,-2,-1,2,3,4,3,8,2,1,2,6,3,4,8,5],"shift_direction":1,"question_num":1,"has_decoy":false,"subject":"S1C1604","sona":"41424","block":1,"time":"2021-09-05T22:41:12.270Z"},{"rt":2627.699999988079,"stimulus":"[A] option 1, [L] option 2, [G] neither","key_press":76,"name":"choice","trial_type":"html-keyboard-response","trial_index":26,"time_elapsed":128907,"internal_node_id":"0.0-26.0","response":"2nd","certainty":"high","char":"L","transposition":-2,"order":["swapped","shifted"],"probe_pitches":[-2,-1,1,4,9,-1,6,4,1,7,5,4,5,4,5,4],"shifted_pitches":[-2,-1,1,4,9,-1,6,4,0,7,5,4,5,4,5,4],"swapped_pitches":[-2,-1,1,4,9,-1,6,1,4,7,5,4,5,4,5,4],"shift_direction":-1,"question_num":11,"has_decoy":false,"subject":"S1C1604","sona":"41424","block":1,"time":"2021-09-05T22:41:12.270Z"},{"rt":1217.3999999761581,"stimulus":"[A] option 1, [L] option 2, [G] neither","key_press":76,"name":"choice","trial_type":"html-keyboard-response","trial_index":37,"time_elapsed":153872,"internal_node_id":"0.0-37.0","response":"2nd","certainty":"high","char":"L","transposition":0,"order":["swapped","shifted"],"probe_pitches":[0,-1,-2,0,3,2,0,2,-2,8,3,7,0,3,2,-1],"shifted_pitches":[0,-1,-2,0,3,2,0,1,-2,8,3,7,0,3,2,-1],"swapped_pitches":[0,-1,-2,0,3,2,0,-2,2,8,3,7,0,3,2,-1],"shift_direction":-1,"question_num":21,"has_decoy":false,"subject":"S1C1604","sona":"41424","block":1,"time":"2021-09-05T22:41:12.270Z"},{"rt":2905.199999988079,"stimulus":"[A] option 1, [L] option 2, [G] neither","key_press":76,"name":"choice","trial_type":"html-keyboard-response","trial_index":48,"time_elapsed":180037,"internal_node_id":"0.0-48.0","response":"2nd","certainty":"high","char":"L","transposition":-3,"order":["swapped","shifted"],"probe_pitches":[8,3,-2,0,3,0,3,10,5,3,8,10,0,10,3,10],"shifted_pitches":[8,3,-2,0,3,0,3,10,6,3,8,10,0,10,3,10],"swapped_pitches":[8,3,-2,0,3,0,3,5,10,3,8,10,0,10,3,10],"shift_direction":1,"question_num":31,"has_decoy":false,"subject":"S1C1604","sona":"41424","block":1,"time":"2021-09-05T22:41:12.270Z"},{"rt":3958.7999999523163,"stimulus":"[A] option 1, [L] option 2, [G] neither","key_press":76,"name":"choice","trial_type":"html-keyboard-response","trial_index":59,"time_elapsed":208401,"internal_node_id":"0.0-59.0","response":"2nd","certainty":"high","char":"L","transposition":-1,"order":["swapped","shifted"],"probe_pitches":[8,3,8,1,5,10,3,10,-2,8,5,1,-2,1,5,3],"shifted_pitches":[8,3,8,1,5,10,3,10,-3,8,5,1,-2,1,5,3],"swapped_pitches":[8,3,8,1,5,10,3,-2,10,8,5,1,-2,1,5,3],"shift_direction":-1,"question_num":41,"has_decoy":false,"subject":"S1C1604","sona":"41424","block":1,"time":"2021-09-05T22:41:12.270Z"},{"rt":1024.6000000238419,"stimulus":"[A] option 1, [L] option 2, [G] neither","key_press":65,"name":"choice","trial_type":"html-keyboard-response","trial_index":70,"time_elapsed":232982,"internal_node_id":"0.0-70.0","response":"1st","certainty":"high","char":"A","transposition":2,"order":["shifted","swapped"],"probe_pitches":[-2,-1,-2,3,4,10,3,9,4,3,10,9,4,-1,7,2],"shifted_pitches":[-2,-1,-2,3,4,10,3,8,4,3,10,9,4,-1,7,2],"swapped_pitches":[-2,-1,-2,3,4,10,3,4,9,3,10,9,4,-1,7,2],"shift_direction":-1,"question_num":51,"has_decoy":false,"subject":"S1C1604","sona":"41424","block":1,"time":"2021-09-05T22:41:12.270Z"},{"rt":1681.5,"stimulus":"[A] option 1, [L] option 2, [G] neither","key_press":65,"name":"choice","trial_type":"html-keyboard-response","trial_index":81,"time_elapsed":257929,"internal_node_id":"0.0-81.0","response":"1st","certainty":"high","char":"A","transposition":-3,"order":["shifted","swapped"],"probe_pitches":[2,8,10,4,8,10,1,10,8,5,-2,1,0,8,6,1],"shifted_pitches":[2,8,10,4,8,10,1,10,7,5,-2,1,0,8,6,1],"swapped_pitches":[2,8,10,4,8,10,1,8,10,5,-2,1,0,8,6,1],"shift_direction":-1,"question_num":61,"has_decoy":false,"subject":"S1C1604","sona":"41424","block":1,"time":"2021-09-05T22:41:12.270Z"},{"rt":27171.400000035763,"stimulus":"[A] option 1, [L] option 2, [G] neither","key_press":76,"name":"choice","trial_type":"html-keyboard-response","trial_index":92,"time_elapsed":311348,"internal_node_id":"0.0-92.0","response":"2nd","certainty":"high","char":"L","transposition":-3,"order":["swapped","shifted"],"probe_pitches":[6,8,1,8,5,1,4,3,-2,6,5,3,8,-2,4,9],"shifted_pitches":[6,8,1,8,5,1,4,2,-2,6,5,3,8,-2,4,9],"swapped_pitches":[6,8,1,8,5,1,4,-2,3,6,5,3,8,-2,4,9],"shift_direction":-1,"question_num":71,"has_decoy":false,"subject":"S1C1604","sona":"41424","block":1,"time":"2021-09-05T22:41:12.270Z"},{"rt":1833,"stimulus":"[A] option 1, [L] option 2, [G] neither","key_press":76,"name":"choice","trial_type":"html-keyboard-response","trial_index":103,"time_elapsed":338935,"internal_node_id":"0.0-103.0","response":"2nd","certainty":"high","char":"L","transposition":3,"order":["shifted","swapped"],"probe_pitches":[0,2,7,2,5,2,0,10,-2,0,10,5,2,5,0,7],"shifted_pitches":[0,2,7,2,5,2,0,10,-1,0,10,5,2,5,0,7],"swapped_pitches":[0,2,7,2,5,2,0,-2,10,0,10,5,2,5,0,7],"shift_direction":1,"question_num":81,"has_decoy":false,"subject":"S1C1604","sona":"41424","block":1,"time":"2021-09-05T22:41:12.270Z"},{"rt":945.1000000238419,"stimulus":"[A] option 1, [L] option 2, [G] neither","key_press":65,"name":"choice","trial_type":"html-keyboard-response","trial_index":114,"time_elapsed":363848,"internal_node_id":"0.0-114.0","response":"1st","certainty":"high","char":"A","transposition":-1,"order":["shifted","swapped"],"probe_pitches":[10,9,10,9,7,4,8,4,5,9,-2,10,5,8,-2,9],"shifted_pitches":[10,9,10,9,7,4,8,4,6,9,-2,10,5,8,-2,9],"swapped_pitches":[10,9,10,9,7,4,8,5,4,9,-2,10,5,8,-2,9],"shift_direction":1,"question_num":91,"has_decoy":false,"subject":"S1C1604","sona":"41424","block":1,"time":"2021-09-05T22:41:12.270Z"},{"rt":625.5999999642372,"stimulus":"[A] option 1, [L] option 2, [G] neither","key_press":76,"name":"choice","trial_type":"html-keyboard-response","trial_index":125,"time_elapsed":388488,"internal_node_id":"0.0-125.0","response":"2nd","certainty":"high","char":"L","transposition":-2,"order":["shifted","swapped"],"probe_pitches":[8,3,-2,1,3,1,10,1,8,6,3,10,8,6,8,6],"shifted_pitches":[8,3,-2,1,3,1,10,1,9,6,3,10,8,6,8,6],"swapped_pitches":[8,3,-2,1,3,1,10,8,1,6,3,10,8,6,8,6],"shift_direction":1,"question_num":101,"has_decoy":false,"subject":"S1C1604","sona":"41424","block":1,"time":"2021-09-05T22:41:12.270Z"},{"rt":813.6000000238419,"stimulus":"[A] option 1, [L] option 2, [G] neither","key_press":76,"name":"choice","trial_type":"html-keyboard-response","trial_index":136,"time_elapsed":413792,"internal_node_id":"0.0-136.0","response":"2nd","certainty":"high","char":"L","transposition":1,"order":["shifted","swapped"],"probe_pitches":[4,-1,1,6,7,1,7,4,9,3,7,6,8,4,2,9],"shifted_pitches":[4,-1,1,6,7,1,7,5,9,3,7,6,8,4,2,9],"swapped_pitches":[4,-1,1,6,7,1,7,9,4,3,7,6,8,4,2,9],"shift_direction":1,"question_num":111,"has_decoy":false,"subject":"S1C1604","sona":"41424","block":1,"time":"2021-09-05T22:41:12.270Z"},{"rt":1206.199999988079,"stimulus":"[A] option 1, [L] option 2, [G] neither","key_press":65,"name":"choice","trial_type":"html-keyboard-response","trial_index":147,"time_elapsed":438419,"internal_node_id":"0.0-147.0","response":"1st","certainty":"high","char":"A","transposition":-3,"order":["shifted","swapped"],"probe_pitches":[1,5,8,1,-2,5,-2,10,5,-2,10,5,10,-2,3,8],"shifted_pitches":[1,5,8,1,-2,5,-2,9,5,-2,10,5,10,-2,3,8],"swapped_pitches":[1,5,8,1,-2,5,-2,5,10,-2,10,5,10,-2,3,8],"shift_direction":-1,"question_num":121,"has_decoy":false,"subject":"S1C1604","sona":"41424","block":1,"time":"2021-09-05T22:41:12.270Z"},{"rt":1764.6000000238419,"stimulus":"[A] option 1, [L] option 2, [G] neither","key_press":76,"name":"choice","trial_type":"html-keyboard-response","trial_index":158,"time_elapsed":463669,"internal_node_id":"0.0-158.0","response":"2nd","certainty":"high","char":"L","transposition":-2,"order":["shifted","swapped"],"probe_pitches":[10,7,9,7,5,-2,4,8,2,-2,7,-1,0,5,-1,1],"shifted_pitches":[10,7,9,7,5,-2,4,8,3,-2,7,-1,0,5,-1,1],"swapped_pitches":[10,7,9,7,5,-2,4,2,8,-2,7,-1,0,5,-1,1],"shift_direction":1,"question_num":131,"has_decoy":false,"subject":"S1C1604","sona":"41424","block":1,"time":"2021-09-05T22:41:12.270Z"},{"rt":807.8999999761581,"stimulus":"[A] option 1, [L] option 2, [G] neither","key_press":76,"name":"choice","trial_type":"html-keyboard-response","trial_index":169,"time_elapsed":487150,"internal_node_id":"0.0-169.0","response":"2nd","certainty":"high","char":"L","transposition":2,"order":["swapped","shifted"],"probe_pitches":[3,5,0,-2,7,5,-2,0,7,10,7,10,0,3,7,0],"shifted_pitches":[3,5,0,-2,7,5,-2,1,7,10,7,10,0,3,7,0],"swapped_pitches":[3,5,0,-2,7,5,-2,7,0,10,7,10,0,3,7,0],"shift_direction":1,"question_num":141,"has_decoy":false,"subject":"S1C1604","sona":"41424","block":1,"time":"2021-09-05T22:41:12.270Z"},{"rt":566.1000000238419,"stimulus":"[A] option 1, [L] option 2, [G] neither","key_press":65,"name":"choice","trial_type":"html-keyboard-response","trial_index":180,"time_elapsed":510486,"internal_node_id":"0.0-180.0","response":"1st","certainty":"high","char":"A","transposition":1,"order":["shifted","swapped"],"probe_pitches":[0,5,0,3,7,3,7,10,5,-2,10,3,5,0,10,7],"shifted_pitches":[0,5,0,3,7,3,7,11,5,-2,10,3,5,0,10,7],"swapped_pitches":[0,5,0,3,7,3,7,5,10,-2,10,3,5,0,10,7],"shift_direction":1,"question_num":151,"has_decoy":false,"subject":"S1C1604","sona":"41424","block":1,"time":"2021-09-05T22:41:12.270Z"},{"rt":942.3000000119209,"stimulus":"[A] option 1, [L] option 2, [G] neither","key_press":65,"name":"choice","trial_type":"html-keyboard-response","trial_index":191,"time_elapsed":534736,"internal_node_id":"0.0-191.0","response":"1st","certainty":"high","char":"A","transposition":-1,"order":["swapped","shifted"],"probe_pitches":[9,6,5,6,-1,9,1,3,0,1,3,6,3,7,2,3],"shifted_pitches":[9,6,5,6,-1,9,1,4,0,1,3,6,3,7,2,3],"swapped_pitches":[9,6,5,6,-1,9,1,0,3,1,3,6,3,7,2,3],"shift_direction":1,"question_num":161,"has_decoy":false,"subject":"S1C1604","sona":"41424","block":1,"time":"2021-09-05T22:41:12.270Z"},{"rt":618.3000000119209,"stimulus":"[A] option 1, [L] option 2, [G] neither","key_press":76,"name":"choice","trial_type":"html-keyboard-response","trial_index":202,"time_elapsed":558512,"internal_node_id":"0.0-202.0","response":"2nd","certainty":"high","char":"L","transposition":0,"order":["swapped","shifted"],"probe_pitches":[5,10,8,5,3,10,5,3,8,0,8,10,3,0,3,5],"shifted_pitches":[5,10,8,5,3,10,5,3,7,0,8,10,3,0,3,5],"swapped_pitches":[5,10,8,5,3,10,5,8,3,0,8,10,3,0,3,5],"shift_direction":-1,"question_num":171,"has_decoy":false,"subject":"S1C1604","sona":"41424","block":1,"time":"2021-09-05T22:41:12.270Z"},{"rt":2796.5,"stimulus":"[A] option 1, [L] option 2, [G] neither","key_press":65,"name":"choice","trial_type":"html-keyboard-response","trial_index":213,"time_elapsed":584802,"internal_node_id":"0.0-213.0","response":"1st","certainty":"high","char":"A","transposition":-2,"order":["swapped","shifted"],"probe_pitches":[-2,1,3,6,8,1,10,3,8,1,3,10,-2,10,6,8],"shifted_pitches":[-2,1,3,6,8,1,10,2,8,1,3,10,-2,10,6,8],"swapped_pitches":[-2,1,3,6,8,1,10,8,3,1,3,10,-2,10,6,8],"shift_direction":-1,"question_num":181,"has_decoy":false,"subject":"S1C1604","sona":"41424","block":1,"time":"2021-09-05T22:41:12.270Z"},{"rt":2655,"stimulus":"[A] option 1, [L] option 2, [G] neither","key_press":65,"name":"choice","trial_type":"html-keyboard-response","trial_index":224,"time_elapsed":610932,"internal_node_id":"0.0-224.0","response":"1st","certainty":"high","char":"A","transposition":-1,"order":["shifted","swapped"],"probe_pitches":[-2,2,5,-2,0,7,-2,2,10,0,7,-2,0,7,2,5],"shifted_pitches":[-2,2,5,-2,0,7,-2,1,10,0,7,-2,0,7,2,5],"swapped_pitches":[-2,2,5,-2,0,7,-2,10,2,0,7,-2,0,7,2,5],"shift_direction":-1,"question_num":191,"has_decoy":false,"subject":"S1C1604","sona":"41424","block":1,"time":"2021-09-05T22:41:12.270Z"}]