[{"rt":1611.199999988079,"stimulus":"[A] option 1, [L] option 2, [G] neither","key_press":65,"name":"choice","trial_type":"html-keyboard-response","trial_index":10,"time_elapsed":32476,"internal_node_id":"0.0-10.0","subject":"S1C1604","sona":"41424","block":2,"time":"2021-09-05T22:50:18.341Z","response":"1st","certainty":"high","char":"A","transposition":-2,"order":["swapped","shifted"],"probe_pitches":[14,12,5,8,3,13,5,6,8,7,4,7,14,3,10,12],"shifted_pitches":[14,12,5,8,3,13,5,6,9,7,4,7,14,3,10,12],"swapped_pitches":[14,12,5,8,3,13,5,8,6,7,4,7,14,3,10,12],"shift_direction":1,"question_num":1,"has_decoy":false},{"rt":974.8000000119209,"stimulus":"[A] option 1, [L] option 2, [G] neither","key_press":76,"name":"choice","trial_type":"html-keyboard-response","trial_index":21,"time_elapsed":56701,"internal_node_id":"0.0-21.0","subject":"S1C1604","sona":"41424","block":2,"time":"2021-09-05T22:50:18.341Z","response":"2nd","certainty":"high","char":"L","transposition":2,"order":["shifted","swapped"],"probe_pitches":[5,3,7,10,7,5,10,15,12,5,12,3,7,3,5,10],"shifted_pitches":[5,3,7,10,7,5,10,15,13,5,12,3,7,3,5,10],"swapped_pitches":[5,3,7,10,7,5,10,12,15,5,12,3,7,3,5,10],"shift_direction":1,"question_num":11,"has_decoy":false},{"rt":4503.899999976158,"stimulus":"[A] option 1, [L] option 2, [G] neither","key_press":65,"name":"choice","trial_type":"html-keyboard-response","trial_index":32,"time_elapsed":87197,"internal_node_id":"0.0-32.0","subject":"S1C1604","sona":"41424","block":2,"time":"2021-09-05T22:50:18.341Z","response":"1st","certainty":"high","char":"A","transposition":3,"order":["shifted","swapped"],"probe_pitches":[10,15,8,10,13,8,10,13,15,10,8,5,10,13,5,10],"shifted_pitches":[10,15,8,10,13,8,10,14,15,10,8,5,10,13,5,10],"swapped_pitches":[10,15,8,10,13,8,10,15,13,10,8,5,10,13,5,10],"shift_direction":1,"question_num":21,"has_decoy":false},{"rt":4733.400000035763,"stimulus":"[A] option 1, [L] option 2, [G] neither","key_press":65,"name":"choice","trial_type":"html-keyboard-response","trial_index":43,"time_elapsed":117058,"internal_node_id":"0.0-43.0","subject":"S1C1604","sona":"41424","block":2,"time":"2021-09-05T22:50:18.341Z","response":"1st","certainty":"high","char":"A","transposition":0,"order":["shifted","swapped"],"probe_pitches":[12,14,8,11,9,13,9,14,5,7,11,7,8,12,13,7],"shifted_pitches":[12,14,8,11,9,13,9,14,4,7,11,7,8,12,13,7],"swapped_pitches":[12,14,8,11,9,13,9,5,14,7,11,7,8,12,13,7],"shift_direction":-1,"question_num":31,"has_decoy":false},{"rt":955.1000000238419,"stimulus":"[A] option 1, [L] option 2, [G] neither","key_press":76,"name":"choice","trial_type":"html-keyboard-response","trial_index":54,"time_elapsed":141403,"internal_node_id":"0.0-54.0","subject":"S1C1604","sona":"41424","block":2,"time":"2021-09-05T22:50:18.341Z","response":"2nd","certainty":"high","char":"L","transposition":-1,"order":["swapped","shifted"],"probe_pitches":[10,12,10,12,5,3,5,10,8,5,15,12,15,3,15,5],"shifted_pitches":[10,12,10,12,5,3,5,10,7,5,15,12,15,3,15,5],"swapped_pitches":[10,12,10,12,5,3,5,8,10,5,15,12,15,3,15,5],"shift_direction":-1,"question_num":41,"has_decoy":false},{"rt":3089.399999976158,"stimulus":"[A] option 1, [L] option 2, [G] neither","key_press":76,"name":"choice","trial_type":"html-keyboard-response","trial_index":65,"time_elapsed":168434,"internal_node_id":"0.0-65.0","subject":"S1C1604","sona":"41424","block":2,"time":"2021-09-05T22:50:18.341Z","response":"2nd","certainty":"high","char":"L","transposition":1,"order":["swapped","shifted"],"probe_pitches":[8,5,8,10,8,13,15,10,8,5,13,3,10,13,8,5],"shifted_pitches":[8,5,8,10,8,13,15,10,9,5,13,3,10,13,8,5],"swapped_pitches":[8,5,8,10,8,13,15,8,10,5,13,3,10,13,8,5],"shift_direction":1,"question_num":51,"has_decoy":false},{"rt":682.5999999642372,"stimulus":"[A] option 1, [L] option 2, [G] neither","key_press":76,"name":"choice","trial_type":"html-keyboard-response","trial_index":76,"time_elapsed":193824,"internal_node_id":"0.0-76.0","subject":"S1C1604","sona":"41424","block":2,"time":"2021-09-05T22:50:18.341Z","response":"2nd","certainty":"high","char":"L","transposition":-1,"order":["shifted","swapped"],"probe_pitches":[5,6,11,5,3,6,11,14,12,3,2,7,9,8,12,14],"shifted_pitches":[5,6,11,5,3,6,11,14,13,3,2,7,9,8,12,14],"swapped_pitches":[5,6,11,5,3,6,11,12,14,3,2,7,9,8,12,14],"shift_direction":1,"question_num":61,"has_decoy":false},{"rt":1482.699999988079,"stimulus":"[A] option 1, [L] option 2, [G] neither","key_press":76,"name":"choice","trial_type":"html-keyboard-response","trial_index":87,"time_elapsed":219723,"internal_node_id":"0.0-87.0","subject":"S1C1604","sona":"41424","block":2,"time":"2021-09-05T22:50:18.341Z","response":"2nd","certainty":"high","char":"L","transposition":3,"order":["shifted","swapped"],"probe_pitches":[4,7,14,13,4,12,7,6,4,9,4,12,14,8,7,6],"shifted_pitches":[4,7,14,13,4,12,7,5,4,9,4,12,14,8,7,6],"swapped_pitches":[4,7,14,13,4,12,7,4,6,9,4,12,14,8,7,6],"shift_direction":-1,"question_num":71,"has_decoy":false},{"rt":1166.1000000238419,"stimulus":"[A] option 1, [L] option 2, [G] neither","key_press":65,"name":"choice","trial_type":"html-keyboard-response","trial_index":98,"time_elapsed":244668,"internal_node_id":"0.0-98.0","subject":"S1C1604","sona":"41424","block":2,"time":"2021-09-05T22:50:18.341Z","response":"1st","certainty":"high","char":"A","transposition":-3,"order":["shifted","swapped"],"probe_pitches":[7,5,2,8,3,9,7,2,11,7,2,14,7,11,8,6],"shifted_pitches":[7,5,2,8,3,9,7,2,12,7,2,14,7,11,8,6],"swapped_pitches":[7,5,2,8,3,9,7,11,2,7,2,14,7,11,8,6],"shift_direction":1,"question_num":81,"has_decoy":false},{"rt":3288.199999988079,"stimulus":"[A] option 1, [L] option 2, [G] neither","key_press":65,"name":"choice","trial_type":"html-keyboard-response","trial_index":109,"time_elapsed":271621,"internal_node_id":"0.0-109.0","subject":"S1C1604","sona":"41424","block":2,"time":"2021-09-05T22:50:18.341Z","response":"1st","certainty":"high","char":"A","transposition":-2,"order":["shifted","swapped"],"probe_pitches":[12,7,10,7,10,5,3,10,15,12,3,10,5,10,3,15],"shifted_pitches":[12,7,10,7,10,5,3,9,15,12,3,10,5,10,3,15],"swapped_pitches":[12,7,10,7,10,5,3,15,10,12,3,10,5,10,3,15],"shift_direction":-1,"question_num":91,"has_decoy":false},{"rt":1289.9000000357628,"stimulus":"[A] option 1, [L] option 2, [G] neither","key_press":76,"name":"choice","trial_type":"html-keyboard-response","trial_index":120,"time_elapsed":297043,"internal_node_id":"0.0-120.0","subject":"S1C1604","sona":"41424","block":2,"time":"2021-09-05T22:50:18.341Z","response":"2nd","certainty":"high","char":"L","transposition":0,"order":["shifted","swapped"],"probe_pitches":[12,8,5,10,5,8,15,12,8,10,8,12,15,12,15,5],"shifted_pitches":[12,8,5,10,5,8,15,12,9,10,8,12,15,12,15,5],"swapped_pitches":[12,8,5,10,5,8,15,8,12,10,8,12,15,12,15,5],"shift_direction":1,"question_num":101,"has_decoy":false},{"rt":1553.6000000238419,"stimulus":"[A] option 1, [L] option 2, [G] neither","key_press":76,"name":"choice","trial_type":"html-keyboard-response","trial_index":131,"time_elapsed":322707,"internal_node_id":"0.0-131.0","subject":"S1C1604","sona":"41424","block":2,"time":"2021-09-05T22:50:18.341Z","response":"2nd","certainty":"high","char":"L","transposition":-3,"order":["swapped","shifted"],"probe_pitches":[6,3,8,15,11,15,11,3,13,6,3,13,3,6,15,13],"shifted_pitches":[6,3,8,15,11,15,11,3,14,6,3,13,3,6,15,13],"swapped_pitches":[6,3,8,15,11,15,11,13,3,6,3,13,3,6,15,13],"shift_direction":1,"question_num":111,"has_decoy":false},{"rt":2612.599999964237,"stimulus":"[A] option 1, [L] option 2, [G] neither","key_press":65,"name":"choice","trial_type":"html-keyboard-response","trial_index":142,"time_elapsed":348238,"internal_node_id":"0.0-142.0","subject":"S1C1604","sona":"41424","block":2,"time":"2021-09-05T22:50:18.341Z","response":"1st","certainty":"high","char":"A","transposition":2,"order":["swapped","shifted"],"probe_pitches":[14,11,12,13,10,2,6,8,5,14,5,12,9,4,5,13],"shifted_pitches":[14,11,12,13,10,2,6,7,5,14,5,12,9,4,5,13],"swapped_pitches":[14,11,12,13,10,2,6,5,8,14,5,12,9,4,5,13],"shift_direction":-1,"question_num":121,"has_decoy":false},{"rt":1848.1000000238419,"stimulus":"[A] option 1, [L] option 2, [G] neither","key_press":65,"name":"choice","trial_type":"html-keyboard-response","trial_index":153,"time_elapsed":373815,"internal_node_id":"0.0-153.0","subject":"S1C1604","sona":"41424","block":2,"time":"2021-09-05T22:50:18.341Z","response":"1st","certainty":"high","char":"A","transposition":-1,"order":["swapped","shifted"],"probe_pitches":[5,4,8,2,10,4,9,10,7,14,11,3,4,9,13,9],"shifted_pitches":[5,4,8,2,10,4,9,10,6,14,11,3,4,9,13,9],"swapped_pitches":[5,4,8,2,10,4,9,7,10,14,11,3,4,9,13,9],"shift_direction":-1,"question_num":131,"has_decoy":false},{"rt":1393.699999988079,"stimulus":"[A] option 1, [L] option 2, [G] neither","key_press":76,"name":"choice","trial_type":"html-keyboard-response","trial_index":164,"time_elapsed":399359,"internal_node_id":"0.0-164.0","subject":"S1C1604","sona":"41424","block":2,"time":"2021-09-05T22:50:18.341Z","response":"2nd","certainty":"high","char":"L","transposition":-1,"order":["swapped","shifted"],"probe_pitches":[6,11,13,15,13,3,8,11,6,3,11,6,15,13,6,8],"shifted_pitches":[6,11,13,15,13,3,8,10,6,3,11,6,15,13,6,8],"swapped_pitches":[6,11,13,15,13,3,8,6,11,3,11,6,15,13,6,8],"shift_direction":-1,"question_num":141,"has_decoy":false},{"rt":1368.5,"stimulus":"[A] option 1, [L] option 2, [G] neither","key_press":65,"name":"choice","trial_type":"html-keyboard-response","trial_index":175,"time_elapsed":424867,"internal_node_id":"0.0-175.0","subject":"S1C1604","sona":"41424","block":2,"time":"2021-09-05T22:50:18.341Z","response":"1st","certainty":"high","char":"A","transposition":-3,"order":["shifted","swapped"],"probe_pitches":[13,15,10,6,15,10,6,13,8,15,10,8,13,3,10,6],"shifted_pitches":[13,15,10,6,15,10,6,12,8,15,10,8,13,3,10,6],"swapped_pitches":[13,15,10,6,15,10,6,8,13,15,10,8,13,3,10,6],"shift_direction":-1,"question_num":151,"has_decoy":false},{"rt":3159.300000011921,"stimulus":"[A] option 1, [L] option 2, [G] neither","key_press":76,"name":"choice","trial_type":"html-keyboard-response","trial_index":186,"time_elapsed":451733,"internal_node_id":"0.0-186.0","subject":"S1C1604","sona":"41424","block":2,"time":"2021-09-05T22:50:18.341Z","response":"2nd","certainty":"high","char":"L","transposition":1,"order":["swapped","shifted"],"probe_pitches":[7,2,6,13,14,7,8,10,3,7,13,14,9,2,8,10],"shifted_pitches":[7,2,6,13,14,7,8,11,3,7,13,14,9,2,8,10],"swapped_pitches":[7,2,6,13,14,7,8,3,10,7,13,14,9,2,8,10],"shift_direction":1,"question_num":161,"has_decoy":false},{"rt":3272.199999988079,"stimulus":"[A] option 1, [L] option 2, [G] neither","key_press":65,"name":"choice","trial_type":"html-keyboard-response","trial_index":197,"time_elapsed":479213,"internal_node_id":"0.0-197.0","subject":"S1C1604","sona":"41424","block":2,"time":"2021-09-05T22:50:18.341Z","response":"1st","certainty":"high","char":"A","transposition":-2,"order":["swapped","shifted"],"probe_pitches":[7,5,11,10,12,10,13,7,6,5,3,5,10,12,7,12],"shifted_pitches":[7,5,11,10,12,10,13,8,6,5,3,5,10,12,7,12],"swapped_pitches":[7,5,11,10,12,10,13,6,7,5,3,5,10,12,7,12],"shift_direction":1,"question_num":171,"has_decoy":false},{"rt":471.80000001192093,"stimulus":"[A] option 1, [L] option 2, [G] neither","key_press":76,"name":"choice","trial_type":"html-keyboard-response","trial_index":208,"time_elapsed":502643,"internal_node_id":"0.0-208.0","subject":"S1C1604","sona":"41424","block":2,"time":"2021-09-05T22:50:18.341Z","response":"2nd","certainty":"high","char":"L","transposition":-3,"order":["shifted","swapped"],"probe_pitches":[14,9,3,8,6,14,6,11,14,6,4,8,13,11,12,7],"shifted_pitches":[14,9,3,8,6,14,6,10,14,6,4,8,13,11,12,7],"swapped_pitches":[14,9,3,8,6,14,6,14,11,6,4,8,13,11,12,7],"shift_direction":-1,"question_num":181,"has_decoy":false},{"rt":822.6999999880791,"stimulus":"[A] option 1, [L] option 2, [G] neither","key_press":65,"name":"choice","trial_type":"html-keyboard-response","trial_index":219,"time_elapsed":526804,"internal_node_id":"0.0-219.0","subject":"S1C1604","sona":"41424","block":2,"time":"2021-09-05T22:50:18.341Z","response":"1st","certainty":"high","char":"A","transposition":-2,"order":["swapped","shifted"],"probe_pitches":[13,15,10,13,15,8,15,10,3,6,10,3,8,13,3,8],"shifted_pitches":[13,15,10,13,15,8,15,9,3,6,10,3,8,13,3,8],"swapped_pitches":[13,15,10,13,15,8,15,3,10,6,10,3,8,13,3,8],"shift_direction":-1,"question_num":191,"has_decoy":false}]