[{"rt":1181.6000000238419,"stimulus":"[A] option 1, [L] option 2, [G] neither","key_press":65,"name":"choice","trial_type":"html-keyboard-response","trial_index":10,"time_elapsed":26559,"internal_node_id":"0.0-10.0","subject":"S1C1604","sona":"41424","block":4,"time":"2021-09-05T23:11:27.503Z","response":"1st","certainty":"high","char":"A","transposition":2,"order":["swapped","shifted"],"probe_pitches":[5,8,2,5,3,6,7,4,8,-1,3,1,-2,1,6,4],"shifted_pitches":[5,8,2,5,3,6,7,4,9,-1,3,1,-2,1,6,4],"swapped_pitches":[5,8,2,5,3,6,7,8,4,-1,3,1,-2,1,6,4],"shift_direction":1,"question_num":1,"has_decoy":false},{"rt":316.69999998807907,"stimulus":"[A] option 1, [L] option 2, [G] neither","key_press":76,"name":"choice","trial_type":"html-keyboard-response","trial_index":21,"time_elapsed":49788,"internal_node_id":"0.0-21.0","subject":"S1C1604","sona":"41424","block":4,"time":"2021-09-05T23:11:27.503Z","response":"2nd","certainty":"high","char":"L","transposition":-1,"order":["shifted","swapped"],"probe_pitches":[5,7,6,3,7,3,0,-1,3,5,0,1,0,4,8,5],"shifted_pitches":[5,7,6,3,7,3,0,-1,2,5,0,1,0,4,8,5],"swapped_pitches":[5,7,6,3,7,3,0,3,-1,5,0,1,0,4,8,5],"shift_direction":-1,"question_num":11,"has_decoy":false},{"rt":1785.699999988079,"stimulus":"[A] option 1, [L] option 2, [G] neither","key_press":65,"name":"choice","trial_type":"html-keyboard-response","trial_index":32,"time_elapsed":75404,"internal_node_id":"0.0-32.0","subject":"S1C1604","sona":"41424","block":4,"time":"2021-09-05T23:11:27.503Z","response":"1st","certainty":"high","char":"A","transposition":1,"order":["shifted","swapped"],"probe_pitches":[0,5,-2,0,7,5,7,0,5,-2,2,-2,10,7,10,5],"shifted_pitches":[0,5,-2,0,7,5,7,-1,5,-2,2,-2,10,7,10,5],"swapped_pitches":[0,5,-2,0,7,5,7,5,0,-2,2,-2,10,7,10,5],"shift_direction":-1,"question_num":21,"has_decoy":false},{"rt":461.60000002384186,"stimulus":"[A] option 1, [L] option 2, [G] neither","key_press":65,"name":"choice","trial_type":"html-keyboard-response","trial_index":43,"time_elapsed":98755,"internal_node_id":"0.0-43.0","subject":"S1C1604","sona":"41424","block":4,"time":"2021-09-05T23:11:27.503Z","response":"1st","certainty":"high","char":"A","transposition":-3,"order":["shifted","swapped"],"probe_pitches":[6,1,-1,0,6,9,-2,9,7,1,6,10,2,4,-1,9],"shifted_pitches":[6,1,-1,0,6,9,-2,8,7,1,6,10,2,4,-1,9],"swapped_pitches":[6,1,-1,0,6,9,-2,7,9,1,6,10,2,4,-1,9],"shift_direction":-1,"question_num":31,"has_decoy":false},{"rt":602.3999999761581,"stimulus":"[A] option 1, [L] option 2, [G] neither","key_press":76,"name":"choice","trial_type":"html-keyboard-response","trial_index":54,"time_elapsed":122456,"internal_node_id":"0.0-54.0","subject":"S1C1604","sona":"41424","block":4,"time":"2021-09-05T23:11:27.503Z","response":"2nd","certainty":"high","char":"L","transposition":-3,"order":["swapped","shifted"],"probe_pitches":[5,7,3,0,7,0,5,10,-2,7,0,10,3,7,-2,0],"shifted_pitches":[5,7,3,0,7,0,5,10,-1,7,0,10,3,7,-2,0],"swapped_pitches":[5,7,3,0,7,0,5,-2,10,7,0,10,3,7,-2,0],"shift_direction":1,"question_num":41,"has_decoy":false},{"rt":2349.2000000476837,"stimulus":"[A] option 1, [L] option 2, [G] neither","key_press":76,"name":"choice","trial_type":"html-keyboard-response","trial_index":65,"time_elapsed":149058,"internal_node_id":"0.0-65.0","subject":"S1C1604","sona":"41424","block":4,"time":"2021-09-05T23:11:27.503Z","response":"2nd","certainty":"high","char":"L","transposition":-2,"order":["swapped","shifted"],"probe_pitches":[3,8,10,5,8,1,-2,10,1,3,-2,8,10,1,10,5],"shifted_pitches":[3,8,10,5,8,1,-2,10,0,3,-2,8,10,1,10,5],"swapped_pitches":[3,8,10,5,8,1,-2,1,10,3,-2,8,10,1,10,5],"shift_direction":-1,"question_num":51,"has_decoy":false},{"rt":420.5999999642372,"stimulus":"[A] option 1, [L] option 2, [G] neither","key_press":65,"name":"choice","trial_type":"html-keyboard-response","trial_index":76,"time_elapsed":173400,"internal_node_id":"0.0-76.0","subject":"S1C1604","sona":"41424","block":4,"time":"2021-09-05T23:11:27.503Z","response":"1st","certainty":"high","char":"A","transposition":3,"order":["shifted","swapped"],"probe_pitches":[-2,2,7,0,2,10,7,-2,2,5,10,2,0,5,2,10],"shifted_pitches":[-2,2,7,0,2,10,7,-1,2,5,10,2,0,5,2,10],"swapped_pitches":[-2,2,7,0,2,10,7,2,-2,5,10,2,0,5,2,10],"shift_direction":1,"question_num":61,"has_decoy":false},{"rt":3163,"stimulus":"[A] option 1, [L] option 2, [G] neither","key_press":65,"name":"choice","trial_type":"html-keyboard-response","trial_index":87,"time_elapsed":202576,"internal_node_id":"0.0-87.0","subject":"S1C1604","sona":"41424","block":4,"time":"2021-09-05T23:11:27.503Z","response":"1st","certainty":"high","char":"A","transposition":-1,"order":["swapped","shifted"],"probe_pitches":[8,6,3,1,8,6,8,6,-2,1,6,1,8,6,3,8],"shifted_pitches":[8,6,3,1,8,6,8,7,-2,1,6,1,8,6,3,8],"swapped_pitches":[8,6,3,1,8,6,8,-2,6,1,6,1,8,6,3,8],"shift_direction":1,"question_num":71,"has_decoy":false},{"rt":695.1999999880791,"stimulus":"[A] option 1, [L] option 2, [G] neither","key_press":76,"name":"choice","trial_type":"html-keyboard-response","trial_index":98,"time_elapsed":226089,"internal_node_id":"0.0-98.0","subject":"S1C1604","sona":"41424","block":4,"time":"2021-09-05T23:11:27.503Z","response":"2nd","certainty":"high","char":"L","transposition":0,"order":["shifted","swapped"],"probe_pitches":[5,10,5,10,8,1,3,8,5,-2,5,10,8,10,3,5],"shifted_pitches":[5,10,5,10,8,1,3,8,6,-2,5,10,8,10,3,5],"swapped_pitches":[5,10,5,10,8,1,3,5,8,-2,5,10,8,10,3,5],"shift_direction":1,"question_num":81,"has_decoy":false},{"rt":680.1999999880791,"stimulus":"[A] option 1, [L] option 2, [G] neither","key_press":76,"name":"choice","trial_type":"html-keyboard-response","trial_index":109,"time_elapsed":249728,"internal_node_id":"0.0-109.0","subject":"S1C1604","sona":"41424","block":4,"time":"2021-09-05T23:11:27.503Z","response":"2nd","certainty":"high","char":"L","transposition":-2,"order":["swapped","shifted"],"probe_pitches":[10,5,0,3,5,7,5,3,-2,0,-2,0,7,0,7,5],"shifted_pitches":[10,5,0,3,5,7,5,2,-2,0,-2,0,7,0,7,5],"swapped_pitches":[10,5,0,3,5,7,5,-2,3,0,-2,0,7,0,7,5],"shift_direction":-1,"question_num":91,"has_decoy":false},{"rt":381.19999998807907,"stimulus":"[A] option 1, [L] option 2, [G] neither","key_press":65,"name":"choice","trial_type":"html-keyboard-response","trial_index":120,"time_elapsed":273146,"internal_node_id":"0.0-120.0","subject":"S1C1604","sona":"41424","block":4,"time":"2021-09-05T23:11:27.503Z","response":"1st","certainty":"high","char":"A","transposition":2,"order":["shifted","swapped"],"probe_pitches":[10,8,6,1,8,3,10,-2,1,6,-2,6,3,10,1,10],"shifted_pitches":[10,8,6,1,8,3,10,-2,2,6,-2,6,3,10,1,10],"swapped_pitches":[10,8,6,1,8,3,10,1,-2,6,-2,6,3,10,1,10],"shift_direction":1,"question_num":101,"has_decoy":false},{"rt":586.1999999880791,"stimulus":"[A] option 1, [L] option 2, [G] neither","key_press":76,"name":"choice","trial_type":"html-keyboard-response","trial_index":131,"time_elapsed":298171,"internal_node_id":"0.0-131.0","subject":"S1C1604","sona":"41424","block":4,"time":"2021-09-05T23:11:27.503Z","response":"2nd","certainty":"high","char":"L","transposition":-2,"order":["shifted","swapped"],"probe_pitches":[-1,3,4,1,8,5,3,5,7,-2,0,2,4,-2,2,1],"shifted_pitches":[-1,3,4,1,8,5,3,6,7,-2,0,2,4,-2,2,1],"swapped_pitches":[-1,3,4,1,8,5,3,7,5,-2,0,2,4,-2,2,1],"shift_direction":1,"question_num":111,"has_decoy":false},{"rt":933.5999999642372,"stimulus":"[A] option 1, [L] option 2, [G] neither","key_press":76,"name":"choice","trial_type":"html-keyboard-response","trial_index":142,"time_elapsed":322026,"internal_node_id":"0.0-142.0","subject":"S1C1604","sona":"41424","block":4,"time":"2021-09-05T23:11:27.503Z","response":"2nd","certainty":"high","char":"L","transposition":-1,"order":["swapped","shifted"],"probe_pitches":[8,7,8,9,4,7,9,1,6,3,6,-2,10,6,0,4],"shifted_pitches":[8,7,8,9,4,7,9,1,5,3,6,-2,10,6,0,4],"swapped_pitches":[8,7,8,9,4,7,9,6,1,3,6,-2,10,6,0,4],"shift_direction":-1,"question_num":121,"has_decoy":false},{"rt":2558.399999976158,"stimulus":"[A] option 1, [L] option 2, [G] neither","key_press":76,"name":"choice","trial_type":"html-keyboard-response","trial_index":153,"time_elapsed":348790,"internal_node_id":"0.0-153.0","subject":"S1C1604","sona":"41424","block":4,"time":"2021-09-05T23:11:27.503Z","response":"2nd","certainty":"high","char":"L","transposition":-2,"order":["shifted","swapped"],"probe_pitches":[5,6,10,2,5,3,0,2,5,-1,5,10,0,9,-1,7],"shifted_pitches":[5,6,10,2,5,3,0,1,5,-1,5,10,0,9,-1,7],"swapped_pitches":[5,6,10,2,5,3,0,5,2,-1,5,10,0,9,-1,7],"shift_direction":-1,"question_num":131,"has_decoy":false},{"rt":1063.199999988079,"stimulus":"[A] option 1, [L] option 2, [G] neither","key_press":65,"name":"choice","trial_type":"html-keyboard-response","trial_index":164,"time_elapsed":373706,"internal_node_id":"0.0-164.0","subject":"S1C1604","sona":"41424","block":4,"time":"2021-09-05T23:11:27.503Z","response":"1st","certainty":"high","char":"A","transposition":-3,"order":["shifted","swapped"],"probe_pitches":[5,8,10,3,0,-2,0,8,5,-2,0,5,8,3,8,3],"shifted_pitches":[5,8,10,3,0,-2,0,8,4,-2,0,5,8,3,8,3],"swapped_pitches":[5,8,10,3,0,-2,0,5,8,-2,0,5,8,3,8,3],"shift_direction":-1,"question_num":141,"has_decoy":false},{"rt":288.0999999642372,"stimulus":"[A] option 1, [L] option 2, [G] neither","key_press":76,"name":"choice","trial_type":"html-keyboard-response","trial_index":175,"time_elapsed":398877,"internal_node_id":"0.0-175.0","subject":"S1C1604","sona":"41424","block":4,"time":"2021-09-05T23:11:27.503Z","response":"2nd","certainty":"high","char":"L","transposition":0,"order":["swapped","shifted"],"probe_pitches":[9,8,6,2,6,2,9,5,0,10,8,10,1,0,8,10],"shifted_pitches":[9,8,6,2,6,2,9,4,0,10,8,10,1,0,8,10],"swapped_pitches":[9,8,6,2,6,2,9,0,5,10,8,10,1,0,8,10],"shift_direction":-1,"question_num":151,"has_decoy":false},{"rt":2356.300000011921,"stimulus":"[A] option 1, [L] option 2, [G] neither","key_press":65,"name":"choice","trial_type":"html-keyboard-response","trial_index":186,"time_elapsed":423965,"internal_node_id":"0.0-186.0","subject":"S1C1604","sona":"41424","block":4,"time":"2021-09-05T23:11:27.503Z","response":"1st","certainty":"high","char":"A","transposition":1,"order":["swapped","shifted"],"probe_pitches":[4,10,4,10,9,6,-2,5,-1,7,-2,8,1,7,6,2],"shifted_pitches":[4,10,4,10,9,6,-2,5,0,7,-2,8,1,7,6,2],"swapped_pitches":[4,10,4,10,9,6,-2,-1,5,7,-2,8,1,7,6,2],"shift_direction":1,"question_num":161,"has_decoy":false},{"rt":1947,"stimulus":"[A] option 1, [L] option 2, [G] neither","key_press":65,"name":"choice","trial_type":"html-keyboard-response","trial_index":197,"time_elapsed":449316,"internal_node_id":"0.0-197.0","subject":"S1C1604","sona":"41424","block":4,"time":"2021-09-05T23:11:27.503Z","response":"1st","certainty":"high","char":"A","transposition":-1,"order":["swapped","shifted"],"probe_pitches":[0,-2,0,8,3,5,8,0,5,3,10,0,-2,5,-2,8],"shifted_pitches":[0,-2,0,8,3,5,8,-1,5,3,10,0,-2,5,-2,8],"swapped_pitches":[0,-2,0,8,3,5,8,5,0,3,10,0,-2,5,-2,8],"shift_direction":-1,"question_num":171,"has_decoy":false},{"rt":3208.400000035763,"stimulus":"[A] option 1, [L] option 2, [G] neither","key_press":65,"name":"choice","trial_type":"html-keyboard-response","trial_index":208,"time_elapsed":475642,"internal_node_id":"0.0-208.0","subject":"S1C1604","sona":"41424","block":4,"time":"2021-09-05T23:11:27.503Z","response":"1st","certainty":"high","char":"A","transposition":-3,"order":["shifted","swapped"],"probe_pitches":[5,8,4,5,2,-1,9,2,6,-1,10,4,5,-1,6,8],"shifted_pitches":[5,8,4,5,2,-1,9,3,6,-1,10,4,5,-1,6,8],"swapped_pitches":[5,8,4,5,2,-1,9,6,2,-1,10,4,5,-1,6,8],"shift_direction":1,"question_num":181,"has_decoy":false},{"rt":270.7999999523163,"stimulus":"[A] option 1, [L] option 2, [G] neither","key_press":76,"name":"choice","trial_type":"html-keyboard-response","trial_index":219,"time_elapsed":500212,"internal_node_id":"0.0-219.0","subject":"S1C1604","sona":"41424","block":4,"time":"2021-09-05T23:11:27.503Z","response":"2nd","certainty":"high","char":"L","transposition":3,"order":["swapped","shifted"],"probe_pitches":[-2,-1,0,8,0,5,-1,-2,6,-1,9,3,4,5,2,4],"shifted_pitches":[-2,-1,0,8,0,5,-1,-2,7,-1,9,3,4,5,2,4],"swapped_pitches":[-2,-1,0,8,0,5,-1,6,-2,-1,9,3,4,5,2,4],"shift_direction":1,"question_num":191,"has_decoy":false}]