[{"rt":1317.3999999761581,"stimulus":"[A] option 1, [L] option 2, [G] neither","key_press":65,"name":"choice","trial_type":"html-keyboard-response","trial_index":10,"time_elapsed":29153,"internal_node_id":"0.0-10.0","subject":"S1C1604","sona":"41424","block":5,"time":"2021-09-05T23:20:00.049Z","response":"1st","certainty":"high","char":"A","transposition":-2,"order":["swapped","shifted"],"probe_pitches":[-1,4,0,6,7,8,9,-3,4,1,-3,5,-1,8,-3,1],"shifted_pitches":[-1,4,0,6,7,8,9,-3,3,1,-3,5,-1,8,-3,1],"swapped_pitches":[-1,4,0,6,7,8,9,4,-3,1,-3,5,-1,8,-3,1],"shift_direction":-1,"question_num":1,"has_decoy":false},{"rt":449,"stimulus":"[A] option 1, [L] option 2, [G] neither","key_press":76,"name":"choice","trial_type":"html-keyboard-response","trial_index":21,"time_elapsed":53047,"internal_node_id":"0.0-21.0","subject":"S1C1604","sona":"41424","block":5,"time":"2021-09-05T23:20:00.049Z","response":"2nd","certainty":"high","char":"L","transposition":-3,"order":["shifted","swapped"],"probe_pitches":[0,2,3,5,3,-3,3,-1,6,8,1,8,6,9,1,9],"shifted_pitches":[0,2,3,5,3,-3,3,-1,7,8,1,8,6,9,1,9],"swapped_pitches":[0,2,3,5,3,-3,3,6,-1,8,1,8,6,9,1,9],"shift_direction":1,"question_num":11,"has_decoy":false},{"rt":2781.5,"stimulus":"[A] option 1, [L] option 2, [G] neither","key_press":65,"name":"choice","trial_type":"html-keyboard-response","trial_index":32,"time_elapsed":80193,"internal_node_id":"0.0-32.0","subject":"S1C1604","sona":"41424","block":5,"time":"2021-09-05T23:20:00.049Z","response":"1st","certainty":"high","char":"A","transposition":-1,"order":["shifted","swapped"],"probe_pitches":[1,-1,6,4,11,6,4,6,1,11,-1,4,8,4,8,-1],"shifted_pitches":[1,-1,6,4,11,6,4,6,2,11,-1,4,8,4,8,-1],"swapped_pitches":[1,-1,6,4,11,6,4,1,6,11,-1,4,8,4,8,-1],"shift_direction":1,"question_num":21,"has_decoy":false},{"rt":2258.699999988079,"stimulus":"[A] option 1, [L] option 2, [G] neither","key_press":65,"name":"choice","trial_type":"html-keyboard-response","trial_index":43,"time_elapsed":105640,"internal_node_id":"0.0-43.0","subject":"S1C1604","sona":"41424","block":5,"time":"2021-09-05T23:20:00.049Z","response":"1st","certainty":"high","char":"A","transposition":2,"order":["shifted","swapped"],"probe_pitches":[1,5,-2,4,6,9,7,-2,-3,0,7,2,1,9,-1,9],"shifted_pitches":[1,5,-2,4,6,9,7,-2,-4,0,7,2,1,9,-1,9],"swapped_pitches":[1,5,-2,4,6,9,7,-3,-2,0,7,2,1,9,-1,9],"shift_direction":-1,"question_num":31,"has_decoy":false},{"rt":2177.800000011921,"stimulus":"[A] option 1, [L] option 2, [G] neither","key_press":76,"name":"choice","trial_type":"html-keyboard-response","trial_index":54,"time_elapsed":130454,"internal_node_id":"0.0-54.0","subject":"S1C1604","sona":"41424","block":5,"time":"2021-09-05T23:20:00.049Z","response":"2nd","certainty":"high","char":"L","transposition":-1,"order":["shifted","swapped"],"probe_pitches":[-1,4,-1,4,11,9,4,6,11,4,11,4,9,4,-1,2],"shifted_pitches":[-1,4,-1,4,11,9,4,6,10,4,11,4,9,4,-1,2],"swapped_pitches":[-1,4,-1,4,11,9,4,11,6,4,11,4,9,4,-1,2],"shift_direction":-1,"question_num":41,"has_decoy":false},{"rt":564.9000000357628,"stimulus":"[A] option 1, [L] option 2, [G] neither","key_press":76,"name":"choice","trial_type":"html-keyboard-response","trial_index":65,"time_elapsed":155484,"internal_node_id":"0.0-65.0","subject":"S1C1604","sona":"41424","block":5,"time":"2021-09-05T23:20:00.049Z","response":"2nd","certainty":"high","char":"L","transposition":1,"order":["shifted","swapped"],"probe_pitches":[11,6,8,3,-1,3,1,3,-1,1,6,8,6,3,-1,11],"shifted_pitches":[11,6,8,3,-1,3,1,3,0,1,6,8,6,3,-1,11],"swapped_pitches":[11,6,8,3,-1,3,1,-1,3,1,6,8,6,3,-1,11],"shift_direction":1,"question_num":51,"has_decoy":false},{"rt":2972.900000035763,"stimulus":"[A] option 1, [L] option 2, [G] neither","key_press":76,"name":"choice","trial_type":"html-keyboard-response","trial_index":76,"time_elapsed":181592,"internal_node_id":"0.0-76.0","subject":"S1C1604","sona":"41424","block":5,"time":"2021-09-05T23:20:00.049Z","response":"2nd","certainty":"high","char":"L","transposition":-1,"order":["shifted","swapped"],"probe_pitches":[1,3,4,-1,-3,3,2,8,-1,7,-2,-1,5,-2,7,5],"shifted_pitches":[1,3,4,-1,-3,3,2,8,0,7,-2,-1,5,-2,7,5],"swapped_pitches":[1,3,4,-1,-3,3,2,-1,8,7,-2,-1,5,-2,7,5],"shift_direction":1,"question_num":61,"has_decoy":false},{"rt":305.69999998807907,"stimulus":"[A] option 1, [L] option 2, [G] neither","key_press":76,"name":"choice","trial_type":"html-keyboard-response","trial_index":87,"time_elapsed":204702,"internal_node_id":"0.0-87.0","subject":"S1C1604","sona":"41424","block":5,"time":"2021-09-05T23:20:00.049Z","response":"2nd","certainty":"high","char":"L","transposition":3,"order":["swapped","shifted"],"probe_pitches":[1,6,1,8,3,11,6,3,1,8,6,1,3,6,11,-1],"shifted_pitches":[1,6,1,8,3,11,6,2,1,8,6,1,3,6,11,-1],"swapped_pitches":[1,6,1,8,3,11,6,1,3,8,6,1,3,6,11,-1],"shift_direction":-1,"question_num":71,"has_decoy":false},{"rt":540.3999999761581,"stimulus":"[A] option 1, [L] option 2, [G] neither","key_press":65,"name":"choice","trial_type":"html-keyboard-response","trial_index":98,"time_elapsed":228695,"internal_node_id":"0.0-98.0","subject":"S1C1604","sona":"41424","block":5,"time":"2021-09-05T23:20:00.049Z","response":"1st","certainty":"high","char":"A","transposition":-3,"order":["shifted","swapped"],"probe_pitches":[8,2,7,0,-2,3,7,4,-3,2,9,-1,7,-3,9,2],"shifted_pitches":[8,2,7,0,-2,3,7,5,-3,2,9,-1,7,-3,9,2],"swapped_pitches":[8,2,7,0,-2,3,7,-3,4,2,9,-1,7,-3,9,2],"shift_direction":1,"question_num":81,"has_decoy":false},{"rt":700.8000000119209,"stimulus":"[A] option 1, [L] option 2, [G] neither","key_press":65,"name":"choice","trial_type":"html-keyboard-response","trial_index":109,"time_elapsed":252561,"internal_node_id":"0.0-109.0","subject":"S1C1604","sona":"41424","block":5,"time":"2021-09-05T23:20:00.049Z","response":"1st","certainty":"high","char":"A","transposition":-2,"order":["swapped","shifted"],"probe_pitches":[0,1,-2,3,-2,-1,3,5,1,-3,2,5,0,2,7,2],"shifted_pitches":[0,1,-2,3,-2,-1,3,4,1,-3,2,5,0,2,7,2],"swapped_pitches":[0,1,-2,3,-2,-1,3,1,5,-3,2,5,0,2,7,2],"shift_direction":-1,"question_num":91,"has_decoy":false},{"rt":3174.600000023842,"stimulus":"[A] option 1, [L] option 2, [G] neither","key_press":65,"name":"choice","trial_type":"html-keyboard-response","trial_index":120,"time_elapsed":278630,"internal_node_id":"0.0-120.0","subject":"S1C1604","sona":"41424","block":5,"time":"2021-09-05T23:20:00.049Z","response":"1st","certainty":"high","char":"A","transposition":-1,"order":["swapped","shifted"],"probe_pitches":[1,7,2,1,2,7,9,0,8,9,0,7,9,0,7,0],"shifted_pitches":[1,7,2,1,2,7,9,-1,8,9,0,7,9,0,7,0],"swapped_pitches":[1,7,2,1,2,7,9,8,0,9,0,7,9,0,7,0],"shift_direction":-1,"question_num":101,"has_decoy":false},{"rt":964.5,"stimulus":"[A] option 1, [L] option 2, [G] neither","key_press":76,"name":"choice","trial_type":"html-keyboard-response","trial_index":131,"time_elapsed":303863,"internal_node_id":"0.0-131.0","subject":"S1C1604","sona":"41424","block":5,"time":"2021-09-05T23:20:00.049Z","response":"2nd","certainty":"high","char":"L","transposition":2,"order":["swapped","shifted"],"probe_pitches":[11,9,6,9,4,-1,4,2,11,-1,9,-1,6,4,-1,4],"shifted_pitches":[11,9,6,9,4,-1,4,1,11,-1,9,-1,6,4,-1,4],"swapped_pitches":[11,9,6,9,4,-1,4,11,2,-1,9,-1,6,4,-1,4],"shift_direction":-1,"question_num":111,"has_decoy":false},{"rt":294.4000000357628,"stimulus":"[A] option 1, [L] option 2, [G] neither","key_press":76,"name":"choice","trial_type":"html-keyboard-response","trial_index":142,"time_elapsed":328693,"internal_node_id":"0.0-142.0","subject":"S1C1604","sona":"41424","block":5,"time":"2021-09-05T23:20:00.049Z","response":"2nd","certainty":"high","char":"L","transposition":-2,"order":["swapped","shifted"],"probe_pitches":[7,9,2,7,2,4,7,2,11,-1,11,4,7,4,2,9],"shifted_pitches":[7,9,2,7,2,4,7,2,12,-1,11,4,7,4,2,9],"swapped_pitches":[7,9,2,7,2,4,7,11,2,-1,11,4,7,4,2,9],"shift_direction":1,"question_num":121,"has_decoy":false},{"rt":3072,"stimulus":"[A] option 1, [L] option 2, [G] neither","key_press":76,"name":"choice","trial_type":"html-keyboard-response","trial_index":153,"time_elapsed":354763,"internal_node_id":"0.0-153.0","subject":"S1C1604","sona":"41424","block":5,"time":"2021-09-05T23:20:00.049Z","response":"2nd","certainty":"high","char":"L","transposition":-3,"order":["swapped","shifted"],"probe_pitches":[11,9,11,6,4,1,4,11,6,-1,1,4,11,4,6,9],"shifted_pitches":[11,9,11,6,4,1,4,10,6,-1,1,4,11,4,6,9],"swapped_pitches":[11,9,11,6,4,1,4,6,11,-1,1,4,11,4,6,9],"shift_direction":-1,"question_num":131,"has_decoy":false},{"rt":2179.899999976158,"stimulus":"[A] option 1, [L] option 2, [G] neither","key_press":65,"name":"choice","trial_type":"html-keyboard-response","trial_index":164,"time_elapsed":381466,"internal_node_id":"0.0-164.0","subject":"S1C1604","sona":"41424","block":5,"time":"2021-09-05T23:20:00.049Z","response":"1st","certainty":"high","char":"A","transposition":1,"order":["swapped","shifted"],"probe_pitches":[7,6,-1,0,8,0,3,0,9,-3,2,3,5,2,7,-1],"shifted_pitches":[7,6,-1,0,8,0,3,1,9,-3,2,3,5,2,7,-1],"swapped_pitches":[7,6,-1,0,8,0,3,9,0,-3,2,3,5,2,7,-1],"shift_direction":1,"question_num":141,"has_decoy":false},{"rt":2200.599999964237,"stimulus":"[A] option 1, [L] option 2, [G] neither","key_press":76,"name":"choice","trial_type":"html-keyboard-response","trial_index":175,"time_elapsed":407171,"internal_node_id":"0.0-175.0","subject":"S1C1604","sona":"41424","block":5,"time":"2021-09-05T23:20:00.049Z","response":"2nd","certainty":"high","char":"L","transposition":0,"order":["swapped","shifted"],"probe_pitches":[8,7,8,6,7,4,5,4,3,9,1,7,1,6,5,8],"shifted_pitches":[8,7,8,6,7,4,5,4,2,9,1,7,1,6,5,8],"swapped_pitches":[8,7,8,6,7,4,5,3,4,9,1,7,1,6,5,8],"shift_direction":-1,"question_num":151,"has_decoy":false},{"rt":2504.100000023842,"stimulus":"[A] option 1, [L] option 2, [G] neither","key_press":65,"name":"choice","trial_type":"html-keyboard-response","trial_index":186,"time_elapsed":432376,"internal_node_id":"0.0-186.0","subject":"S1C1604","sona":"41424","block":5,"time":"2021-09-05T23:20:00.049Z","response":"1st","certainty":"high","char":"A","transposition":-3,"order":["shifted","swapped"],"probe_pitches":[6,11,4,11,6,9,-1,11,9,6,9,11,6,4,1,6],"shifted_pitches":[6,11,4,11,6,9,-1,10,9,6,9,11,6,4,1,6],"swapped_pitches":[6,11,4,11,6,9,-1,9,11,6,9,11,6,4,1,6],"shift_direction":-1,"question_num":161,"has_decoy":false},{"rt":3651.600000023842,"stimulus":"[A] option 1, [L] option 2, [G] neither","key_press":76,"name":"choice","trial_type":"html-keyboard-response","trial_index":197,"time_elapsed":458866,"internal_node_id":"0.0-197.0","subject":"S1C1604","sona":"41424","block":5,"time":"2021-09-05T23:20:00.049Z","response":"2nd","certainty":"high","char":"L","transposition":-2,"order":["swapped","shifted"],"probe_pitches":[8,11,6,11,4,-1,4,-1,11,8,1,8,4,8,1,4],"shifted_pitches":[8,11,6,11,4,-1,4,-1,12,8,1,8,4,8,1,4],"swapped_pitches":[8,11,6,11,4,-1,4,11,-1,8,1,8,4,8,1,4],"shift_direction":1,"question_num":171,"has_decoy":false},{"rt":360.89999997615814,"stimulus":"[A] option 1, [L] option 2, [G] neither","key_press":65,"name":"choice","trial_type":"html-keyboard-response","trial_index":208,"time_elapsed":483036,"internal_node_id":"0.0-208.0","subject":"S1C1604","sona":"41424","block":5,"time":"2021-09-05T23:20:00.049Z","response":"1st","certainty":"high","char":"A","transposition":0,"order":["shifted","swapped"],"probe_pitches":[11,7,4,9,11,2,11,9,-1,11,9,2,11,7,-1,11],"shifted_pitches":[11,7,4,9,11,2,11,10,-1,11,9,2,11,7,-1,11],"swapped_pitches":[11,7,4,9,11,2,11,-1,9,11,9,2,11,7,-1,11],"shift_direction":1,"question_num":181,"has_decoy":false},{"rt":1031.5,"stimulus":"[A] option 1, [L] option 2, [G] neither","key_press":76,"name":"choice","trial_type":"html-keyboard-response","trial_index":219,"time_elapsed":507169,"internal_node_id":"0.0-219.0","subject":"S1C1604","sona":"41424","block":5,"time":"2021-09-05T23:20:00.049Z","response":"2nd","certainty":"high","char":"L","transposition":3,"order":["shifted","swapped"],"probe_pitches":[9,8,4,-1,2,-2,-1,5,9,7,1,7,9,3,2,-3],"shifted_pitches":[9,8,4,-1,2,-2,-1,6,9,7,1,7,9,3,2,-3],"swapped_pitches":[9,8,4,-1,2,-2,-1,9,5,7,1,7,9,3,2,-3],"shift_direction":1,"question_num":191,"has_decoy":false}]