[{"rt":507.3999999985099,"stimulus":"[A] option 1, [L] option 2, [G] neither","key_press":76,"name":"choice","trial_type":"html-keyboard-response","trial_index":10,"time_elapsed":16033,"internal_node_id":"0.0-10.0","subject":"S1C0825","sona":"41488","block":4,"time":"2021-09-17T16:21:13.950Z","response":"2nd","certainty":"high","char":"L","transposition":-3,"order":["swapped","shifted"],"probe_pitches":[8,4,1,7,-2,8,5,0],"shifted_pitches":[8,4,1,6,-2,8,5,0],"swapped_pitches":[8,4,1,-2,7,8,5,0],"shift_direction":-1,"question_num":1,"has_decoy":false},{"rt":533.3000000044703,"stimulus":"[A] option 1, [L] option 2, [G] neither","key_press":76,"name":"choice","trial_type":"html-keyboard-response","trial_index":21,"time_elapsed":31435,"internal_node_id":"0.0-21.0","subject":"S1C0825","sona":"41488","block":4,"time":"2021-09-17T16:21:13.950Z","response":"2nd","certainty":"high","char":"L","transposition":-1,"order":["swapped","shifted"],"probe_pitches":[-2,2,7,10,5,0,2,0],"shifted_pitches":[-2,2,7,10,4,0,2,0],"swapped_pitches":[-2,2,7,5,10,0,2,0],"shift_direction":-1,"question_num":11,"has_decoy":false},{"rt":628.4000000059605,"stimulus":"[A] option 1, [L] option 2, [G] neither","key_press":65,"name":"choice","trial_type":"html-keyboard-response","trial_index":32,"time_elapsed":46436,"internal_node_id":"0.0-32.0","subject":"S1C0825","sona":"41488","block":4,"time":"2021-09-17T16:21:13.950Z","response":"1st","certainty":"high","char":"A","transposition":1,"order":["shifted","swapped"],"probe_pitches":[2,7,8,7,6,0,9,7],"shifted_pitches":[2,7,8,7,5,0,9,7],"swapped_pitches":[2,7,8,6,7,0,9,7],"shift_direction":-1,"question_num":21,"has_decoy":false},{"rt":587.7000000029802,"stimulus":"[A] option 1, [L] option 2, [G] neither","key_press":76,"name":"choice","trial_type":"html-keyboard-response","trial_index":43,"time_elapsed":61440,"internal_node_id":"0.0-43.0","subject":"S1C0825","sona":"41488","block":4,"time":"2021-09-17T16:21:13.950Z","response":"2nd","certainty":"high","char":"L","transposition":3,"order":["shifted","swapped"],"probe_pitches":[6,2,8,2,9,5,0,-2],"shifted_pitches":[6,2,8,3,9,5,0,-2],"swapped_pitches":[6,2,8,9,2,5,0,-2],"shift_direction":1,"question_num":31,"has_decoy":false},{"rt":599.7000000029802,"stimulus":"[A] option 1, [L] option 2, [G] neither","key_press":65,"name":"choice","trial_type":"html-keyboard-response","trial_index":54,"time_elapsed":76593,"internal_node_id":"0.0-54.0","subject":"S1C0825","sona":"41488","block":4,"time":"2021-09-17T16:21:13.950Z","response":"1st","certainty":"high","char":"A","transposition":-3,"order":["swapped","shifted"],"probe_pitches":[3,8,5,8,1,10,1,8],"shifted_pitches":[3,8,5,7,1,10,1,8],"swapped_pitches":[3,8,5,1,8,10,1,8],"shift_direction":-1,"question_num":41,"has_decoy":false},{"rt":429.6000000014901,"stimulus":"[A] option 1, [L] option 2, [G] neither","key_press":65,"name":"choice","trial_type":"html-keyboard-response","trial_index":65,"time_elapsed":91388,"internal_node_id":"0.0-65.0","subject":"S1C0825","sona":"41488","block":4,"time":"2021-09-17T16:21:13.950Z","response":"1st","certainty":"high","char":"A","transposition":-3,"order":["swapped","shifted"],"probe_pitches":[9,3,-2,2,8,9,0,-1],"shifted_pitches":[9,3,-2,2,7,9,0,-1],"swapped_pitches":[9,3,-2,8,2,9,0,-1],"shift_direction":-1,"question_num":51,"has_decoy":false},{"rt":2467.89999999851,"stimulus":"[A] option 1, [L] option 2, [G] neither","key_press":65,"name":"choice","trial_type":"html-keyboard-response","trial_index":76,"time_elapsed":108316,"internal_node_id":"0.0-76.0","subject":"S1C0825","sona":"41488","block":4,"time":"2021-09-17T16:21:13.950Z","response":"1st","certainty":"high","char":"A","transposition":2,"order":["shifted","swapped"],"probe_pitches":[9,8,2,-1,4,-2,7,-3],"shifted_pitches":[9,8,2,0,4,-2,7,-3],"swapped_pitches":[9,8,2,4,-1,-2,7,-3],"shift_direction":1,"question_num":61,"has_decoy":false},{"rt":895.2999999970198,"stimulus":"[A] option 1, [L] option 2, [G] neither","key_press":65,"name":"choice","trial_type":"html-keyboard-response","trial_index":87,"time_elapsed":123639,"internal_node_id":"0.0-87.0","subject":"S1C0825","sona":"41488","block":4,"time":"2021-09-17T16:21:13.950Z","response":"1st","certainty":"high","char":"A","transposition":-2,"order":["shifted","swapped"],"probe_pitches":[3,0,7,0,5,-2,3,10],"shifted_pitches":[3,0,7,1,5,-2,3,10],"swapped_pitches":[3,0,7,5,0,-2,3,10],"shift_direction":1,"question_num":71,"has_decoy":false},{"rt":618.7999999970198,"stimulus":"[A] option 1, [L] option 2, [G] neither","key_press":76,"name":"choice","trial_type":"html-keyboard-response","trial_index":98,"time_elapsed":138802,"internal_node_id":"0.0-98.0","subject":"S1C0825","sona":"41488","block":4,"time":"2021-09-17T16:21:13.950Z","response":"2nd","certainty":"high","char":"L","transposition":-1,"order":["swapped","shifted"],"probe_pitches":[4,5,6,7,4,-2,9,1],"shifted_pitches":[4,5,6,8,4,-2,9,1],"swapped_pitches":[4,5,6,4,7,-2,9,1],"shift_direction":1,"question_num":81,"has_decoy":false},{"rt":493.80000000447035,"stimulus":"[A] option 1, [L] option 2, [G] neither","key_press":65,"name":"choice","trial_type":"html-keyboard-response","trial_index":109,"time_elapsed":155439,"internal_node_id":"0.0-109.0","subject":"S1C0825","sona":"41488","block":4,"time":"2021-09-17T16:21:13.950Z","response":"1st","certainty":"high","char":"A","transposition":-1,"order":["shifted","swapped"],"probe_pitches":[7,3,5,6,-2,2,9,-2],"shifted_pitches":[7,3,5,6,-1,2,9,-2],"swapped_pitches":[7,3,5,-2,6,2,9,-2],"shift_direction":1,"question_num":91,"has_decoy":false},{"rt":534.8999999985099,"stimulus":"[A] option 1, [L] option 2, [G] neither","key_press":65,"name":"choice","trial_type":"html-keyboard-response","trial_index":120,"time_elapsed":170466,"internal_node_id":"0.0-120.0","subject":"S1C0825","sona":"41488","block":4,"time":"2021-09-17T16:21:13.950Z","response":"1st","certainty":"high","char":"A","transposition":-2,"order":["shifted","swapped"],"probe_pitches":[8,3,-2,1,10,6,-2,10],"shifted_pitches":[8,3,-2,1,11,6,-2,10],"swapped_pitches":[8,3,-2,10,1,6,-2,10],"shift_direction":1,"question_num":101,"has_decoy":false},{"rt":780,"stimulus":"[A] option 1, [L] option 2, [G] neither","key_press":65,"name":"choice","trial_type":"html-keyboard-response","trial_index":131,"time_elapsed":186146,"internal_node_id":"0.0-131.0","subject":"S1C0825","sona":"41488","block":4,"time":"2021-09-17T16:21:13.950Z","response":"1st","certainty":"high","char":"A","transposition":3,"order":["shifted","swapped"],"probe_pitches":[-2,3,6,-2,3,8,1,3],"shifted_pitches":[-2,3,6,-1,3,8,1,3],"swapped_pitches":[-2,3,6,3,-2,8,1,3],"shift_direction":1,"question_num":111,"has_decoy":false},{"rt":7801.70000000298,"stimulus":"[A] option 1, [L] option 2, [G] neither","key_press":76,"name":"choice","trial_type":"html-keyboard-response","trial_index":142,"time_elapsed":208361,"internal_node_id":"0.0-142.0","subject":"S1C0825","sona":"41488","block":4,"time":"2021-09-17T16:21:13.950Z","response":"2nd","certainty":"high","char":"L","transposition":1,"order":["swapped","shifted"],"probe_pitches":[0,3,7,3,5,7,10,7],"shifted_pitches":[0,3,7,4,5,7,10,7],"swapped_pitches":[0,3,7,5,3,7,10,7],"shift_direction":1,"question_num":121,"has_decoy":false},{"rt":1982.8000000044703,"stimulus":"[A] option 1, [L] option 2, [G] neither","key_press":65,"name":"choice","trial_type":"html-keyboard-response","trial_index":153,"time_elapsed":225822,"internal_node_id":"0.0-153.0","subject":"S1C0825","sona":"41488","block":4,"time":"2021-09-17T16:21:13.950Z","response":"1st","certainty":"high","char":"A","transposition":-1,"order":["shifted","swapped"],"probe_pitches":[2,-2,0,2,10,5,-2,7],"shifted_pitches":[2,-2,0,2,11,5,-2,7],"swapped_pitches":[2,-2,0,10,2,5,-2,7],"shift_direction":1,"question_num":131,"has_decoy":false},{"rt":577,"stimulus":"[A] option 1, [L] option 2, [G] neither","key_press":65,"name":"choice","trial_type":"html-keyboard-response","trial_index":164,"time_elapsed":240885,"internal_node_id":"0.0-164.0","subject":"S1C0825","sona":"41488","block":4,"time":"2021-09-17T16:21:13.950Z","response":"1st","certainty":"high","char":"A","transposition":-3,"order":["swapped","shifted"],"probe_pitches":[10,8,5,10,3,-2,0,5],"shifted_pitches":[10,8,5,10,2,-2,0,5],"swapped_pitches":[10,8,5,3,10,-2,0,5],"shift_direction":-1,"question_num":141,"has_decoy":false},{"rt":541.3000000044703,"stimulus":"[A] option 1, [L] option 2, [G] neither","key_press":65,"name":"choice","trial_type":"html-keyboard-response","trial_index":175,"time_elapsed":255766,"internal_node_id":"0.0-175.0","subject":"S1C0825","sona":"41488","block":4,"time":"2021-09-17T16:21:13.950Z","response":"1st","certainty":"high","char":"A","transposition":-2,"order":["swapped","shifted"],"probe_pitches":[0,4,5,3,1,4,-1,-3],"shifted_pitches":[0,4,5,2,1,4,-1,-3],"swapped_pitches":[0,4,5,1,3,4,-1,-3],"shift_direction":-1,"question_num":151,"has_decoy":false},{"rt":614.2999999970198,"stimulus":"[A] option 1, [L] option 2, [G] neither","key_press":65,"name":"choice","trial_type":"html-keyboard-response","trial_index":186,"time_elapsed":270702,"internal_node_id":"0.0-186.0","subject":"S1C0825","sona":"41488","block":4,"time":"2021-09-17T16:21:13.950Z","response":"1st","certainty":"high","char":"A","transposition":-2,"order":["shifted","swapped"],"probe_pitches":[-1,5,8,3,2,-3,-1,6],"shifted_pitches":[-1,5,8,3,1,-3,-1,6],"swapped_pitches":[-1,5,8,2,3,-3,-1,6],"shift_direction":-1,"question_num":161,"has_decoy":false},{"rt":502,"stimulus":"[A] option 1, [L] option 2, [G] neither","key_press":65,"name":"choice","trial_type":"html-keyboard-response","trial_index":197,"time_elapsed":286408,"internal_node_id":"0.0-197.0","subject":"S1C0825","sona":"41488","block":4,"time":"2021-09-17T16:21:13.950Z","response":"1st","certainty":"high","char":"A","transposition":0,"order":["swapped","shifted"],"probe_pitches":[8,3,-2,1,3,9,6,5],"shifted_pitches":[8,3,-2,1,4,9,6,5],"swapped_pitches":[8,3,-2,3,1,9,6,5],"shift_direction":1,"question_num":171,"has_decoy":false},{"rt":703.5,"stimulus":"[A] option 1, [L] option 2, [G] neither","key_press":76,"name":"choice","trial_type":"html-keyboard-response","trial_index":208,"time_elapsed":301702,"internal_node_id":"0.0-208.0","subject":"S1C0825","sona":"41488","block":4,"time":"2021-09-17T16:21:13.950Z","response":"2nd","certainty":"high","char":"L","transposition":0,"order":["shifted","swapped"],"probe_pitches":[5,10,3,8,1,5,3,-2],"shifted_pitches":[5,10,3,7,1,5,3,-2],"swapped_pitches":[5,10,3,1,8,5,3,-2],"shift_direction":-1,"question_num":181,"has_decoy":false},{"rt":809.6999999955297,"stimulus":"[A] option 1, [L] option 2, [G] neither","key_press":76,"name":"choice","trial_type":"html-keyboard-response","trial_index":219,"time_elapsed":317184,"internal_node_id":"0.0-219.0","subject":"S1C0825","sona":"41488","block":4,"time":"2021-09-17T16:21:13.950Z","response":"2nd","certainty":"high","char":"L","transposition":2,"order":["swapped","shifted"],"probe_pitches":[0,-2,3,5,0,3,-2,8],"shifted_pitches":[0,-2,3,5,-1,3,-2,8],"swapped_pitches":[0,-2,3,0,5,3,-2,8],"shift_direction":-1,"question_num":191,"has_decoy":false}]