[{"rt":591.3000000044703,"stimulus":"[A] option 1, [L] option 2, [G] neither","key_press":65,"name":"choice","trial_type":"html-keyboard-response","trial_index":10,"time_elapsed":15803,"internal_node_id":"0.0-10.0","subject":"S1C0825","sona":"41488","block":6,"time":"2021-09-17T16:33:34.182Z","response":"1st","certainty":"high","char":"A","transposition":-2,"order":["swapped","shifted"],"probe_pitches":[2,8,9,1,7,8,4,11],"shifted_pitches":[2,8,9,1,6,8,4,11],"swapped_pitches":[2,8,9,7,1,8,4,11],"shift_direction":-1,"question_num":1,"has_decoy":false},{"rt":492.19999999552965,"stimulus":"[A] option 1, [L] option 2, [G] neither","key_press":76,"name":"choice","trial_type":"html-keyboard-response","trial_index":21,"time_elapsed":37484,"internal_node_id":"0.0-21.0","subject":"S1C0825","sona":"41488","block":6,"time":"2021-09-17T16:33:34.182Z","response":"2nd","certainty":"high","char":"L","transposition":-2,"order":["swapped","shifted"],"probe_pitches":[9,4,9,2,-1,-3,7,2],"shifted_pitches":[9,4,9,2,-2,-3,7,2],"swapped_pitches":[9,4,9,-1,2,-3,7,2],"shift_direction":-1,"question_num":11,"has_decoy":false},{"rt":477.5,"stimulus":"[A] option 1, [L] option 2, [G] neither","key_press":65,"name":"choice","trial_type":"html-keyboard-response","trial_index":32,"time_elapsed":53917,"internal_node_id":"0.0-32.0","subject":"S1C0825","sona":"41488","block":6,"time":"2021-09-17T16:33:34.182Z","response":"1st","certainty":"high","char":"A","transposition":-3,"order":["shifted","swapped"],"probe_pitches":[7,9,7,2,-3,-1,7,4],"shifted_pitches":[7,9,7,3,-3,-1,7,4],"swapped_pitches":[7,9,7,-3,2,-1,7,4],"shift_direction":1,"question_num":21,"has_decoy":false},{"rt":677.6000000014901,"stimulus":"[A] option 1, [L] option 2, [G] neither","key_press":76,"name":"choice","trial_type":"html-keyboard-response","trial_index":43,"time_elapsed":69295,"internal_node_id":"0.0-43.0","subject":"S1C0825","sona":"41488","block":6,"time":"2021-09-17T16:33:34.182Z","response":"2nd","certainty":"high","char":"L","transposition":2,"order":["shifted","swapped"],"probe_pitches":[0,5,-1,6,5,0,2,-1],"shifted_pitches":[0,5,-1,7,5,0,2,-1],"swapped_pitches":[0,5,-1,5,6,0,2,-1],"shift_direction":1,"question_num":31,"has_decoy":false},{"rt":749.1000000014901,"stimulus":"[A] option 1, [L] option 2, [G] neither","key_press":76,"name":"choice","trial_type":"html-keyboard-response","trial_index":54,"time_elapsed":84903,"internal_node_id":"0.0-54.0","subject":"S1C0825","sona":"41488","block":6,"time":"2021-09-17T16:33:34.182Z","response":"2nd","certainty":"high","char":"L","transposition":1,"order":["swapped","shifted"],"probe_pitches":[2,4,9,7,2,9,0,2],"shifted_pitches":[2,4,9,7,1,9,0,2],"swapped_pitches":[2,4,9,2,7,9,0,2],"shift_direction":-1,"question_num":41,"has_decoy":false},{"rt":590.1999999955297,"stimulus":"[A] option 1, [L] option 2, [G] neither","key_press":76,"name":"choice","trial_type":"html-keyboard-response","trial_index":65,"time_elapsed":101730,"internal_node_id":"0.0-65.0","subject":"S1C0825","sona":"41488","block":6,"time":"2021-09-17T16:33:34.182Z","response":"2nd","certainty":"high","char":"L","transposition":-2,"order":["swapped","shifted"],"probe_pitches":[7,2,-3,5,2,9,0,-3],"shifted_pitches":[7,2,-3,6,2,9,0,-3],"swapped_pitches":[7,2,-3,2,5,9,0,-3],"shift_direction":1,"question_num":51,"has_decoy":false},{"rt":2321.7999999970198,"stimulus":"[A] option 1, [L] option 2, [G] neither","key_press":76,"name":"choice","trial_type":"html-keyboard-response","trial_index":76,"time_elapsed":122372,"internal_node_id":"0.0-76.0","subject":"S1C0825","sona":"41488","block":6,"time":"2021-09-17T16:33:34.182Z","response":"2nd","certainty":"high","char":"L","transposition":1,"order":["swapped","shifted"],"probe_pitches":[11,10,9,3,2,7,11,5],"shifted_pitches":[11,10,9,4,2,7,11,5],"swapped_pitches":[11,10,9,2,3,7,11,5],"shift_direction":1,"question_num":61,"has_decoy":false},{"rt":898.6000000014901,"stimulus":"[A] option 1, [L] option 2, [G] neither","key_press":65,"name":"choice","trial_type":"html-keyboard-response","trial_index":87,"time_elapsed":137813,"internal_node_id":"0.0-87.0","subject":"S1C0825","sona":"41488","block":6,"time":"2021-09-17T16:33:34.182Z","response":"1st","certainty":"high","char":"A","transposition":-1,"order":["shifted","swapped"],"probe_pitches":[7,4,7,0,2,4,9,0],"shifted_pitches":[7,4,7,1,2,4,9,0],"swapped_pitches":[7,4,7,2,0,4,9,0],"shift_direction":1,"question_num":71,"has_decoy":false},{"rt":804.5,"stimulus":"[A] option 1, [L] option 2, [G] neither","key_press":76,"name":"choice","trial_type":"html-keyboard-response","trial_index":98,"time_elapsed":153516,"internal_node_id":"0.0-98.0","subject":"S1C0825","sona":"41488","block":6,"time":"2021-09-17T16:33:34.182Z","response":"2nd","certainty":"high","char":"L","transposition":-3,"order":["shifted","swapped"],"probe_pitches":[-1,5,0,8,3,7,-1,10],"shifted_pitches":[-1,5,0,8,2,7,-1,10],"swapped_pitches":[-1,5,0,3,8,7,-1,10],"shift_direction":-1,"question_num":81,"has_decoy":false},{"rt":654.3999999985099,"stimulus":"[A] option 1, [L] option 2, [G] neither","key_press":76,"name":"choice","trial_type":"html-keyboard-response","trial_index":109,"time_elapsed":168778,"internal_node_id":"0.0-109.0","subject":"S1C0825","sona":"41488","block":6,"time":"2021-09-17T16:33:34.182Z","response":"2nd","certainty":"high","char":"L","transposition":-2,"order":["shifted","swapped"],"probe_pitches":[9,5,3,11,2,10,4,-1],"shifted_pitches":[9,5,3,11,1,10,4,-1],"swapped_pitches":[9,5,3,2,11,10,4,-1],"shift_direction":-1,"question_num":91,"has_decoy":false},{"rt":655.8999999985099,"stimulus":"[A] option 1, [L] option 2, [G] neither","key_press":76,"name":"choice","trial_type":"html-keyboard-response","trial_index":120,"time_elapsed":187110,"internal_node_id":"0.0-120.0","subject":"S1C0825","sona":"41488","block":6,"time":"2021-09-17T16:33:34.182Z","response":"2nd","certainty":"high","char":"L","transposition":0,"order":["shifted","swapped"],"probe_pitches":[-1,5,1,2,5,-1,8,1],"shifted_pitches":[-1,5,1,3,5,-1,8,1],"swapped_pitches":[-1,5,1,5,2,-1,8,1],"shift_direction":1,"question_num":101,"has_decoy":false},{"rt":613.7999999970198,"stimulus":"[A] option 1, [L] option 2, [G] neither","key_press":65,"name":"choice","trial_type":"html-keyboard-response","trial_index":131,"time_elapsed":202198,"internal_node_id":"0.0-131.0","subject":"S1C0825","sona":"41488","block":6,"time":"2021-09-17T16:33:34.182Z","response":"1st","certainty":"high","char":"A","transposition":-1,"order":["swapped","shifted"],"probe_pitches":[6,2,9,3,7,-1,7,2],"shifted_pitches":[6,2,9,3,8,-1,7,2],"swapped_pitches":[6,2,9,7,3,-1,7,2],"shift_direction":1,"question_num":111,"has_decoy":false},{"rt":523.8999999985099,"stimulus":"[A] option 1, [L] option 2, [G] neither","key_press":76,"name":"choice","trial_type":"html-keyboard-response","trial_index":142,"time_elapsed":217254,"internal_node_id":"0.0-142.0","subject":"S1C0825","sona":"41488","block":6,"time":"2021-09-17T16:33:34.182Z","response":"2nd","certainty":"high","char":"L","transposition":-1,"order":["swapped","shifted"],"probe_pitches":[0,6,7,6,9,8,3,10],"shifted_pitches":[0,6,7,5,9,8,3,10],"swapped_pitches":[0,6,7,9,6,8,3,10],"shift_direction":-1,"question_num":121,"has_decoy":false},{"rt":513,"stimulus":"[A] option 1, [L] option 2, [G] neither","key_press":65,"name":"choice","trial_type":"html-keyboard-response","trial_index":153,"time_elapsed":232123,"internal_node_id":"0.0-153.0","subject":"S1C0825","sona":"41488","block":6,"time":"2021-09-17T16:33:34.182Z","response":"1st","certainty":"high","char":"A","transposition":2,"order":["shifted","swapped"],"probe_pitches":[1,4,6,-1,-3,4,1,-1],"shifted_pitches":[1,4,6,0,-3,4,1,-1],"swapped_pitches":[1,4,6,-3,-1,4,1,-1],"shift_direction":1,"question_num":131,"has_decoy":false},{"rt":967.5,"stimulus":"[A] option 1, [L] option 2, [G] neither","key_press":76,"name":"choice","trial_type":"html-keyboard-response","trial_index":164,"time_elapsed":247425,"internal_node_id":"0.0-164.0","subject":"S1C0825","sona":"41488","block":6,"time":"2021-09-17T16:33:34.182Z","response":"2nd","certainty":"high","char":"L","transposition":3,"order":["shifted","swapped"],"probe_pitches":[9,6,2,9,4,-3,-1,9],"shifted_pitches":[9,6,2,9,3,-3,-1,9],"swapped_pitches":[9,6,2,4,9,-3,-1,9],"shift_direction":-1,"question_num":141,"has_decoy":false},{"rt":664.5,"stimulus":"[A] option 1, [L] option 2, [G] neither","key_press":65,"name":"choice","trial_type":"html-keyboard-response","trial_index":175,"time_elapsed":263367,"internal_node_id":"0.0-175.0","subject":"S1C0825","sona":"41488","block":6,"time":"2021-09-17T16:33:34.182Z","response":"1st","certainty":"high","char":"A","transposition":-3,"order":["swapped","shifted"],"probe_pitches":[-3,1,4,9,1,-1,6,4],"shifted_pitches":[-3,1,4,8,1,-1,6,4],"swapped_pitches":[-3,1,4,1,9,-1,6,4],"shift_direction":-1,"question_num":151,"has_decoy":false},{"rt":1045.3999999985099,"stimulus":"[A] option 1, [L] option 2, [G] neither","key_press":65,"name":"choice","trial_type":"html-keyboard-response","trial_index":186,"time_elapsed":279064,"internal_node_id":"0.0-186.0","subject":"S1C0825","sona":"41488","block":6,"time":"2021-09-17T16:33:34.182Z","response":"1st","certainty":"high","char":"A","transposition":0,"order":["shifted","swapped"],"probe_pitches":[4,2,-1,4,6,2,6,-3],"shifted_pitches":[4,2,-1,4,7,2,6,-3],"swapped_pitches":[4,2,-1,6,4,2,6,-3],"shift_direction":1,"question_num":161,"has_decoy":false},{"rt":534.7999999970198,"stimulus":"[A] option 1, [L] option 2, [G] neither","key_press":76,"name":"choice","trial_type":"html-keyboard-response","trial_index":197,"time_elapsed":294051,"internal_node_id":"0.0-197.0","subject":"S1C0825","sona":"41488","block":6,"time":"2021-09-17T16:33:34.182Z","response":"2nd","certainty":"high","char":"L","transposition":-3,"order":["swapped","shifted"],"probe_pitches":[4,-1,1,5,11,1,6,0],"shifted_pitches":[4,-1,1,5,10,1,6,0],"swapped_pitches":[4,-1,1,11,5,1,6,0],"shift_direction":-1,"question_num":171,"has_decoy":false},{"rt":1103.2999999970198,"stimulus":"[A] option 1, [L] option 2, [G] neither","key_press":65,"name":"choice","trial_type":"html-keyboard-response","trial_index":208,"time_elapsed":309489,"internal_node_id":"0.0-208.0","subject":"S1C0825","sona":"41488","block":6,"time":"2021-09-17T16:33:34.182Z","response":"1st","certainty":"high","char":"A","transposition":3,"order":["shifted","swapped"],"probe_pitches":[7,4,1,8,4,3,11,8],"shifted_pitches":[7,4,1,9,4,3,11,8],"swapped_pitches":[7,4,1,4,8,3,11,8],"shift_direction":1,"question_num":181,"has_decoy":false},{"rt":671.5,"stimulus":"[A] option 1, [L] option 2, [G] neither","key_press":76,"name":"choice","trial_type":"html-keyboard-response","trial_index":219,"time_elapsed":326390,"internal_node_id":"0.0-219.0","subject":"S1C0825","sona":"41488","block":6,"time":"2021-09-17T16:33:34.182Z","response":"2nd","certainty":"high","char":"L","transposition":-1,"order":["swapped","shifted"],"probe_pitches":[5,7,9,5,0,2,0,7],"shifted_pitches":[5,7,9,5,-1,2,0,7],"swapped_pitches":[5,7,9,0,5,2,0,7],"shift_direction":-1,"question_num":191,"has_decoy":false}]