[{"rt":745.7000000029802,"stimulus":"[A] option 1, [L] option 2, [G] neither","key_press":76,"name":"choice","trial_type":"html-keyboard-response","trial_index":10,"time_elapsed":19894,"internal_node_id":"0.0-10.0","subject":"S1C0825","sona":"41488","block":2,"time":"2021-09-17T16:09:55.212Z","response":"2nd","certainty":"high","char":"L","transposition":-1,"order":["shifted","swapped"],"probe_pitches":[4,7,9,4,12,14,7,14],"shifted_pitches":[4,7,9,4,11,14,7,14],"swapped_pitches":[4,7,9,12,4,14,7,14],"shift_direction":-1,"question_num":1,"has_decoy":false},{"rt":520,"stimulus":"[A] option 1, [L] option 2, [G] neither","key_press":65,"name":"choice","trial_type":"html-keyboard-response","trial_index":21,"time_elapsed":34884,"internal_node_id":"0.0-21.0","subject":"S1C0825","sona":"41488","block":2,"time":"2021-09-17T16:09:55.212Z","response":"1st","certainty":"high","char":"A","transposition":0,"order":["swapped","shifted"],"probe_pitches":[2,7,12,9,7,14,12,5],"shifted_pitches":[2,7,12,10,7,14,12,5],"swapped_pitches":[2,7,12,7,9,14,12,5],"shift_direction":1,"question_num":11,"has_decoy":false},{"rt":636.8999999985099,"stimulus":"[A] option 1, [L] option 2, [G] neither","key_press":76,"name":"choice","trial_type":"html-keyboard-response","trial_index":32,"time_elapsed":58445,"internal_node_id":"0.0-32.0","subject":"S1C0825","sona":"41488","block":2,"time":"2021-09-17T16:09:55.212Z","response":"2nd","certainty":"high","char":"L","transposition":-3,"order":["shifted","swapped"],"probe_pitches":[2,8,1,6,2,3,4,3],"shifted_pitches":[2,8,1,7,2,3,4,3],"swapped_pitches":[2,8,1,2,6,3,4,3],"shift_direction":1,"question_num":21,"has_decoy":false},{"rt":489.69999999552965,"stimulus":"[A] option 1, [L] option 2, [G] neither","key_press":76,"name":"choice","trial_type":"html-keyboard-response","trial_index":43,"time_elapsed":75796,"internal_node_id":"0.0-43.0","subject":"S1C0825","sona":"41488","block":2,"time":"2021-09-17T16:09:55.212Z","response":"2nd","certainty":"high","char":"L","transposition":-1,"order":["shifted","swapped"],"probe_pitches":[4,9,6,11,14,9,2,4],"shifted_pitches":[4,9,6,11,15,9,2,4],"swapped_pitches":[4,9,6,14,11,9,2,4],"shift_direction":1,"question_num":31,"has_decoy":false},{"rt":1026.6000000014901,"stimulus":"[A] option 1, [L] option 2, [G] neither","key_press":65,"name":"choice","trial_type":"html-keyboard-response","trial_index":54,"time_elapsed":91468,"internal_node_id":"0.0-54.0","subject":"S1C0825","sona":"41488","block":2,"time":"2021-09-17T16:09:55.212Z","response":"1st","certainty":"high","char":"A","transposition":3,"order":["shifted","swapped"],"probe_pitches":[7,11,7,9,4,14,9,11],"shifted_pitches":[7,11,7,9,5,14,9,11],"swapped_pitches":[7,11,7,4,9,14,9,11],"shift_direction":1,"question_num":41,"has_decoy":false},{"rt":600.3999999985099,"stimulus":"[A] option 1, [L] option 2, [G] neither","key_press":65,"name":"choice","trial_type":"html-keyboard-response","trial_index":65,"time_elapsed":107871,"internal_node_id":"0.0-65.0","subject":"S1C0825","sona":"41488","block":2,"time":"2021-09-17T16:09:55.212Z","response":"1st","certainty":"high","char":"A","transposition":3,"order":["shifted","swapped"],"probe_pitches":[9,6,5,4,2,7,3,0],"shifted_pitches":[9,6,5,4,1,7,3,0],"swapped_pitches":[9,6,5,2,4,7,3,0],"shift_direction":-1,"question_num":51,"has_decoy":false},{"rt":605.8999999985099,"stimulus":"[A] option 1, [L] option 2, [G] neither","key_press":76,"name":"choice","trial_type":"html-keyboard-response","trial_index":76,"time_elapsed":123105,"internal_node_id":"0.0-76.0","subject":"S1C0825","sona":"41488","block":2,"time":"2021-09-17T16:09:55.212Z","response":"2nd","certainty":"high","char":"L","transposition":-2,"order":["swapped","shifted"],"probe_pitches":[4,7,9,12,7,2,4,9],"shifted_pitches":[4,7,9,13,7,2,4,9],"swapped_pitches":[4,7,9,7,12,2,4,9],"shift_direction":1,"question_num":61,"has_decoy":false},{"rt":683,"stimulus":"[A] option 1, [L] option 2, [G] neither","key_press":76,"name":"choice","trial_type":"html-keyboard-response","trial_index":87,"time_elapsed":140840,"internal_node_id":"0.0-87.0","subject":"S1C0825","sona":"41488","block":2,"time":"2021-09-17T16:09:55.212Z","response":"2nd","certainty":"high","char":"L","transposition":2,"order":["swapped","shifted"],"probe_pitches":[7,3,4,-2,6,0,4,5],"shifted_pitches":[7,3,4,-1,6,0,4,5],"swapped_pitches":[7,3,4,6,-2,0,4,5],"shift_direction":1,"question_num":71,"has_decoy":false},{"rt":1476.8999999985099,"stimulus":"[A] option 1, [L] option 2, [G] neither","key_press":76,"name":"choice","trial_type":"html-keyboard-response","trial_index":98,"time_elapsed":156909,"internal_node_id":"0.0-98.0","subject":"S1C0825","sona":"41488","block":2,"time":"2021-09-17T16:09:55.212Z","response":"2nd","certainty":"high","char":"L","transposition":-3,"order":["swapped","shifted"],"probe_pitches":[5,2,9,2,7,12,2,5],"shifted_pitches":[5,2,9,2,6,12,2,5],"swapped_pitches":[5,2,9,7,2,12,2,5],"shift_direction":-1,"question_num":81,"has_decoy":false},{"rt":784.8000000044703,"stimulus":"[A] option 1, [L] option 2, [G] neither","key_press":65,"name":"choice","trial_type":"html-keyboard-response","trial_index":109,"time_elapsed":173784,"internal_node_id":"0.0-109.0","subject":"S1C0825","sona":"41488","block":2,"time":"2021-09-17T16:09:55.212Z","response":"1st","certainty":"high","char":"A","transposition":-2,"order":["shifted","swapped"],"probe_pitches":[6,9,7,4,1,8,-3,1],"shifted_pitches":[6,9,7,5,1,8,-3,1],"swapped_pitches":[6,9,7,1,4,8,-3,1],"shift_direction":1,"question_num":91,"has_decoy":false},{"rt":482.1000000014901,"stimulus":"[A] option 1, [L] option 2, [G] neither","key_press":76,"name":"choice","trial_type":"html-keyboard-response","trial_index":120,"time_elapsed":189795,"internal_node_id":"0.0-120.0","subject":"S1C0825","sona":"41488","block":2,"time":"2021-09-17T16:09:55.212Z","response":"2nd","certainty":"high","char":"L","transposition":-2,"order":["shifted","swapped"],"probe_pitches":[3,0,-1,7,3,4,2,-3],"shifted_pitches":[3,0,-1,6,3,4,2,-3],"swapped_pitches":[3,0,-1,3,7,4,2,-3],"shift_direction":-1,"question_num":101,"has_decoy":false},{"rt":515.6999999955297,"stimulus":"[A] option 1, [L] option 2, [G] neither","key_press":76,"name":"choice","trial_type":"html-keyboard-response","trial_index":131,"time_elapsed":205497,"internal_node_id":"0.0-131.0","subject":"S1C0825","sona":"41488","block":2,"time":"2021-09-17T16:09:55.212Z","response":"2nd","certainty":"high","char":"L","transposition":1,"order":["swapped","shifted"],"probe_pitches":[5,7,1,7,4,-3,6,-1],"shifted_pitches":[5,7,1,7,3,-3,6,-1],"swapped_pitches":[5,7,1,4,7,-3,6,-1],"shift_direction":-1,"question_num":111,"has_decoy":false},{"rt":478.29999999701977,"stimulus":"[A] option 1, [L] option 2, [G] neither","key_press":76,"name":"choice","trial_type":"html-keyboard-response","trial_index":142,"time_elapsed":220750,"internal_node_id":"0.0-142.0","subject":"S1C0825","sona":"41488","block":2,"time":"2021-09-17T16:09:55.212Z","response":"2nd","certainty":"high","char":"L","transposition":2,"order":["swapped","shifted"],"probe_pitches":[14,11,14,9,4,14,6,14],"shifted_pitches":[14,11,14,8,4,14,6,14],"swapped_pitches":[14,11,14,4,9,14,6,14],"shift_direction":-1,"question_num":121,"has_decoy":false},{"rt":599,"stimulus":"[A] option 1, [L] option 2, [G] neither","key_press":76,"name":"choice","trial_type":"html-keyboard-response","trial_index":153,"time_elapsed":236006,"internal_node_id":"0.0-153.0","subject":"S1C0825","sona":"41488","block":2,"time":"2021-09-17T16:09:55.212Z","response":"2nd","certainty":"high","char":"L","transposition":1,"order":["shifted","swapped"],"probe_pitches":[2,5,2,5,12,2,7,10],"shifted_pitches":[2,5,2,6,12,2,7,10],"swapped_pitches":[2,5,2,12,5,2,7,10],"shift_direction":1,"question_num":131,"has_decoy":false},{"rt":680.2999999970198,"stimulus":"[A] option 1, [L] option 2, [G] neither","key_press":65,"name":"choice","trial_type":"html-keyboard-response","trial_index":164,"time_elapsed":251063,"internal_node_id":"0.0-164.0","subject":"S1C0825","sona":"41488","block":2,"time":"2021-09-17T16:09:55.212Z","response":"1st","certainty":"high","char":"A","transposition":-1,"order":["swapped","shifted"],"probe_pitches":[3,4,3,9,1,0,6,-3],"shifted_pitches":[3,4,3,9,2,0,6,-3],"swapped_pitches":[3,4,3,1,9,0,6,-3],"shift_direction":1,"question_num":141,"has_decoy":false},{"rt":649.1000000014901,"stimulus":"[A] option 1, [L] option 2, [G] neither","key_press":76,"name":"choice","trial_type":"html-keyboard-response","trial_index":175,"time_elapsed":266130,"internal_node_id":"0.0-175.0","subject":"S1C0825","sona":"41488","block":2,"time":"2021-09-17T16:09:55.212Z","response":"2nd","certainty":"high","char":"L","transposition":0,"order":["shifted","swapped"],"probe_pitches":[7,4,-1,0,-3,1,7,-2],"shifted_pitches":[7,4,-1,0,-4,1,7,-2],"swapped_pitches":[7,4,-1,-3,0,1,7,-2],"shift_direction":-1,"question_num":151,"has_decoy":false},{"rt":632.1999999955297,"stimulus":"[A] option 1, [L] option 2, [G] neither","key_press":76,"name":"choice","trial_type":"html-keyboard-response","trial_index":186,"time_elapsed":281750,"internal_node_id":"0.0-186.0","subject":"S1C0825","sona":"41488","block":2,"time":"2021-09-17T16:09:55.212Z","response":"2nd","certainty":"high","char":"L","transposition":-3,"order":["swapped","shifted"],"probe_pitches":[5,2,8,5,-2,8,1,6],"shifted_pitches":[5,2,8,4,-2,8,1,6],"swapped_pitches":[5,2,8,-2,5,8,1,6],"shift_direction":-1,"question_num":161,"has_decoy":false},{"rt":482.1000000014901,"stimulus":"[A] option 1, [L] option 2, [G] neither","key_press":76,"name":"choice","trial_type":"html-keyboard-response","trial_index":197,"time_elapsed":296736,"internal_node_id":"0.0-197.0","subject":"S1C0825","sona":"41488","block":2,"time":"2021-09-17T16:09:55.212Z","response":"2nd","certainty":"high","char":"L","transposition":-1,"order":["swapped","shifted"],"probe_pitches":[-2,2,6,2,-1,9,-2,3],"shifted_pitches":[-2,2,6,2,0,9,-2,3],"swapped_pitches":[-2,2,6,-1,2,9,-2,3],"shift_direction":1,"question_num":171,"has_decoy":false},{"rt":1343.3000000044703,"stimulus":"[A] option 1, [L] option 2, [G] neither","key_press":65,"name":"choice","trial_type":"html-keyboard-response","trial_index":208,"time_elapsed":312493,"internal_node_id":"0.0-208.0","subject":"S1C0825","sona":"41488","block":2,"time":"2021-09-17T16:09:55.212Z","response":"1st","certainty":"high","char":"A","transposition":-3,"order":["shifted","swapped"],"probe_pitches":[9,7,9,11,14,4,11,2],"shifted_pitches":[9,7,9,10,14,4,11,2],"swapped_pitches":[9,7,9,14,11,4,11,2],"shift_direction":-1,"question_num":181,"has_decoy":false},{"rt":785.2999999970198,"stimulus":"[A] option 1, [L] option 2, [G] neither","key_press":76,"name":"choice","trial_type":"html-keyboard-response","trial_index":219,"time_elapsed":327774,"internal_node_id":"0.0-219.0","subject":"S1C0825","sona":"41488","block":2,"time":"2021-09-17T16:09:55.212Z","response":"2nd","certainty":"high","char":"L","transposition":-2,"order":["swapped","shifted"],"probe_pitches":[12,10,7,5,10,14,10,7],"shifted_pitches":[12,10,7,5,9,14,10,7],"swapped_pitches":[12,10,7,10,5,14,10,7],"shift_direction":-1,"question_num":191,"has_decoy":false}]