[{"rt":20132.59999999404,"stimulus":"[A] option 1, [L] option 2, [G] neither","key_press":76,"name":"choice","trial_type":"html-keyboard-response","trial_index":15,"time_elapsed":103945,"internal_node_id":"0.0-15.0","response":"2nd","certainty":"high","char":"L","transposition":-3,"order":["swapped","shifted"],"probe_pitches":[3,6,12,6,11,10,9,4],"shifted_pitches":[3,6,12,5,11,10,9,4],"swapped_pitches":[3,6,12,11,6,10,9,4],"shift_direction":-1,"question_num":1,"has_decoy":false,"subject":"S1C0825","sona":"41488","block":1,"time":"2021-09-17T16:04:13.075Z"},{"rt":3453.2000000029802,"stimulus":"[A] option 1, [L] option 2, [G] neither","key_press":65,"name":"choice","trial_type":"html-keyboard-response","trial_index":26,"time_elapsed":123611,"internal_node_id":"0.0-26.0","response":"1st","certainty":"high","char":"A","transposition":-2,"order":["swapped","shifted"],"probe_pitches":[6,7,5,6,10,7,14,10],"shifted_pitches":[6,7,5,6,9,7,14,10],"swapped_pitches":[6,7,5,10,6,7,14,10],"shift_direction":-1,"question_num":11,"has_decoy":false,"subject":"S1C0825","sona":"41488","block":1,"time":"2021-09-17T16:04:13.075Z"},{"rt":1891.3999999985099,"stimulus":"[A] option 1, [L] option 2, [G] neither","key_press":76,"name":"choice","trial_type":"html-keyboard-response","trial_index":37,"time_elapsed":140950,"internal_node_id":"0.0-37.0","response":"2nd","certainty":"high","char":"L","transposition":1,"order":["swapped","shifted"],"probe_pitches":[15,14,11,9,7,15,11,13],"shifted_pitches":[15,14,11,9,6,15,11,13],"swapped_pitches":[15,14,11,7,9,15,11,13],"shift_direction":-1,"question_num":21,"has_decoy":false,"subject":"S1C0825","sona":"41488","block":1,"time":"2021-09-17T16:04:13.075Z"},{"rt":1338.6000000014901,"stimulus":"[A] option 1, [L] option 2, [G] neither","key_press":76,"name":"choice","trial_type":"html-keyboard-response","trial_index":48,"time_elapsed":157714,"internal_node_id":"0.0-48.0","response":"2nd","certainty":"high","char":"L","transposition":-2,"order":["shifted","swapped"],"probe_pitches":[0,3,5,7,3,0,10,7],"shifted_pitches":[0,3,5,7,2,0,10,7],"swapped_pitches":[0,3,5,3,7,0,10,7],"shift_direction":-1,"question_num":31,"has_decoy":false,"subject":"S1C0825","sona":"41488","block":1,"time":"2021-09-17T16:04:13.075Z"},{"rt":772.5999999940395,"stimulus":"[A] option 1, [L] option 2, [G] neither","key_press":65,"name":"choice","trial_type":"html-keyboard-response","trial_index":59,"time_elapsed":173254,"internal_node_id":"0.0-59.0","response":"1st","certainty":"high","char":"A","transposition":-3,"order":["shifted","swapped"],"probe_pitches":[4,9,2,9,7,12,7,0],"shifted_pitches":[4,9,2,9,8,12,7,0],"swapped_pitches":[4,9,2,7,9,12,7,0],"shift_direction":1,"question_num":41,"has_decoy":false,"subject":"S1C0825","sona":"41488","block":1,"time":"2021-09-17T16:04:13.075Z"},{"rt":1908.7000000029802,"stimulus":"[A] option 1, [L] option 2, [G] neither","key_press":65,"name":"choice","trial_type":"html-keyboard-response","trial_index":70,"time_elapsed":191235,"internal_node_id":"0.0-70.0","response":"1st","certainty":"high","char":"A","transposition":-2,"order":["shifted","swapped"],"probe_pitches":[3,7,5,12,7,10,3,5],"shifted_pitches":[3,7,5,12,6,10,3,5],"swapped_pitches":[3,7,5,7,12,10,3,5],"shift_direction":-1,"question_num":51,"has_decoy":false,"subject":"S1C0825","sona":"41488","block":1,"time":"2021-09-17T16:04:13.075Z"},{"rt":909.5,"stimulus":"[A] option 1, [L] option 2, [G] neither","key_press":65,"name":"choice","trial_type":"html-keyboard-response","trial_index":81,"time_elapsed":207784,"internal_node_id":"0.0-81.0","response":"1st","certainty":"high","char":"A","transposition":-1,"order":["swapped","shifted"],"probe_pitches":[14,15,13,14,11,15,11,7],"shifted_pitches":[14,15,13,14,10,15,11,7],"swapped_pitches":[14,15,13,11,14,15,11,7],"shift_direction":-1,"question_num":61,"has_decoy":false,"subject":"S1C0825","sona":"41488","block":1,"time":"2021-09-17T16:04:13.075Z"},{"rt":4905.89999999851,"stimulus":"[A] option 1, [L] option 2, [G] neither","key_press":65,"name":"choice","trial_type":"html-keyboard-response","trial_index":92,"time_elapsed":227386,"internal_node_id":"0.0-92.0","response":"1st","certainty":"high","char":"A","transposition":1,"order":["swapped","shifted"],"probe_pitches":[2,5,12,7,10,12,5,0],"shifted_pitches":[2,5,12,7,9,12,5,0],"swapped_pitches":[2,5,12,10,7,12,5,0],"shift_direction":-1,"question_num":71,"has_decoy":false,"subject":"S1C0825","sona":"41488","block":1,"time":"2021-09-17T16:04:13.075Z"},{"rt":2659,"stimulus":"[A] option 1, [L] option 2, [G] neither","key_press":65,"name":"choice","trial_type":"html-keyboard-response","trial_index":103,"time_elapsed":246007,"internal_node_id":"0.0-103.0","response":"1st","certainty":"high","char":"A","transposition":2,"order":["shifted","swapped"],"probe_pitches":[15,11,9,12,6,8,11,15],"shifted_pitches":[15,11,9,13,6,8,11,15],"swapped_pitches":[15,11,9,6,12,8,11,15],"shift_direction":1,"question_num":81,"has_decoy":false,"subject":"S1C0825","sona":"41488","block":1,"time":"2021-09-17T16:04:13.075Z"},{"rt":2386.60000000149,"stimulus":"[A] option 1, [L] option 2, [G] neither","key_press":76,"name":"choice","trial_type":"html-keyboard-response","trial_index":114,"time_elapsed":263137,"internal_node_id":"0.0-114.0","response":"2nd","certainty":"high","char":"L","transposition":-1,"order":["shifted","swapped"],"probe_pitches":[15,9,8,15,6,12,11,6],"shifted_pitches":[15,9,8,15,7,12,11,6],"swapped_pitches":[15,9,8,6,15,12,11,6],"shift_direction":1,"question_num":91,"has_decoy":false,"subject":"S1C0825","sona":"41488","block":1,"time":"2021-09-17T16:04:13.075Z"},{"rt":689,"stimulus":"[A] option 1, [L] option 2, [G] neither","key_press":65,"name":"choice","trial_type":"html-keyboard-response","trial_index":125,"time_elapsed":278591,"internal_node_id":"0.0-125.0","response":"1st","certainty":"high","char":"A","transposition":0,"order":["swapped","shifted"],"probe_pitches":[13,9,5,12,13,9,10,14],"shifted_pitches":[13,9,5,11,13,9,10,14],"swapped_pitches":[13,9,5,13,12,9,10,14],"shift_direction":-1,"question_num":101,"has_decoy":false,"subject":"S1C0825","sona":"41488","block":1,"time":"2021-09-17T16:04:13.075Z"},{"rt":718.3999999985099,"stimulus":"[A] option 1, [L] option 2, [G] neither","key_press":76,"name":"choice","trial_type":"html-keyboard-response","trial_index":136,"time_elapsed":294668,"internal_node_id":"0.0-136.0","response":"2nd","certainty":"high","char":"L","transposition":3,"order":["shifted","swapped"],"probe_pitches":[14,13,14,11,15,13,5,7],"shifted_pitches":[14,13,14,12,15,13,5,7],"swapped_pitches":[14,13,14,15,11,13,5,7],"shift_direction":1,"question_num":111,"has_decoy":false,"subject":"S1C0825","sona":"41488","block":1,"time":"2021-09-17T16:04:13.075Z"},{"rt":1317,"stimulus":"[A] option 1, [L] option 2, [G] neither","key_press":76,"name":"choice","trial_type":"html-keyboard-response","trial_index":147,"time_elapsed":310604,"internal_node_id":"0.0-147.0","response":"2nd","certainty":"high","char":"L","transposition":-1,"order":["shifted","swapped"],"probe_pitches":[3,5,8,10,3,0,3,5],"shifted_pitches":[3,5,8,11,3,0,3,5],"swapped_pitches":[3,5,8,3,10,0,3,5],"shift_direction":1,"question_num":121,"has_decoy":false,"subject":"S1C0825","sona":"41488","block":1,"time":"2021-09-17T16:04:13.075Z"},{"rt":6839.60000000149,"stimulus":"[A] option 1, [L] option 2, [G] neither","key_press":76,"name":"choice","trial_type":"html-keyboard-response","trial_index":158,"time_elapsed":332580,"internal_node_id":"0.0-158.0","response":"2nd","certainty":"high","char":"L","transposition":2,"order":["swapped","shifted"],"probe_pitches":[2,7,9,12,5,2,5,12],"shifted_pitches":[2,7,9,13,5,2,5,12],"swapped_pitches":[2,7,9,5,12,2,5,12],"shift_direction":1,"question_num":131,"has_decoy":false,"subject":"S1C0825","sona":"41488","block":1,"time":"2021-09-17T16:04:13.075Z"},{"rt":669.8000000044703,"stimulus":"[A] option 1, [L] option 2, [G] neither","key_press":65,"name":"choice","trial_type":"html-keyboard-response","trial_index":169,"time_elapsed":350927,"internal_node_id":"0.0-169.0","response":"1st","certainty":"high","char":"A","transposition":-3,"order":["shifted","swapped"],"probe_pitches":[13,12,6,11,7,4,6,14],"shifted_pitches":[13,12,6,11,8,4,6,14],"swapped_pitches":[13,12,6,7,11,4,6,14],"shift_direction":1,"question_num":141,"has_decoy":false,"subject":"S1C0825","sona":"41488","block":1,"time":"2021-09-17T16:04:13.075Z"},{"rt":1323,"stimulus":"[A] option 1, [L] option 2, [G] neither","key_press":76,"name":"choice","trial_type":"html-keyboard-response","trial_index":180,"time_elapsed":366454,"internal_node_id":"0.0-180.0","response":"2nd","certainty":"high","char":"L","transposition":3,"order":["swapped","shifted"],"probe_pitches":[7,10,7,10,2,12,5,12],"shifted_pitches":[7,10,7,9,2,12,5,12],"swapped_pitches":[7,10,7,2,10,12,5,12],"shift_direction":-1,"question_num":151,"has_decoy":false,"subject":"S1C0825","sona":"41488","block":1,"time":"2021-09-17T16:04:13.075Z"},{"rt":1137.2000000029802,"stimulus":"[A] option 1, [L] option 2, [G] neither","key_press":65,"name":"choice","trial_type":"html-keyboard-response","trial_index":191,"time_elapsed":382993,"internal_node_id":"0.0-191.0","response":"1st","certainty":"high","char":"A","transposition":-2,"order":["shifted","swapped"],"probe_pitches":[10,12,15,13,8,3,6,8],"shifted_pitches":[10,12,15,14,8,3,6,8],"swapped_pitches":[10,12,15,8,13,3,6,8],"shift_direction":1,"question_num":161,"has_decoy":false,"subject":"S1C0825","sona":"41488","block":1,"time":"2021-09-17T16:04:13.075Z"},{"rt":13904.29999999702,"stimulus":"[A] option 1, [L] option 2, [G] neither","key_press":76,"name":"choice","trial_type":"html-keyboard-response","trial_index":202,"time_elapsed":418623,"internal_node_id":"0.0-202.0","response":"2nd","certainty":"high","char":"L","transposition":0,"order":["swapped","shifted"],"probe_pitches":[12,8,5,12,10,0,8,3],"shifted_pitches":[12,8,5,12,11,0,8,3],"swapped_pitches":[12,8,5,10,12,0,8,3],"shift_direction":1,"question_num":171,"has_decoy":false,"subject":"S1C0825","sona":"41488","block":1,"time":"2021-09-17T16:04:13.075Z"},{"rt":511,"stimulus":"[A] option 1, [L] option 2, [G] neither","key_press":76,"name":"choice","trial_type":"html-keyboard-response","trial_index":213,"time_elapsed":441085,"internal_node_id":"0.0-213.0","response":"2nd","certainty":"high","char":"L","transposition":-3,"order":["swapped","shifted"],"probe_pitches":[2,7,2,7,9,12,7,5],"shifted_pitches":[2,7,2,8,9,12,7,5],"swapped_pitches":[2,7,2,9,7,12,7,5],"shift_direction":1,"question_num":181,"has_decoy":false,"subject":"S1C0825","sona":"41488","block":1,"time":"2021-09-17T16:04:13.075Z"},{"rt":769.8000000044703,"stimulus":"[A] option 1, [L] option 2, [G] neither","key_press":76,"name":"choice","trial_type":"html-keyboard-response","trial_index":224,"time_elapsed":456527,"internal_node_id":"0.0-224.0","response":"2nd","certainty":"high","char":"L","transposition":-1,"order":["shifted","swapped"],"probe_pitches":[12,7,12,9,7,2,4,7],"shifted_pitches":[12,7,12,8,7,2,4,7],"swapped_pitches":[12,7,12,7,9,2,4,7],"shift_direction":-1,"question_num":191,"has_decoy":false,"subject":"S1C0825","sona":"41488","block":1,"time":"2021-09-17T16:04:13.075Z"}]