[{"rt":824.5,"stimulus":"[A] option 1, [L] option 2, [G] neither","key_press":76,"name":"choice","trial_type":"html-keyboard-response","trial_index":10,"time_elapsed":16208,"internal_node_id":"0.0-10.0","subject":"S1C0825","sona":"41488","block":5,"time":"2021-09-17T16:27:43.572Z","response":"2nd","certainty":"high","char":"L","transposition":1,"order":["swapped","shifted"],"probe_pitches":[13,11,4,11,3,13,8,6],"shifted_pitches":[13,11,4,10,3,13,8,6],"swapped_pitches":[13,11,4,3,11,13,8,6],"shift_direction":-1,"question_num":1,"has_decoy":false},{"rt":605,"stimulus":"[A] option 1, [L] option 2, [G] neither","key_press":65,"name":"choice","trial_type":"html-keyboard-response","trial_index":21,"time_elapsed":31956,"internal_node_id":"0.0-21.0","subject":"S1C0825","sona":"41488","block":5,"time":"2021-09-17T16:27:43.572Z","response":"1st","certainty":"high","char":"A","transposition":-2,"order":["swapped","shifted"],"probe_pitches":[7,5,10,5,3,0,-2,7],"shifted_pitches":[7,5,10,6,3,0,-2,7],"swapped_pitches":[7,5,10,3,5,0,-2,7],"shift_direction":1,"question_num":11,"has_decoy":false},{"rt":686.7000000029802,"stimulus":"[A] option 1, [L] option 2, [G] neither","key_press":65,"name":"choice","trial_type":"html-keyboard-response","trial_index":32,"time_elapsed":47056,"internal_node_id":"0.0-32.0","subject":"S1C0825","sona":"41488","block":5,"time":"2021-09-17T16:27:43.572Z","response":"1st","certainty":"high","char":"A","transposition":-2,"order":["swapped","shifted"],"probe_pitches":[13,10,8,4,12,7,13,4],"shifted_pitches":[13,10,8,4,11,7,13,4],"swapped_pitches":[13,10,8,12,4,7,13,4],"shift_direction":-1,"question_num":21,"has_decoy":false},{"rt":528.6000000014901,"stimulus":"[A] option 1, [L] option 2, [G] neither","key_press":65,"name":"choice","trial_type":"html-keyboard-response","trial_index":43,"time_elapsed":62332,"internal_node_id":"0.0-43.0","subject":"S1C0825","sona":"41488","block":5,"time":"2021-09-17T16:27:43.572Z","response":"1st","certainty":"high","char":"A","transposition":-2,"order":["shifted","swapped"],"probe_pitches":[10,8,10,8,1,3,5,3],"shifted_pitches":[10,8,10,8,2,3,5,3],"swapped_pitches":[10,8,10,1,8,3,5,3],"shift_direction":1,"question_num":31,"has_decoy":false},{"rt":475.8999999985099,"stimulus":"[A] option 1, [L] option 2, [G] neither","key_press":65,"name":"choice","trial_type":"html-keyboard-response","trial_index":54,"time_elapsed":78705,"internal_node_id":"0.0-54.0","subject":"S1C0825","sona":"41488","block":5,"time":"2021-09-17T16:27:43.572Z","response":"1st","certainty":"high","char":"A","transposition":-3,"order":["shifted","swapped"],"probe_pitches":[10,6,10,8,1,3,-2,3],"shifted_pitches":[10,6,10,7,1,3,-2,3],"swapped_pitches":[10,6,10,1,8,3,-2,3],"shift_direction":-1,"question_num":41,"has_decoy":false},{"rt":1013.6000000014901,"stimulus":"[A] option 1, [L] option 2, [G] neither","key_press":65,"name":"choice","trial_type":"html-keyboard-response","trial_index":65,"time_elapsed":94149,"internal_node_id":"0.0-65.0","subject":"S1C0825","sona":"41488","block":5,"time":"2021-09-17T16:27:43.572Z","response":"1st","certainty":"high","char":"A","transposition":0,"order":["shifted","swapped"],"probe_pitches":[8,9,4,2,6,7,2,5],"shifted_pitches":[8,9,4,3,6,7,2,5],"swapped_pitches":[8,9,4,6,2,7,2,5],"shift_direction":1,"question_num":51,"has_decoy":false},{"rt":551.7000000029802,"stimulus":"[A] option 1, [L] option 2, [G] neither","key_press":65,"name":"choice","trial_type":"html-keyboard-response","trial_index":76,"time_elapsed":109052,"internal_node_id":"0.0-76.0","subject":"S1C0825","sona":"41488","block":5,"time":"2021-09-17T16:27:43.572Z","response":"1st","certainty":"high","char":"A","transposition":1,"order":["shifted","swapped"],"probe_pitches":[10,6,3,10,8,6,8,1],"shifted_pitches":[10,6,3,10,7,6,8,1],"swapped_pitches":[10,6,3,8,10,6,8,1],"shift_direction":-1,"question_num":61,"has_decoy":false},{"rt":691.7000000029802,"stimulus":"[A] option 1, [L] option 2, [G] neither","key_press":76,"name":"choice","trial_type":"html-keyboard-response","trial_index":87,"time_elapsed":124145,"internal_node_id":"0.0-87.0","subject":"S1C0825","sona":"41488","block":5,"time":"2021-09-17T16:27:43.572Z","response":"2nd","certainty":"high","char":"L","transposition":-1,"order":["swapped","shifted"],"probe_pitches":[-2,0,3,5,0,3,-2,8],"shifted_pitches":[-2,0,3,4,0,3,-2,8],"swapped_pitches":[-2,0,3,0,5,3,-2,8],"shift_direction":-1,"question_num":71,"has_decoy":false},{"rt":2634.0999999940395,"stimulus":"[A] option 1, [L] option 2, [G] neither","key_press":65,"name":"choice","trial_type":"html-keyboard-response","trial_index":98,"time_elapsed":141126,"internal_node_id":"0.0-98.0","subject":"S1C0825","sona":"41488","block":5,"time":"2021-09-17T16:27:43.572Z","response":"1st","certainty":"high","char":"A","transposition":3,"order":["shifted","swapped"],"probe_pitches":[-2,3,5,7,3,5,3,0],"shifted_pitches":[-2,3,5,7,4,5,3,0],"swapped_pitches":[-2,3,5,3,7,5,3,0],"shift_direction":1,"question_num":81,"has_decoy":false},{"rt":598.2000000029802,"stimulus":"[A] option 1, [L] option 2, [G] neither","key_press":76,"name":"choice","trial_type":"html-keyboard-response","trial_index":109,"time_elapsed":201917,"internal_node_id":"0.0-109.0","subject":"S1C0825","sona":"41488","block":5,"time":"2021-09-17T16:27:43.572Z","response":"2nd","certainty":"high","char":"L","transposition":-2,"order":["shifted","swapped"],"probe_pitches":[3,2,7,5,11,3,2,3],"shifted_pitches":[3,2,7,5,12,3,2,3],"swapped_pitches":[3,2,7,11,5,3,2,3],"shift_direction":1,"question_num":91,"has_decoy":false},{"rt":900.1000000014901,"stimulus":"[A] option 1, [L] option 2, [G] neither","key_press":65,"name":"choice","trial_type":"html-keyboard-response","trial_index":120,"time_elapsed":219578,"internal_node_id":"0.0-120.0","subject":"S1C0825","sona":"41488","block":5,"time":"2021-09-17T16:27:43.572Z","response":"1st","certainty":"high","char":"A","transposition":-1,"order":["shifted","swapped"],"probe_pitches":[10,12,7,9,12,3,10,13],"shifted_pitches":[10,12,7,8,12,3,10,13],"swapped_pitches":[10,12,7,12,9,3,10,13],"shift_direction":-1,"question_num":101,"has_decoy":false},{"rt":536.3000000044703,"stimulus":"[A] option 1, [L] option 2, [G] neither","key_press":65,"name":"choice","trial_type":"html-keyboard-response","trial_index":131,"time_elapsed":235865,"internal_node_id":"0.0-131.0","subject":"S1C0825","sona":"41488","block":5,"time":"2021-09-17T16:27:43.572Z","response":"1st","certainty":"high","char":"A","transposition":3,"order":["swapped","shifted"],"probe_pitches":[1,6,11,8,1,5,6,5],"shifted_pitches":[1,6,11,9,1,5,6,5],"swapped_pitches":[1,6,11,1,8,5,6,5],"shift_direction":1,"question_num":111,"has_decoy":false},{"rt":676.3999999985099,"stimulus":"[A] option 1, [L] option 2, [G] neither","key_press":65,"name":"choice","trial_type":"html-keyboard-response","trial_index":142,"time_elapsed":251081,"internal_node_id":"0.0-142.0","subject":"S1C0825","sona":"41488","block":5,"time":"2021-09-17T16:27:43.572Z","response":"1st","certainty":"high","char":"A","transposition":-3,"order":["shifted","swapped"],"probe_pitches":[8,10,11,6,5,9,2,11],"shifted_pitches":[8,10,11,6,4,9,2,11],"swapped_pitches":[8,10,11,5,6,9,2,11],"shift_direction":-1,"question_num":121,"has_decoy":false},{"rt":737.8000000044703,"stimulus":"[A] option 1, [L] option 2, [G] neither","key_press":65,"name":"choice","trial_type":"html-keyboard-response","trial_index":153,"time_elapsed":266449,"internal_node_id":"0.0-153.0","subject":"S1C0825","sona":"41488","block":5,"time":"2021-09-17T16:27:43.572Z","response":"1st","certainty":"high","char":"A","transposition":2,"order":["shifted","swapped"],"probe_pitches":[5,2,5,2,0,7,2,10],"shifted_pitches":[5,2,5,2,-1,7,2,10],"swapped_pitches":[5,2,5,0,2,7,2,10],"shift_direction":-1,"question_num":131,"has_decoy":false},{"rt":548.2000000029802,"stimulus":"[A] option 1, [L] option 2, [G] neither","key_press":76,"name":"choice","trial_type":"html-keyboard-response","trial_index":164,"time_elapsed":282307,"internal_node_id":"0.0-164.0","subject":"S1C0825","sona":"41488","block":5,"time":"2021-09-17T16:27:43.572Z","response":"2nd","certainty":"high","char":"L","transposition":0,"order":["swapped","shifted"],"probe_pitches":[8,10,5,8,10,3,1,5],"shifted_pitches":[8,10,5,9,10,3,1,5],"swapped_pitches":[8,10,5,10,8,3,1,5],"shift_direction":1,"question_num":141,"has_decoy":false},{"rt":538.8000000044703,"stimulus":"[A] option 1, [L] option 2, [G] neither","key_press":65,"name":"choice","trial_type":"html-keyboard-response","trial_index":175,"time_elapsed":301417,"internal_node_id":"0.0-175.0","subject":"S1C0825","sona":"41488","block":5,"time":"2021-09-17T16:27:43.572Z","response":"1st","certainty":"high","char":"A","transposition":-1,"order":["swapped","shifted"],"probe_pitches":[10,4,2,3,5,1,3,10],"shifted_pitches":[10,4,2,3,6,1,3,10],"swapped_pitches":[10,4,2,5,3,1,3,10],"shift_direction":1,"question_num":151,"has_decoy":false},{"rt":829.1000000014901,"stimulus":"[A] option 1, [L] option 2, [G] neither","key_press":65,"name":"choice","trial_type":"html-keyboard-response","trial_index":186,"time_elapsed":316571,"internal_node_id":"0.0-186.0","subject":"S1C0825","sona":"41488","block":5,"time":"2021-09-17T16:27:43.572Z","response":"1st","certainty":"high","char":"A","transposition":-3,"order":["swapped","shifted"],"probe_pitches":[5,3,10,8,0,-2,0,3],"shifted_pitches":[5,3,10,9,0,-2,0,3],"swapped_pitches":[5,3,10,0,8,-2,0,3],"shift_direction":1,"question_num":161,"has_decoy":false},{"rt":2000.6000000014901,"stimulus":"[A] option 1, [L] option 2, [G] neither","key_press":76,"name":"choice","trial_type":"html-keyboard-response","trial_index":197,"time_elapsed":332776,"internal_node_id":"0.0-197.0","subject":"S1C0825","sona":"41488","block":5,"time":"2021-09-17T16:27:43.572Z","response":"2nd","certainty":"high","char":"L","transposition":2,"order":["shifted","swapped"],"probe_pitches":[10,9,12,9,6,10,8,1],"shifted_pitches":[10,9,12,9,7,10,8,1],"swapped_pitches":[10,9,12,6,9,10,8,1],"shift_direction":1,"question_num":171,"has_decoy":false},{"rt":2204,"stimulus":"[A] option 1, [L] option 2, [G] neither","key_press":65,"name":"choice","trial_type":"html-keyboard-response","trial_index":208,"time_elapsed":349512,"internal_node_id":"0.0-208.0","subject":"S1C0825","sona":"41488","block":5,"time":"2021-09-17T16:27:43.572Z","response":"1st","certainty":"high","char":"A","transposition":-1,"order":["swapped","shifted"],"probe_pitches":[2,-2,2,0,5,7,-2,7],"shifted_pitches":[2,-2,2,0,4,7,-2,7],"swapped_pitches":[2,-2,2,5,0,7,-2,7],"shift_direction":-1,"question_num":181,"has_decoy":false},{"rt":2122.60000000149,"stimulus":"[A] option 1, [L] option 2, [G] neither","key_press":76,"name":"choice","trial_type":"html-keyboard-response","trial_index":219,"time_elapsed":367836,"internal_node_id":"0.0-219.0","subject":"S1C0825","sona":"41488","block":5,"time":"2021-09-17T16:27:43.572Z","response":"2nd","certainty":"high","char":"L","transposition":-3,"order":["swapped","shifted"],"probe_pitches":[2,8,3,6,2,12,9,8],"shifted_pitches":[2,8,3,5,2,12,9,8],"swapped_pitches":[2,8,3,2,6,12,9,8],"shift_direction":-1,"question_num":191,"has_decoy":false}]