[{"rt":602.5,"stimulus":"[A] option 1, [L] option 2, [G] neither","key_press":65,"name":"choice","trial_type":"html-keyboard-response","trial_index":10,"time_elapsed":16621,"internal_node_id":"0.0-10.0","subject":"S1C0825","sona":"41488","block":3,"time":"2021-09-17T16:15:38.779Z","response":"1st","certainty":"high","char":"A","transposition":1,"order":["shifted","swapped"],"probe_pitches":[5,0,-2,3,0,-2,7,10],"shifted_pitches":[5,0,-2,2,0,-2,7,10],"swapped_pitches":[5,0,-2,0,3,-2,7,10],"shift_direction":-1,"question_num":1,"has_decoy":false},{"rt":506.79999999701977,"stimulus":"[A] option 1, [L] option 2, [G] neither","key_press":76,"name":"choice","trial_type":"html-keyboard-response","trial_index":21,"time_elapsed":32658,"internal_node_id":"0.0-21.0","subject":"S1C0825","sona":"41488","block":3,"time":"2021-09-17T16:15:38.779Z","response":"2nd","certainty":"high","char":"L","transposition":-1,"order":["shifted","swapped"],"probe_pitches":[10,7,10,2,-2,5,0,2],"shifted_pitches":[10,7,10,2,-1,5,0,2],"swapped_pitches":[10,7,10,-2,2,5,0,2],"shift_direction":1,"question_num":11,"has_decoy":false},{"rt":464.70000000298023,"stimulus":"[A] option 1, [L] option 2, [G] neither","key_press":65,"name":"choice","trial_type":"html-keyboard-response","trial_index":32,"time_elapsed":47501,"internal_node_id":"0.0-32.0","subject":"S1C0825","sona":"41488","block":3,"time":"2021-09-17T16:15:38.779Z","response":"1st","certainty":"high","char":"A","transposition":-1,"order":["shifted","swapped"],"probe_pitches":[9,4,5,8,13,3,11,13],"shifted_pitches":[9,4,5,7,13,3,11,13],"swapped_pitches":[9,4,5,13,8,3,11,13],"shift_direction":-1,"question_num":21,"has_decoy":false},{"rt":463.3999999985099,"stimulus":"[A] option 1, [L] option 2, [G] neither","key_press":76,"name":"choice","trial_type":"html-keyboard-response","trial_index":43,"time_elapsed":62342,"internal_node_id":"0.0-43.0","subject":"S1C0825","sona":"41488","block":3,"time":"2021-09-17T16:15:38.779Z","response":"2nd","certainty":"high","char":"L","transposition":-3,"order":["swapped","shifted"],"probe_pitches":[7,9,15,8,3,10,6,12],"shifted_pitches":[7,9,15,8,2,10,6,12],"swapped_pitches":[7,9,15,3,8,10,6,12],"shift_direction":-1,"question_num":31,"has_decoy":false},{"rt":473,"stimulus":"[A] option 1, [L] option 2, [G] neither","key_press":65,"name":"choice","trial_type":"html-keyboard-response","trial_index":54,"time_elapsed":77167,"internal_node_id":"0.0-54.0","subject":"S1C0825","sona":"41488","block":3,"time":"2021-09-17T16:15:38.779Z","response":"1st","certainty":"high","char":"A","transposition":-2,"order":["swapped","shifted"],"probe_pitches":[8,5,8,0,5,8,-2,3],"shifted_pitches":[8,5,8,0,6,8,-2,3],"swapped_pitches":[8,5,8,5,0,8,-2,3],"shift_direction":1,"question_num":41,"has_decoy":false},{"rt":452.6000000014901,"stimulus":"[A] option 1, [L] option 2, [G] neither","key_press":65,"name":"choice","trial_type":"html-keyboard-response","trial_index":65,"time_elapsed":91973,"internal_node_id":"0.0-65.0","subject":"S1C0825","sona":"41488","block":3,"time":"2021-09-17T16:15:38.779Z","response":"1st","certainty":"high","char":"A","transposition":2,"order":["shifted","swapped"],"probe_pitches":[1,-2,3,5,8,10,5,10],"shifted_pitches":[1,-2,3,4,8,10,5,10],"swapped_pitches":[1,-2,3,8,5,10,5,10],"shift_direction":-1,"question_num":51,"has_decoy":false},{"rt":547.1000000014901,"stimulus":"[A] option 1, [L] option 2, [G] neither","key_press":76,"name":"choice","trial_type":"html-keyboard-response","trial_index":76,"time_elapsed":106925,"internal_node_id":"0.0-76.0","subject":"S1C0825","sona":"41488","block":3,"time":"2021-09-17T16:15:38.779Z","response":"2nd","certainty":"high","char":"L","transposition":-3,"order":["swapped","shifted"],"probe_pitches":[4,5,12,7,3,6,11,7],"shifted_pitches":[4,5,12,8,3,6,11,7],"swapped_pitches":[4,5,12,3,7,6,11,7],"shift_direction":1,"question_num":61,"has_decoy":false},{"rt":674,"stimulus":"[A] option 1, [L] option 2, [G] neither","key_press":76,"name":"choice","trial_type":"html-keyboard-response","trial_index":87,"time_elapsed":123084,"internal_node_id":"0.0-87.0","subject":"S1C0825","sona":"41488","block":3,"time":"2021-09-17T16:15:38.779Z","response":"2nd","certainty":"high","char":"L","transposition":1,"order":["swapped","shifted"],"probe_pitches":[4,3,6,4,8,11,7,12],"shifted_pitches":[4,3,6,5,8,11,7,12],"swapped_pitches":[4,3,6,8,4,11,7,12],"shift_direction":1,"question_num":71,"has_decoy":false},{"rt":590.2000000029802,"stimulus":"[A] option 1, [L] option 2, [G] neither","key_press":76,"name":"choice","trial_type":"html-keyboard-response","trial_index":98,"time_elapsed":139575,"internal_node_id":"0.0-98.0","subject":"S1C0825","sona":"41488","block":3,"time":"2021-09-17T16:15:38.779Z","response":"2nd","certainty":"high","char":"L","transposition":-1,"order":["shifted","swapped"],"probe_pitches":[15,9,5,11,12,15,10,6],"shifted_pitches":[15,9,5,11,13,15,10,6],"swapped_pitches":[15,9,5,12,11,15,10,6],"shift_direction":1,"question_num":81,"has_decoy":false},{"rt":1538,"stimulus":"[A] option 1, [L] option 2, [G] neither","key_press":76,"name":"choice","trial_type":"html-keyboard-response","trial_index":109,"time_elapsed":155669,"internal_node_id":"0.0-109.0","subject":"S1C0825","sona":"41488","block":3,"time":"2021-09-17T16:15:38.779Z","response":"2nd","certainty":"high","char":"L","transposition":-3,"order":["swapped","shifted"],"probe_pitches":[0,-2,5,0,-2,7,2,5],"shifted_pitches":[0,-2,5,0,-3,7,2,5],"swapped_pitches":[0,-2,5,-2,0,7,2,5],"shift_direction":-1,"question_num":91,"has_decoy":false},{"rt":551.6000000014901,"stimulus":"[A] option 1, [L] option 2, [G] neither","key_press":65,"name":"choice","trial_type":"html-keyboard-response","trial_index":120,"time_elapsed":170821,"internal_node_id":"0.0-120.0","subject":"S1C0825","sona":"41488","block":3,"time":"2021-09-17T16:15:38.779Z","response":"1st","certainty":"high","char":"A","transposition":3,"order":["shifted","swapped"],"probe_pitches":[1,6,8,10,6,3,8,1],"shifted_pitches":[1,6,8,11,6,3,8,1],"swapped_pitches":[1,6,8,6,10,3,8,1],"shift_direction":1,"question_num":101,"has_decoy":false},{"rt":551.2000000029802,"stimulus":"[A] option 1, [L] option 2, [G] neither","key_press":65,"name":"choice","trial_type":"html-keyboard-response","trial_index":131,"time_elapsed":185743,"internal_node_id":"0.0-131.0","subject":"S1C0825","sona":"41488","block":3,"time":"2021-09-17T16:15:38.779Z","response":"1st","certainty":"high","char":"A","transposition":0,"order":["shifted","swapped"],"probe_pitches":[5,11,14,11,7,9,10,14],"shifted_pitches":[5,11,14,11,6,9,10,14],"swapped_pitches":[5,11,14,7,11,9,10,14],"shift_direction":-1,"question_num":111,"has_decoy":false},{"rt":574.3000000044703,"stimulus":"[A] option 1, [L] option 2, [G] neither","key_press":76,"name":"choice","trial_type":"html-keyboard-response","trial_index":142,"time_elapsed":200763,"internal_node_id":"0.0-142.0","subject":"S1C0825","sona":"41488","block":3,"time":"2021-09-17T16:15:38.779Z","response":"2nd","certainty":"high","char":"L","transposition":2,"order":["shifted","swapped"],"probe_pitches":[4,3,4,9,11,12,7,12],"shifted_pitches":[4,3,4,10,11,12,7,12],"swapped_pitches":[4,3,4,11,9,12,7,12],"shift_direction":1,"question_num":121,"has_decoy":false},{"rt":1669.7999999970198,"stimulus":"[A] option 1, [L] option 2, [G] neither","key_press":76,"name":"choice","trial_type":"html-keyboard-response","trial_index":153,"time_elapsed":216823,"internal_node_id":"0.0-153.0","subject":"S1C0825","sona":"41488","block":3,"time":"2021-09-17T16:15:38.779Z","response":"2nd","certainty":"high","char":"L","transposition":-2,"order":["swapped","shifted"],"probe_pitches":[15,14,11,10,12,3,5,4],"shifted_pitches":[15,14,11,9,12,3,5,4],"swapped_pitches":[15,14,11,12,10,3,5,4],"shift_direction":-1,"question_num":131,"has_decoy":false},{"rt":654.1000000014901,"stimulus":"[A] option 1, [L] option 2, [G] neither","key_press":65,"name":"choice","trial_type":"html-keyboard-response","trial_index":164,"time_elapsed":232580,"internal_node_id":"0.0-164.0","subject":"S1C0825","sona":"41488","block":3,"time":"2021-09-17T16:15:38.779Z","response":"1st","certainty":"high","char":"A","transposition":-3,"order":["shifted","swapped"],"probe_pitches":[8,3,-2,3,0,10,5,-2],"shifted_pitches":[8,3,-2,4,0,10,5,-2],"swapped_pitches":[8,3,-2,0,3,10,5,-2],"shift_direction":1,"question_num":141,"has_decoy":false},{"rt":428.79999999701977,"stimulus":"[A] option 1, [L] option 2, [G] neither","key_press":65,"name":"choice","trial_type":"html-keyboard-response","trial_index":175,"time_elapsed":252221,"internal_node_id":"0.0-175.0","subject":"S1C0825","sona":"41488","block":3,"time":"2021-09-17T16:15:38.779Z","response":"1st","certainty":"high","char":"A","transposition":0,"order":["swapped","shifted"],"probe_pitches":[5,3,8,1,3,-2,8,1],"shifted_pitches":[5,3,8,1,2,-2,8,1],"swapped_pitches":[5,3,8,3,1,-2,8,1],"shift_direction":-1,"question_num":151,"has_decoy":false},{"rt":491.19999999552965,"stimulus":"[A] option 1, [L] option 2, [G] neither","key_press":76,"name":"choice","trial_type":"html-keyboard-response","trial_index":186,"time_elapsed":267083,"internal_node_id":"0.0-186.0","subject":"S1C0825","sona":"41488","block":3,"time":"2021-09-17T16:15:38.779Z","response":"2nd","certainty":"high","char":"L","transposition":-1,"order":["swapped","shifted"],"probe_pitches":[-2,3,0,3,5,-2,0,7],"shifted_pitches":[-2,3,0,4,5,-2,0,7],"swapped_pitches":[-2,3,0,5,3,-2,0,7],"shift_direction":1,"question_num":161,"has_decoy":false},{"rt":1148.5,"stimulus":"[A] option 1, [L] option 2, [G] neither","key_press":65,"name":"choice","trial_type":"html-keyboard-response","trial_index":197,"time_elapsed":282582,"internal_node_id":"0.0-197.0","subject":"S1C0825","sona":"41488","block":3,"time":"2021-09-17T16:15:38.779Z","response":"1st","certainty":"high","char":"A","transposition":3,"order":["swapped","shifted"],"probe_pitches":[12,14,8,14,12,8,15,12],"shifted_pitches":[12,14,8,14,11,8,15,12],"swapped_pitches":[12,14,8,12,14,8,15,12],"shift_direction":-1,"question_num":171,"has_decoy":false},{"rt":454.5,"stimulus":"[A] option 1, [L] option 2, [G] neither","key_press":65,"name":"choice","trial_type":"html-keyboard-response","trial_index":208,"time_elapsed":297445,"internal_node_id":"0.0-208.0","subject":"S1C0825","sona":"41488","block":3,"time":"2021-09-17T16:15:38.779Z","response":"1st","certainty":"high","char":"A","transposition":-2,"order":["shifted","swapped"],"probe_pitches":[4,6,7,15,11,10,5,9],"shifted_pitches":[4,6,7,15,12,10,5,9],"swapped_pitches":[4,6,7,11,15,10,5,9],"shift_direction":1,"question_num":181,"has_decoy":false},{"rt":718.6999999955297,"stimulus":"[A] option 1, [L] option 2, [G] neither","key_press":76,"name":"choice","trial_type":"html-keyboard-response","trial_index":219,"time_elapsed":312818,"internal_node_id":"0.0-219.0","subject":"S1C0825","sona":"41488","block":3,"time":"2021-09-17T16:15:38.779Z","response":"2nd","certainty":"high","char":"L","transposition":-2,"order":["swapped","shifted"],"probe_pitches":[8,6,1,6,8,10,3,10],"shifted_pitches":[8,6,1,6,7,10,3,10],"swapped_pitches":[8,6,1,8,6,10,3,10],"shift_direction":-1,"question_num":191,"has_decoy":false}]