[{"rt":927.7999999970198,"stimulus":"[A] option 1, [L] option 2, [G] neither","key_press":71,"name":"choice","trial_type":"html-keyboard-response","trial_index":10,"time_elapsed":19898,"internal_node_id":"0.0-10.0","subject":"S1C0817","sona":"41613","block":2,"time":"2021-09-15T21:54:13.136Z","response":"neither","certainty":"high","char":"G","transposition":-3,"order":["swapped","shifted"],"probe_pitches":[11,6,10,6,5,12,9,10],"shifted_pitches":[11,6,10,7,5,12,9,10],"swapped_pitches":[11,6,10,5,6,12,9,10],"shift_direction":1,"question_num":1,"has_decoy":false},{"rt":1203.7999999970198,"stimulus":"[A] option 1, [L] option 2, [G] neither","key_press":76,"name":"choice","trial_type":"html-keyboard-response","trial_index":21,"time_elapsed":35803,"internal_node_id":"0.0-21.0","subject":"S1C0817","sona":"41613","block":2,"time":"2021-09-15T21:54:13.136Z","response":"2nd","certainty":"high","char":"L","transposition":0,"order":["shifted","swapped"],"probe_pitches":[2,6,12,9,1,6,10,9],"shifted_pitches":[2,6,12,8,1,6,10,9],"swapped_pitches":[2,6,12,1,9,6,10,9],"shift_direction":-1,"question_num":11,"has_decoy":false},{"rt":4314.199999988079,"stimulus":"[A] option 1, [L] option 2, [G] neither","key_press":76,"name":"choice","trial_type":"html-keyboard-response","trial_index":32,"time_elapsed":55026,"internal_node_id":"0.0-32.0","subject":"S1C0817","sona":"41613","block":2,"time":"2021-09-15T21:54:13.136Z","response":"2nd","certainty":"high","char":"L","transposition":-3,"order":["swapped","shifted"],"probe_pitches":[10,7,8,10,6,13,3,2],"shifted_pitches":[10,7,8,10,5,13,3,2],"swapped_pitches":[10,7,8,6,10,13,3,2],"shift_direction":-1,"question_num":21,"has_decoy":false},{"rt":1034.5,"stimulus":"[A] option 1, [L] option 2, [G] neither","key_press":76,"name":"choice","trial_type":"html-keyboard-response","trial_index":43,"time_elapsed":71397,"internal_node_id":"0.0-43.0","subject":"S1C0817","sona":"41613","block":2,"time":"2021-09-15T21:54:13.136Z","response":"2nd","certainty":"high","char":"L","transposition":-1,"order":["swapped","shifted"],"probe_pitches":[6,7,4,8,2,7,8,2],"shifted_pitches":[6,7,4,9,2,7,8,2],"swapped_pitches":[6,7,4,2,8,7,8,2],"shift_direction":1,"question_num":31,"has_decoy":false},{"rt":572,"stimulus":"[A] option 1, [L] option 2, [G] neither","key_press":76,"name":"choice","trial_type":"html-keyboard-response","trial_index":54,"time_elapsed":86721,"internal_node_id":"0.0-54.0","subject":"S1C0817","sona":"41613","block":2,"time":"2021-09-15T21:54:13.136Z","response":"2nd","certainty":"high","char":"L","transposition":0,"order":["swapped","shifted"],"probe_pitches":[10,5,8,5,3,12,15,10],"shifted_pitches":[10,5,8,5,4,12,15,10],"swapped_pitches":[10,5,8,3,5,12,15,10],"shift_direction":1,"question_num":41,"has_decoy":false},{"rt":1290.0999999940395,"stimulus":"[A] option 1, [L] option 2, [G] neither","key_press":71,"name":"choice","trial_type":"html-keyboard-response","trial_index":65,"time_elapsed":102542,"internal_node_id":"0.0-65.0","subject":"S1C0817","sona":"41613","block":2,"time":"2021-09-15T21:54:13.136Z","response":"neither","certainty":"high","char":"G","transposition":1,"order":["shifted","swapped"],"probe_pitches":[4,7,13,11,2,8,13,9],"shifted_pitches":[4,7,13,11,3,8,13,9],"swapped_pitches":[4,7,13,2,11,8,13,9],"shift_direction":1,"question_num":51,"has_decoy":false},{"rt":1036.2999999970198,"stimulus":"[A] option 1, [L] option 2, [G] neither","key_press":76,"name":"choice","trial_type":"html-keyboard-response","trial_index":76,"time_elapsed":118388,"internal_node_id":"0.0-76.0","subject":"S1C0817","sona":"41613","block":2,"time":"2021-09-15T21:54:13.136Z","response":"2nd","certainty":"high","char":"L","transposition":1,"order":["shifted","swapped"],"probe_pitches":[13,10,13,15,8,5,13,8],"shifted_pitches":[13,10,13,14,8,5,13,8],"swapped_pitches":[13,10,13,8,15,5,13,8],"shift_direction":-1,"question_num":61,"has_decoy":false},{"rt":973.5,"stimulus":"[A] option 1, [L] option 2, [G] neither","key_press":65,"name":"choice","trial_type":"html-keyboard-response","trial_index":87,"time_elapsed":133758,"internal_node_id":"0.0-87.0","subject":"S1C0817","sona":"41613","block":2,"time":"2021-09-15T21:54:13.136Z","response":"1st","certainty":"high","char":"A","transposition":-2,"order":["shifted","swapped"],"probe_pitches":[12,15,12,10,8,3,12,5],"shifted_pitches":[12,15,12,10,9,3,12,5],"swapped_pitches":[12,15,12,8,10,3,12,5],"shift_direction":1,"question_num":71,"has_decoy":false},{"rt":1798,"stimulus":"[A] option 1, [L] option 2, [G] neither","key_press":76,"name":"choice","trial_type":"html-keyboard-response","trial_index":98,"time_elapsed":150014,"internal_node_id":"0.0-98.0","subject":"S1C0817","sona":"41613","block":2,"time":"2021-09-15T21:54:13.136Z","response":"2nd","certainty":"high","char":"L","transposition":-3,"order":["shifted","swapped"],"probe_pitches":[8,3,5,10,8,15,8,13],"shifted_pitches":[8,3,5,11,8,15,8,13],"swapped_pitches":[8,3,5,8,10,15,8,13],"shift_direction":1,"question_num":81,"has_decoy":false},{"rt":1809.0999999940395,"stimulus":"[A] option 1, [L] option 2, [G] neither","key_press":71,"name":"choice","trial_type":"html-keyboard-response","trial_index":109,"time_elapsed":166292,"internal_node_id":"0.0-109.0","subject":"S1C0817","sona":"41613","block":2,"time":"2021-09-15T21:54:13.136Z","response":"neither","certainty":"high","char":"G","transposition":2,"order":["shifted","swapped"],"probe_pitches":[2,3,10,6,3,11,1,3],"shifted_pitches":[2,3,10,6,4,11,1,3],"swapped_pitches":[2,3,10,3,6,11,1,3],"shift_direction":1,"question_num":91,"has_decoy":false},{"rt":1188.2000000029802,"stimulus":"[A] option 1, [L] option 2, [G] neither","key_press":76,"name":"choice","trial_type":"html-keyboard-response","trial_index":120,"time_elapsed":182312,"internal_node_id":"0.0-120.0","subject":"S1C0817","sona":"41613","block":2,"time":"2021-09-15T21:54:13.136Z","response":"2nd","certainty":"high","char":"L","transposition":-1,"order":["shifted","swapped"],"probe_pitches":[13,10,13,6,12,2,6,12],"shifted_pitches":[13,10,13,6,11,2,6,12],"swapped_pitches":[13,10,13,12,6,2,6,12],"shift_direction":-1,"question_num":101,"has_decoy":false},{"rt":5555.699999988079,"stimulus":"[A] option 1, [L] option 2, [G] neither","key_press":76,"name":"choice","trial_type":"html-keyboard-response","trial_index":131,"time_elapsed":202943,"internal_node_id":"0.0-131.0","subject":"S1C0817","sona":"41613","block":2,"time":"2021-09-15T21:54:13.136Z","response":"2nd","certainty":"high","char":"L","transposition":2,"order":["swapped","shifted"],"probe_pitches":[13,11,6,8,15,11,15,3],"shifted_pitches":[13,11,6,7,15,11,15,3],"swapped_pitches":[13,11,6,15,8,11,15,3],"shift_direction":-1,"question_num":111,"has_decoy":false},{"rt":641.2000000029802,"stimulus":"[A] option 1, [L] option 2, [G] neither","key_press":76,"name":"choice","trial_type":"html-keyboard-response","trial_index":142,"time_elapsed":218754,"internal_node_id":"0.0-142.0","subject":"S1C0817","sona":"41613","block":2,"time":"2021-09-15T21:54:13.136Z","response":"2nd","certainty":"high","char":"L","transposition":3,"order":["swapped","shifted"],"probe_pitches":[6,10,3,6,15,13,8,3],"shifted_pitches":[6,10,3,6,14,13,8,3],"swapped_pitches":[6,10,3,15,6,13,8,3],"shift_direction":-1,"question_num":121,"has_decoy":false},{"rt":1136.9000000059605,"stimulus":"[A] option 1, [L] option 2, [G] neither","key_press":71,"name":"choice","trial_type":"html-keyboard-response","trial_index":153,"time_elapsed":234368,"internal_node_id":"0.0-153.0","subject":"S1C0817","sona":"41613","block":2,"time":"2021-09-15T21:54:13.136Z","response":"neither","certainty":"high","char":"G","transposition":-3,"order":["shifted","swapped"],"probe_pitches":[5,3,10,12,7,3,5,7],"shifted_pitches":[5,3,10,11,7,3,5,7],"swapped_pitches":[5,3,10,7,12,3,5,7],"shift_direction":-1,"question_num":131,"has_decoy":false},{"rt":528,"stimulus":"[A] option 1, [L] option 2, [G] neither","key_press":76,"name":"choice","trial_type":"html-keyboard-response","trial_index":164,"time_elapsed":250433,"internal_node_id":"0.0-164.0","subject":"S1C0817","sona":"41613","block":2,"time":"2021-09-15T21:54:13.136Z","response":"2nd","certainty":"high","char":"L","transposition":-1,"order":["swapped","shifted"],"probe_pitches":[6,10,15,10,3,13,8,10],"shifted_pitches":[6,10,15,9,3,13,8,10],"swapped_pitches":[6,10,15,3,10,13,8,10],"shift_direction":-1,"question_num":141,"has_decoy":false},{"rt":926.0999999940395,"stimulus":"[A] option 1, [L] option 2, [G] neither","key_press":65,"name":"choice","trial_type":"html-keyboard-response","trial_index":175,"time_elapsed":266232,"internal_node_id":"0.0-175.0","subject":"S1C0817","sona":"41613","block":2,"time":"2021-09-15T21:54:13.136Z","response":"1st","certainty":"high","char":"A","transposition":-2,"order":["shifted","swapped"],"probe_pitches":[13,11,13,11,8,3,6,11],"shifted_pitches":[13,11,13,11,9,3,6,11],"swapped_pitches":[13,11,13,8,11,3,6,11],"shift_direction":1,"question_num":151,"has_decoy":false},{"rt":734.5,"stimulus":"[A] option 1, [L] option 2, [G] neither","key_press":76,"name":"choice","trial_type":"html-keyboard-response","trial_index":186,"time_elapsed":281499,"internal_node_id":"0.0-186.0","subject":"S1C0817","sona":"41613","block":2,"time":"2021-09-15T21:54:13.136Z","response":"2nd","certainty":"high","char":"L","transposition":-1,"order":["swapped","shifted"],"probe_pitches":[15,10,12,10,15,7,5,12],"shifted_pitches":[15,10,12,10,16,7,5,12],"swapped_pitches":[15,10,12,15,10,7,5,12],"shift_direction":1,"question_num":161,"has_decoy":false},{"rt":1039.7000000029802,"stimulus":"[A] option 1, [L] option 2, [G] neither","key_press":76,"name":"choice","trial_type":"html-keyboard-response","trial_index":197,"time_elapsed":300801,"internal_node_id":"0.0-197.0","subject":"S1C0817","sona":"41613","block":2,"time":"2021-09-15T21:54:13.136Z","response":"2nd","certainty":"high","char":"L","transposition":3,"order":["swapped","shifted"],"probe_pitches":[6,8,7,13,5,2,5,3],"shifted_pitches":[6,8,7,12,5,2,5,3],"swapped_pitches":[6,8,7,5,13,2,5,3],"shift_direction":-1,"question_num":171,"has_decoy":false},{"rt":1747.7000000029802,"stimulus":"[A] option 1, [L] option 2, [G] neither","key_press":71,"name":"choice","trial_type":"html-keyboard-response","trial_index":208,"time_elapsed":317054,"internal_node_id":"0.0-208.0","subject":"S1C0817","sona":"41613","block":2,"time":"2021-09-15T21:54:13.136Z","response":"neither","certainty":"high","char":"G","transposition":-2,"order":["swapped","shifted"],"probe_pitches":[2,3,7,5,11,2,3,12],"shifted_pitches":[2,3,7,6,11,2,3,12],"swapped_pitches":[2,3,7,11,5,2,3,12],"shift_direction":1,"question_num":181,"has_decoy":false},{"rt":1209.0999999940395,"stimulus":"[A] option 1, [L] option 2, [G] neither","key_press":71,"name":"choice","trial_type":"html-keyboard-response","trial_index":219,"time_elapsed":333395,"internal_node_id":"0.0-219.0","subject":"S1C0817","sona":"41613","block":2,"time":"2021-09-15T21:54:13.136Z","response":"neither","certainty":"high","char":"G","transposition":-2,"order":["shifted","swapped"],"probe_pitches":[9,13,9,12,11,2,3,11],"shifted_pitches":[9,13,9,12,10,2,3,11],"swapped_pitches":[9,13,9,11,12,2,3,11],"shift_direction":-1,"question_num":191,"has_decoy":false}]