[{"rt":700.7999999970198,"stimulus":"[A] option 1, [L] option 2, [G] neither","key_press":76,"name":"choice","trial_type":"html-keyboard-response","trial_index":10,"time_elapsed":19365,"internal_node_id":"0.0-10.0","subject":"S1C0817","sona":"41613","block":3,"time":"2021-09-15T22:00:13.918Z","response":"2nd","certainty":"high","char":"L","transposition":-3,"order":["shifted","swapped"],"probe_pitches":[1,7,2,10,4,6,5,2],"shifted_pitches":[1,7,2,11,4,6,5,2],"swapped_pitches":[1,7,2,4,10,6,5,2],"shift_direction":1,"question_num":1,"has_decoy":false},{"rt":795.7000000029802,"stimulus":"[A] option 1, [L] option 2, [G] neither","key_press":65,"name":"choice","trial_type":"html-keyboard-response","trial_index":21,"time_elapsed":34533,"internal_node_id":"0.0-21.0","subject":"S1C0817","sona":"41613","block":3,"time":"2021-09-15T22:00:13.918Z","response":"1st","certainty":"high","char":"A","transposition":1,"order":["swapped","shifted"],"probe_pitches":[4,9,2,8,7,1,3,0],"shifted_pitches":[4,9,2,8,6,1,3,0],"swapped_pitches":[4,9,2,7,8,1,3,0],"shift_direction":-1,"question_num":11,"has_decoy":false},{"rt":910.0999999940395,"stimulus":"[A] option 1, [L] option 2, [G] neither","key_press":71,"name":"choice","trial_type":"html-keyboard-response","trial_index":32,"time_elapsed":49861,"internal_node_id":"0.0-32.0","subject":"S1C0817","sona":"41613","block":3,"time":"2021-09-15T22:00:13.918Z","response":"neither","certainty":"high","char":"G","transposition":3,"order":["shifted","swapped"],"probe_pitches":[6,12,5,12,8,7,6,8],"shifted_pitches":[6,12,5,12,9,7,6,8],"swapped_pitches":[6,12,5,8,12,7,6,8],"shift_direction":1,"question_num":21,"has_decoy":false},{"rt":1800.3999999910593,"stimulus":"[A] option 1, [L] option 2, [G] neither","key_press":65,"name":"choice","trial_type":"html-keyboard-response","trial_index":43,"time_elapsed":66148,"internal_node_id":"0.0-43.0","subject":"S1C0817","sona":"41613","block":3,"time":"2021-09-15T22:00:13.918Z","response":"1st","certainty":"high","char":"A","transposition":0,"order":["swapped","shifted"],"probe_pitches":[2,1,2,8,0,5,3,11],"shifted_pitches":[2,1,2,7,0,5,3,11],"swapped_pitches":[2,1,2,0,8,5,3,11],"shift_direction":-1,"question_num":31,"has_decoy":false},{"rt":1433.1000000089407,"stimulus":"[A] option 1, [L] option 2, [G] neither","key_press":71,"name":"choice","trial_type":"html-keyboard-response","trial_index":54,"time_elapsed":82218,"internal_node_id":"0.0-54.0","subject":"S1C0817","sona":"41613","block":3,"time":"2021-09-15T22:00:13.918Z","response":"neither","certainty":"high","char":"G","transposition":-1,"order":["shifted","swapped"],"probe_pitches":[5,10,7,10,5,3,0,5],"shifted_pitches":[5,10,7,10,4,3,0,5],"swapped_pitches":[5,10,7,5,10,3,0,5],"shift_direction":-1,"question_num":41,"has_decoy":false},{"rt":3040.199999988079,"stimulus":"[A] option 1, [L] option 2, [G] neither","key_press":71,"name":"choice","trial_type":"html-keyboard-response","trial_index":65,"time_elapsed":99777,"internal_node_id":"0.0-65.0","subject":"S1C0817","sona":"41613","block":3,"time":"2021-09-15T22:00:13.918Z","response":"neither","certainty":"high","char":"G","transposition":-2,"order":["shifted","swapped"],"probe_pitches":[8,5,11,9,2,1,11,5],"shifted_pitches":[8,5,11,10,2,1,11,5],"swapped_pitches":[8,5,11,2,9,1,11,5],"shift_direction":1,"question_num":51,"has_decoy":false},{"rt":754.5999999940395,"stimulus":"[A] option 1, [L] option 2, [G] neither","key_press":65,"name":"choice","trial_type":"html-keyboard-response","trial_index":76,"time_elapsed":115983,"internal_node_id":"0.0-76.0","subject":"S1C0817","sona":"41613","block":3,"time":"2021-09-15T22:00:13.918Z","response":"1st","certainty":"high","char":"A","transposition":-1,"order":["swapped","shifted"],"probe_pitches":[1,3,0,7,6,8,0,7],"shifted_pitches":[1,3,0,7,5,8,0,7],"swapped_pitches":[1,3,0,6,7,8,0,7],"shift_direction":-1,"question_num":61,"has_decoy":false},{"rt":555.7000000029802,"stimulus":"[A] option 1, [L] option 2, [G] neither","key_press":76,"name":"choice","trial_type":"html-keyboard-response","trial_index":87,"time_elapsed":130934,"internal_node_id":"0.0-87.0","subject":"S1C0817","sona":"41613","block":3,"time":"2021-09-15T22:00:13.918Z","response":"2nd","certainty":"high","char":"L","transposition":0,"order":["swapped","shifted"],"probe_pitches":[1,3,8,3,1,10,1,5],"shifted_pitches":[1,3,8,4,1,10,1,5],"swapped_pitches":[1,3,8,1,3,10,1,5],"shift_direction":1,"question_num":71,"has_decoy":false},{"rt":1673,"stimulus":"[A] option 1, [L] option 2, [G] neither","key_press":71,"name":"choice","trial_type":"html-keyboard-response","trial_index":98,"time_elapsed":147161,"internal_node_id":"0.0-98.0","subject":"S1C0817","sona":"41613","block":3,"time":"2021-09-15T22:00:13.918Z","response":"neither","certainty":"high","char":"G","transposition":-1,"order":["shifted","swapped"],"probe_pitches":[10,6,3,-2,1,6,-2,8],"shifted_pitches":[10,6,3,-1,1,6,-2,8],"swapped_pitches":[10,6,3,1,-2,6,-2,8],"shift_direction":1,"question_num":81,"has_decoy":false},{"rt":1728.5999999940395,"stimulus":"[A] option 1, [L] option 2, [G] neither","key_press":71,"name":"choice","trial_type":"html-keyboard-response","trial_index":109,"time_elapsed":163816,"internal_node_id":"0.0-109.0","subject":"S1C0817","sona":"41613","block":3,"time":"2021-09-15T22:00:13.918Z","response":"neither","certainty":"high","char":"G","transposition":2,"order":["swapped","shifted"],"probe_pitches":[7,10,3,0,7,5,3,5],"shifted_pitches":[7,10,3,-1,7,5,3,5],"swapped_pitches":[7,10,3,7,0,5,3,5],"shift_direction":-1,"question_num":91,"has_decoy":false},{"rt":726.0999999940395,"stimulus":"[A] option 1, [L] option 2, [G] neither","key_press":76,"name":"choice","trial_type":"html-keyboard-response","trial_index":120,"time_elapsed":179022,"internal_node_id":"0.0-120.0","subject":"S1C0817","sona":"41613","block":3,"time":"2021-09-15T22:00:13.918Z","response":"2nd","certainty":"high","char":"L","transposition":-2,"order":["swapped","shifted"],"probe_pitches":[7,10,7,2,0,-2,0,5],"shifted_pitches":[7,10,7,1,0,-2,0,5],"swapped_pitches":[7,10,7,0,2,-2,0,5],"shift_direction":-1,"question_num":101,"has_decoy":false},{"rt":768.0999999940395,"stimulus":"[A] option 1, [L] option 2, [G] neither","key_press":65,"name":"choice","trial_type":"html-keyboard-response","trial_index":131,"time_elapsed":194400,"internal_node_id":"0.0-131.0","subject":"S1C0817","sona":"41613","block":3,"time":"2021-09-15T22:00:13.918Z","response":"1st","certainty":"high","char":"A","transposition":-2,"order":["swapped","shifted"],"probe_pitches":[-2,0,-2,0,8,10,5,3],"shifted_pitches":[-2,0,-2,0,7,10,5,3],"swapped_pitches":[-2,0,-2,8,0,10,5,3],"shift_direction":-1,"question_num":111,"has_decoy":false},{"rt":686,"stimulus":"[A] option 1, [L] option 2, [G] neither","key_press":65,"name":"choice","trial_type":"html-keyboard-response","trial_index":142,"time_elapsed":209817,"internal_node_id":"0.0-142.0","subject":"S1C0817","sona":"41613","block":3,"time":"2021-09-15T22:00:13.918Z","response":"1st","certainty":"high","char":"A","transposition":3,"order":["shifted","swapped"],"probe_pitches":[8,3,10,5,8,0,5,8],"shifted_pitches":[8,3,10,6,8,0,5,8],"swapped_pitches":[8,3,10,8,5,0,5,8],"shift_direction":1,"question_num":121,"has_decoy":false},{"rt":654.4000000059605,"stimulus":"[A] option 1, [L] option 2, [G] neither","key_press":76,"name":"choice","trial_type":"html-keyboard-response","trial_index":153,"time_elapsed":224943,"internal_node_id":"0.0-153.0","subject":"S1C0817","sona":"41613","block":3,"time":"2021-09-15T22:00:13.918Z","response":"2nd","certainty":"high","char":"L","transposition":-3,"order":["swapped","shifted"],"probe_pitches":[-2,3,-2,5,8,10,1,8],"shifted_pitches":[-2,3,-2,5,9,10,1,8],"swapped_pitches":[-2,3,-2,8,5,10,1,8],"shift_direction":1,"question_num":131,"has_decoy":false},{"rt":838,"stimulus":"[A] option 1, [L] option 2, [G] neither","key_press":76,"name":"choice","trial_type":"html-keyboard-response","trial_index":164,"time_elapsed":240198,"internal_node_id":"0.0-164.0","subject":"S1C0817","sona":"41613","block":3,"time":"2021-09-15T22:00:13.918Z","response":"2nd","certainty":"high","char":"L","transposition":-3,"order":["shifted","swapped"],"probe_pitches":[5,4,0,5,9,10,4,0],"shifted_pitches":[5,4,0,5,8,10,4,0],"swapped_pitches":[5,4,0,9,5,10,4,0],"shift_direction":-1,"question_num":141,"has_decoy":false},{"rt":2190.699999988079,"stimulus":"[A] option 1, [L] option 2, [G] neither","key_press":76,"name":"choice","trial_type":"html-keyboard-response","trial_index":175,"time_elapsed":257005,"internal_node_id":"0.0-175.0","subject":"S1C0817","sona":"41613","block":3,"time":"2021-09-15T22:00:13.918Z","response":"2nd","certainty":"high","char":"L","transposition":1,"order":["shifted","swapped"],"probe_pitches":[1,3,6,3,10,8,6,3],"shifted_pitches":[1,3,6,3,9,8,6,3],"swapped_pitches":[1,3,6,10,3,8,6,3],"shift_direction":-1,"question_num":151,"has_decoy":false},{"rt":2890.800000011921,"stimulus":"[A] option 1, [L] option 2, [G] neither","key_press":71,"name":"choice","trial_type":"html-keyboard-response","trial_index":186,"time_elapsed":274905,"internal_node_id":"0.0-186.0","subject":"S1C0817","sona":"41613","block":3,"time":"2021-09-15T22:00:13.918Z","response":"neither","certainty":"high","char":"G","transposition":2,"order":["swapped","shifted"],"probe_pitches":[5,7,10,3,1,4,12,1],"shifted_pitches":[5,7,10,2,1,4,12,1],"swapped_pitches":[5,7,10,1,3,4,12,1],"shift_direction":-1,"question_num":161,"has_decoy":false},{"rt":578.4000000059605,"stimulus":"[A] option 1, [L] option 2, [G] neither","key_press":76,"name":"choice","trial_type":"html-keyboard-response","trial_index":197,"time_elapsed":290232,"internal_node_id":"0.0-197.0","subject":"S1C0817","sona":"41613","block":3,"time":"2021-09-15T22:00:13.918Z","response":"2nd","certainty":"high","char":"L","transposition":-3,"order":["shifted","swapped"],"probe_pitches":[-2,0,2,7,10,2,10,5],"shifted_pitches":[-2,0,2,7,11,2,10,5],"swapped_pitches":[-2,0,2,10,7,2,10,5],"shift_direction":1,"question_num":171,"has_decoy":false},{"rt":905.0999999940395,"stimulus":"[A] option 1, [L] option 2, [G] neither","key_press":71,"name":"choice","trial_type":"html-keyboard-response","trial_index":208,"time_elapsed":305615,"internal_node_id":"0.0-208.0","subject":"S1C0817","sona":"41613","block":3,"time":"2021-09-15T22:00:13.918Z","response":"neither","certainty":"high","char":"G","transposition":-1,"order":["shifted","swapped"],"probe_pitches":[7,1,6,2,10,8,0,6],"shifted_pitches":[7,1,6,3,10,8,0,6],"swapped_pitches":[7,1,6,10,2,8,0,6],"shift_direction":1,"question_num":181,"has_decoy":false},{"rt":937.2999999970198,"stimulus":"[A] option 1, [L] option 2, [G] neither","key_press":65,"name":"choice","trial_type":"html-keyboard-response","trial_index":219,"time_elapsed":321106,"internal_node_id":"0.0-219.0","subject":"S1C0817","sona":"41613","block":3,"time":"2021-09-15T22:00:13.918Z","response":"1st","certainty":"high","char":"A","transposition":-2,"order":["swapped","shifted"],"probe_pitches":[10,7,12,9,3,5,7,10],"shifted_pitches":[10,7,12,9,4,5,7,10],"swapped_pitches":[10,7,12,3,9,5,7,10],"shift_direction":1,"question_num":191,"has_decoy":false}]