[{"rt":539.7999999970198,"stimulus":"[A] option 1, [L] option 2, [G] neither","key_press":76,"name":"choice","trial_type":"html-keyboard-response","trial_index":10,"time_elapsed":17306,"internal_node_id":"0.0-10.0","subject":"S1C0817","sona":"41613","block":6,"time":"2021-09-15T22:17:57.200Z","response":"2nd","certainty":"high","char":"L","transposition":-2,"order":["swapped","shifted"],"probe_pitches":[14,9,14,11,12,7,3,9],"shifted_pitches":[14,9,14,11,13,7,3,9],"swapped_pitches":[14,9,14,12,11,7,3,9],"shift_direction":1,"question_num":1,"has_decoy":false},{"rt":4208.20000000298,"stimulus":"[A] option 1, [L] option 2, [G] neither","key_press":71,"name":"choice","trial_type":"html-keyboard-response","trial_index":21,"time_elapsed":36023,"internal_node_id":"0.0-21.0","subject":"S1C0817","sona":"41613","block":6,"time":"2021-09-15T22:17:57.200Z","response":"neither","certainty":"high","char":"G","transposition":-2,"order":["swapped","shifted"],"probe_pitches":[4,6,-1,4,6,1,-3,4],"shifted_pitches":[4,6,-1,4,5,1,-3,4],"swapped_pitches":[4,6,-1,6,4,1,-3,4],"shift_direction":-1,"question_num":11,"has_decoy":false},{"rt":1223.2999999970198,"stimulus":"[A] option 1, [L] option 2, [G] neither","key_press":76,"name":"choice","trial_type":"html-keyboard-response","trial_index":32,"time_elapsed":92826,"internal_node_id":"0.0-32.0","subject":"S1C0817","sona":"41613","block":6,"time":"2021-09-15T22:17:57.200Z","response":"2nd","certainty":"high","char":"L","transposition":-2,"order":["shifted","swapped"],"probe_pitches":[4,7,12,14,10,13,7,10],"shifted_pitches":[4,7,12,14,11,13,7,10],"swapped_pitches":[4,7,12,10,14,13,7,10],"shift_direction":1,"question_num":21,"has_decoy":false},{"rt":2022.2000000029802,"stimulus":"[A] option 1, [L] option 2, [G] neither","key_press":71,"name":"choice","trial_type":"html-keyboard-response","trial_index":43,"time_elapsed":109385,"internal_node_id":"0.0-43.0","subject":"S1C0817","sona":"41613","block":6,"time":"2021-09-15T22:17:57.200Z","response":"neither","certainty":"high","char":"G","transposition":-1,"order":["swapped","shifted"],"probe_pitches":[0,2,7,5,-3,2,7,9],"shifted_pitches":[0,2,7,4,-3,2,7,9],"swapped_pitches":[0,2,7,-3,5,2,7,9],"shift_direction":-1,"question_num":31,"has_decoy":false},{"rt":1070.7999999970198,"stimulus":"[A] option 1, [L] option 2, [G] neither","key_press":71,"name":"choice","trial_type":"html-keyboard-response","trial_index":54,"time_elapsed":125421,"internal_node_id":"0.0-54.0","subject":"S1C0817","sona":"41613","block":6,"time":"2021-09-15T22:17:57.200Z","response":"neither","certainty":"high","char":"G","transposition":1,"order":["shifted","swapped"],"probe_pitches":[9,7,2,4,7,2,9,-1],"shifted_pitches":[9,7,2,5,7,2,9,-1],"swapped_pitches":[9,7,2,7,4,2,9,-1],"shift_direction":1,"question_num":41,"has_decoy":false},{"rt":3451.5999999940395,"stimulus":"[A] option 1, [L] option 2, [G] neither","key_press":65,"name":"choice","trial_type":"html-keyboard-response","trial_index":65,"time_elapsed":143420,"internal_node_id":"0.0-65.0","subject":"S1C0817","sona":"41613","block":6,"time":"2021-09-15T22:17:57.200Z","response":"1st","certainty":"high","char":"A","transposition":-2,"order":["swapped","shifted"],"probe_pitches":[-3,-1,1,4,9,6,9,-1],"shifted_pitches":[-3,-1,1,5,9,6,9,-1],"swapped_pitches":[-3,-1,1,9,4,6,9,-1],"shift_direction":1,"question_num":51,"has_decoy":false},{"rt":1532.2999999970198,"stimulus":"[A] option 1, [L] option 2, [G] neither","key_press":71,"name":"choice","trial_type":"html-keyboard-response","trial_index":76,"time_elapsed":159397,"internal_node_id":"0.0-76.0","subject":"S1C0817","sona":"41613","block":6,"time":"2021-09-15T22:17:57.200Z","response":"neither","certainty":"high","char":"G","transposition":2,"order":["shifted","swapped"],"probe_pitches":[4,7,2,-1,7,2,9,4],"shifted_pitches":[4,7,2,-2,7,2,9,4],"swapped_pitches":[4,7,2,7,-1,2,9,4],"shift_direction":-1,"question_num":61,"has_decoy":false},{"rt":1126.7000000029802,"stimulus":"[A] option 1, [L] option 2, [G] neither","key_press":76,"name":"choice","trial_type":"html-keyboard-response","trial_index":87,"time_elapsed":174944,"internal_node_id":"0.0-87.0","subject":"S1C0817","sona":"41613","block":6,"time":"2021-09-15T22:17:57.200Z","response":"2nd","certainty":"high","char":"L","transposition":-3,"order":["shifted","swapped"],"probe_pitches":[7,5,0,2,5,7,0,-3],"shifted_pitches":[7,5,0,2,6,7,0,-3],"swapped_pitches":[7,5,0,5,2,7,0,-3],"shift_direction":1,"question_num":71,"has_decoy":false},{"rt":3246.7999999970198,"stimulus":"[A] option 1, [L] option 2, [G] neither","key_press":65,"name":"choice","trial_type":"html-keyboard-response","trial_index":98,"time_elapsed":192614,"internal_node_id":"0.0-98.0","subject":"S1C0817","sona":"41613","block":6,"time":"2021-09-15T22:17:57.200Z","response":"1st","certainty":"high","char":"A","transposition":-3,"order":["swapped","shifted"],"probe_pitches":[13,10,9,7,11,5,10,14],"shifted_pitches":[13,10,9,6,11,5,10,14],"swapped_pitches":[13,10,9,11,7,5,10,14],"shift_direction":-1,"question_num":81,"has_decoy":false},{"rt":1616.6000000089407,"stimulus":"[A] option 1, [L] option 2, [G] neither","key_press":71,"name":"choice","trial_type":"html-keyboard-response","trial_index":109,"time_elapsed":208690,"internal_node_id":"0.0-109.0","subject":"S1C0817","sona":"41613","block":6,"time":"2021-09-15T22:17:57.200Z","response":"neither","certainty":"high","char":"G","transposition":2,"order":["shifted","swapped"],"probe_pitches":[3,4,9,12,8,13,12,4],"shifted_pitches":[3,4,9,12,7,13,12,4],"swapped_pitches":[3,4,9,8,12,13,12,4],"shift_direction":-1,"question_num":91,"has_decoy":false},{"rt":795.7999999970198,"stimulus":"[A] option 1, [L] option 2, [G] neither","key_press":76,"name":"choice","trial_type":"html-keyboard-response","trial_index":120,"time_elapsed":224035,"internal_node_id":"0.0-120.0","subject":"S1C0817","sona":"41613","block":6,"time":"2021-09-15T22:17:57.200Z","response":"2nd","certainty":"high","char":"L","transposition":1,"order":["swapped","shifted"],"probe_pitches":[3,8,13,11,14,13,8,9],"shifted_pitches":[3,8,13,12,14,13,8,9],"swapped_pitches":[3,8,13,14,11,13,8,9],"shift_direction":1,"question_num":101,"has_decoy":false},{"rt":1341.5,"stimulus":"[A] option 1, [L] option 2, [G] neither","key_press":71,"name":"choice","trial_type":"html-keyboard-response","trial_index":131,"time_elapsed":239783,"internal_node_id":"0.0-131.0","subject":"S1C0817","sona":"41613","block":6,"time":"2021-09-15T22:17:57.200Z","response":"neither","certainty":"high","char":"G","transposition":3,"order":["swapped","shifted"],"probe_pitches":[10,4,6,10,12,2,10,11],"shifted_pitches":[10,4,6,9,12,2,10,11],"swapped_pitches":[10,4,6,12,10,2,10,11],"shift_direction":-1,"question_num":111,"has_decoy":false},{"rt":344.90000000596046,"stimulus":"[A] option 1, [L] option 2, [G] neither","key_press":71,"name":"choice","trial_type":"html-keyboard-response","trial_index":142,"time_elapsed":254512,"internal_node_id":"0.0-142.0","subject":"S1C0817","sona":"41613","block":6,"time":"2021-09-15T22:17:57.200Z","response":"neither","certainty":"high","char":"G","transposition":-3,"order":["swapped","shifted"],"probe_pitches":[0,2,7,9,4,-3,4,2],"shifted_pitches":[0,2,7,9,5,-3,4,2],"swapped_pitches":[0,2,7,4,9,-3,4,2],"shift_direction":1,"question_num":121,"has_decoy":false},{"rt":513,"stimulus":"[A] option 1, [L] option 2, [G] neither","key_press":65,"name":"choice","trial_type":"html-keyboard-response","trial_index":153,"time_elapsed":282353,"internal_node_id":"0.0-153.0","subject":"S1C0817","sona":"41613","block":6,"time":"2021-09-15T22:17:57.200Z","response":"1st","certainty":"high","char":"A","transposition":-3,"order":["shifted","swapped"],"probe_pitches":[10,9,2,4,6,14,7,10],"shifted_pitches":[10,9,2,4,5,14,7,10],"swapped_pitches":[10,9,2,6,4,14,7,10],"shift_direction":-1,"question_num":131,"has_decoy":false},{"rt":674.3000000119209,"stimulus":"[A] option 1, [L] option 2, [G] neither","key_press":71,"name":"choice","trial_type":"html-keyboard-response","trial_index":164,"time_elapsed":297789,"internal_node_id":"0.0-164.0","subject":"S1C0817","sona":"41613","block":6,"time":"2021-09-15T22:17:57.200Z","response":"neither","certainty":"high","char":"G","transposition":-1,"order":["shifted","swapped"],"probe_pitches":[10,6,12,9,11,3,2,9],"shifted_pitches":[10,6,12,8,11,3,2,9],"swapped_pitches":[10,6,12,11,9,3,2,9],"shift_direction":-1,"question_num":141,"has_decoy":false},{"rt":982,"stimulus":"[A] option 1, [L] option 2, [G] neither","key_press":71,"name":"choice","trial_type":"html-keyboard-response","trial_index":175,"time_elapsed":313120,"internal_node_id":"0.0-175.0","subject":"S1C0817","sona":"41613","block":6,"time":"2021-09-15T22:17:57.200Z","response":"neither","certainty":"high","char":"G","transposition":3,"order":["shifted","swapped"],"probe_pitches":[0,-3,2,7,9,0,4,0],"shifted_pitches":[0,-3,2,7,10,0,4,0],"swapped_pitches":[0,-3,2,9,7,0,4,0],"shift_direction":1,"question_num":151,"has_decoy":false},{"rt":601.0999999940395,"stimulus":"[A] option 1, [L] option 2, [G] neither","key_press":76,"name":"choice","trial_type":"html-keyboard-response","trial_index":186,"time_elapsed":328172,"internal_node_id":"0.0-186.0","subject":"S1C0817","sona":"41613","block":6,"time":"2021-09-15T22:17:57.200Z","response":"2nd","certainty":"high","char":"L","transposition":-1,"order":["swapped","shifted"],"probe_pitches":[5,8,6,8,9,4,6,9],"shifted_pitches":[5,8,6,8,10,4,6,9],"swapped_pitches":[5,8,6,9,8,4,6,9],"shift_direction":1,"question_num":161,"has_decoy":false},{"rt":987.9000000059605,"stimulus":"[A] option 1, [L] option 2, [G] neither","key_press":71,"name":"choice","trial_type":"html-keyboard-response","trial_index":197,"time_elapsed":343670,"internal_node_id":"0.0-197.0","subject":"S1C0817","sona":"41613","block":6,"time":"2021-09-15T22:17:57.200Z","response":"neither","certainty":"high","char":"G","transposition":0,"order":["shifted","swapped"],"probe_pitches":[2,5,10,3,6,13,6,5],"shifted_pitches":[2,5,10,4,6,13,6,5],"swapped_pitches":[2,5,10,6,3,13,6,5],"shift_direction":1,"question_num":171,"has_decoy":false},{"rt":598.3000000119209,"stimulus":"[A] option 1, [L] option 2, [G] neither","key_press":76,"name":"choice","trial_type":"html-keyboard-response","trial_index":208,"time_elapsed":358753,"internal_node_id":"0.0-208.0","subject":"S1C0817","sona":"41613","block":6,"time":"2021-09-15T22:17:57.200Z","response":"2nd","certainty":"high","char":"L","transposition":0,"order":["swapped","shifted"],"probe_pitches":[4,-1,2,6,-1,9,6,4],"shifted_pitches":[4,-1,2,5,-1,9,6,4],"swapped_pitches":[4,-1,2,-1,6,9,6,4],"shift_direction":-1,"question_num":181,"has_decoy":false},{"rt":899.7000000029802,"stimulus":"[A] option 1, [L] option 2, [G] neither","key_press":65,"name":"choice","trial_type":"html-keyboard-response","trial_index":219,"time_elapsed":374113,"internal_node_id":"0.0-219.0","subject":"S1C0817","sona":"41613","block":6,"time":"2021-09-15T22:17:57.200Z","response":"1st","certainty":"high","char":"A","transposition":-1,"order":["shifted","swapped"],"probe_pitches":[-1,-3,4,9,6,2,-3,6],"shifted_pitches":[-1,-3,4,9,5,2,-3,6],"swapped_pitches":[-1,-3,4,6,9,2,-3,6],"shift_direction":-1,"question_num":191,"has_decoy":false}]