[{"rt":10721,"stimulus":"[A] option 1, [L] option 2, [G] neither","key_press":65,"name":"choice","trial_type":"html-keyboard-response","trial_index":15,"time_elapsed":93737,"internal_node_id":"0.0-15.0","response":"1st","certainty":"high","char":"A","transposition":-2,"order":["shifted","swapped"],"probe_pitches":[7,8,3,7,11,4,3,10],"shifted_pitches":[7,8,3,6,11,4,3,10],"swapped_pitches":[7,8,3,11,7,4,3,10],"shift_direction":-1,"question_num":1,"has_decoy":false,"subject":"S1C0817","sona":"41613","block":1,"time":"2021-09-15T21:47:36.538Z"},{"rt":1975.6000000089407,"stimulus":"[A] option 1, [L] option 2, [G] neither","key_press":76,"name":"choice","trial_type":"html-keyboard-response","trial_index":26,"time_elapsed":111579,"internal_node_id":"0.0-26.0","response":"2nd","certainty":"high","char":"L","transposition":3,"order":["swapped","shifted"],"probe_pitches":[-1,-3,2,7,4,-3,2,9],"shifted_pitches":[-1,-3,2,7,3,-3,2,9],"swapped_pitches":[-1,-3,2,4,7,-3,2,9],"shift_direction":-1,"question_num":11,"has_decoy":false,"subject":"S1C0817","sona":"41613","block":1,"time":"2021-09-15T21:47:36.538Z"},{"rt":904.8999999910593,"stimulus":"[A] option 1, [L] option 2, [G] neither","key_press":76,"name":"choice","trial_type":"html-keyboard-response","trial_index":37,"time_elapsed":129244,"internal_node_id":"0.0-37.0","response":"2nd","certainty":"high","char":"L","transposition":-1,"order":["swapped","shifted"],"probe_pitches":[5,0,3,0,5,6,4,2],"shifted_pitches":[5,0,3,1,5,6,4,2],"swapped_pitches":[5,0,3,5,0,6,4,2],"shift_direction":1,"question_num":21,"has_decoy":false,"subject":"S1C0817","sona":"41613","block":1,"time":"2021-09-15T21:47:36.538Z"},{"rt":1423.5999999940395,"stimulus":"[A] option 1, [L] option 2, [G] neither","key_press":65,"name":"choice","trial_type":"html-keyboard-response","trial_index":48,"time_elapsed":145800,"internal_node_id":"0.0-48.0","response":"1st","certainty":"high","char":"A","transposition":-2,"order":["swapped","shifted"],"probe_pitches":[10,6,8,3,10,5,8,5],"shifted_pitches":[10,6,8,3,9,5,8,5],"swapped_pitches":[10,6,8,10,3,5,8,5],"shift_direction":-1,"question_num":31,"has_decoy":false,"subject":"S1C0817","sona":"41613","block":1,"time":"2021-09-15T21:47:36.538Z"},{"rt":1376.7000000029802,"stimulus":"[A] option 1, [L] option 2, [G] neither","key_press":65,"name":"choice","trial_type":"html-keyboard-response","trial_index":59,"time_elapsed":162305,"internal_node_id":"0.0-59.0","response":"1st","certainty":"high","char":"A","transposition":-2,"order":["swapped","shifted"],"probe_pitches":[4,-1,1,-1,6,9,6,9],"shifted_pitches":[4,-1,1,0,6,9,6,9],"swapped_pitches":[4,-1,1,6,-1,9,6,9],"shift_direction":1,"question_num":41,"has_decoy":false,"subject":"S1C0817","sona":"41613","block":1,"time":"2021-09-15T21:47:36.538Z"},{"rt":3245.199999988079,"stimulus":"[A] option 1, [L] option 2, [G] neither","key_press":71,"name":"choice","trial_type":"html-keyboard-response","trial_index":70,"time_elapsed":181526,"internal_node_id":"0.0-70.0","response":"neither","certainty":"high","char":"G","transposition":1,"order":["shifted","swapped"],"probe_pitches":[4,10,8,2,5,6,5,0],"shifted_pitches":[4,10,8,3,5,6,5,0],"swapped_pitches":[4,10,8,5,2,6,5,0],"shift_direction":1,"question_num":51,"has_decoy":false,"subject":"S1C0817","sona":"41613","block":1,"time":"2021-09-15T21:47:36.538Z"},{"rt":1103.7000000029802,"stimulus":"[A] option 1, [L] option 2, [G] neither","key_press":76,"name":"choice","trial_type":"html-keyboard-response","trial_index":81,"time_elapsed":198549,"internal_node_id":"0.0-81.0","response":"2nd","certainty":"high","char":"L","transposition":0,"order":["swapped","shifted"],"probe_pitches":[2,4,0,4,9,7,0,9],"shifted_pitches":[2,4,0,4,8,7,0,9],"swapped_pitches":[2,4,0,9,4,7,0,9],"shift_direction":-1,"question_num":61,"has_decoy":false,"subject":"S1C0817","sona":"41613","block":1,"time":"2021-09-15T21:47:36.538Z"},{"rt":1437.7000000029802,"stimulus":"[A] option 1, [L] option 2, [G] neither","key_press":76,"name":"choice","trial_type":"html-keyboard-response","trial_index":92,"time_elapsed":215259,"internal_node_id":"0.0-92.0","response":"2nd","certainty":"high","char":"L","transposition":-3,"order":["shifted","swapped"],"probe_pitches":[1,0,5,3,9,7,5,7],"shifted_pitches":[1,0,5,3,8,7,5,7],"swapped_pitches":[1,0,5,9,3,7,5,7],"shift_direction":-1,"question_num":71,"has_decoy":false,"subject":"S1C0817","sona":"41613","block":1,"time":"2021-09-15T21:47:36.538Z"},{"rt":1128.7000000029802,"stimulus":"[A] option 1, [L] option 2, [G] neither","key_press":65,"name":"choice","trial_type":"html-keyboard-response","trial_index":103,"time_elapsed":231425,"internal_node_id":"0.0-103.0","response":"1st","certainty":"high","char":"A","transposition":-2,"order":["swapped","shifted"],"probe_pitches":[6,4,-1,2,-3,-1,2,4],"shifted_pitches":[6,4,-1,1,-3,-1,2,4],"swapped_pitches":[6,4,-1,-3,2,-1,2,4],"shift_direction":-1,"question_num":81,"has_decoy":false,"subject":"S1C0817","sona":"41613","block":1,"time":"2021-09-15T21:47:36.538Z"},{"rt":1219.7000000029802,"stimulus":"[A] option 1, [L] option 2, [G] neither","key_press":76,"name":"choice","trial_type":"html-keyboard-response","trial_index":114,"time_elapsed":247402,"internal_node_id":"0.0-114.0","response":"2nd","certainty":"high","char":"L","transposition":-1,"order":["shifted","swapped"],"probe_pitches":[4,2,-3,2,7,4,0,4],"shifted_pitches":[4,2,-3,2,6,4,0,4],"swapped_pitches":[4,2,-3,7,2,4,0,4],"shift_direction":-1,"question_num":91,"has_decoy":false,"subject":"S1C0817","sona":"41613","block":1,"time":"2021-09-15T21:47:36.538Z"},{"rt":1421.5,"stimulus":"[A] option 1, [L] option 2, [G] neither","key_press":76,"name":"choice","trial_type":"html-keyboard-response","trial_index":125,"time_elapsed":263529,"internal_node_id":"0.0-125.0","response":"2nd","certainty":"high","char":"L","transposition":3,"order":["shifted","swapped"],"probe_pitches":[0,1,6,3,1,4,-1,10],"shifted_pitches":[0,1,6,3,2,4,-1,10],"swapped_pitches":[0,1,6,1,3,4,-1,10],"shift_direction":1,"question_num":101,"has_decoy":false,"subject":"S1C0817","sona":"41613","block":1,"time":"2021-09-15T21:47:36.538Z"},{"rt":1140,"stimulus":"[A] option 1, [L] option 2, [G] neither","key_press":71,"name":"choice","trial_type":"html-keyboard-response","trial_index":136,"time_elapsed":279618,"internal_node_id":"0.0-136.0","response":"neither","certainty":"high","char":"G","transposition":2,"order":["swapped","shifted"],"probe_pitches":[10,7,8,2,3,8,1,0],"shifted_pitches":[10,7,8,2,4,8,1,0],"swapped_pitches":[10,7,8,3,2,8,1,0],"shift_direction":1,"question_num":111,"has_decoy":false,"subject":"S1C0817","sona":"41613","block":1,"time":"2021-09-15T21:47:36.538Z"},{"rt":1239.199999988079,"stimulus":"[A] option 1, [L] option 2, [G] neither","key_press":65,"name":"choice","trial_type":"html-keyboard-response","trial_index":147,"time_elapsed":295862,"internal_node_id":"0.0-147.0","response":"1st","certainty":"high","char":"A","transposition":2,"order":["shifted","swapped"],"probe_pitches":[2,0,2,5,-3,7,5,0],"shifted_pitches":[2,0,2,6,-3,7,5,0],"swapped_pitches":[2,0,2,-3,5,7,5,0],"shift_direction":1,"question_num":121,"has_decoy":false,"subject":"S1C0817","sona":"41613","block":1,"time":"2021-09-15T21:47:36.538Z"},{"rt":1477.6000000089407,"stimulus":"[A] option 1, [L] option 2, [G] neither","key_press":71,"name":"choice","trial_type":"html-keyboard-response","trial_index":158,"time_elapsed":313215,"internal_node_id":"0.0-158.0","response":"neither","certainty":"high","char":"G","transposition":0,"order":["swapped","shifted"],"probe_pitches":[2,6,0,1,4,3,6,10],"shifted_pitches":[2,6,0,1,5,3,6,10],"swapped_pitches":[2,6,0,4,1,3,6,10],"shift_direction":1,"question_num":131,"has_decoy":false,"subject":"S1C0817","sona":"41613","block":1,"time":"2021-09-15T21:47:36.538Z"},{"rt":939.1000000089407,"stimulus":"[A] option 1, [L] option 2, [G] neither","key_press":76,"name":"choice","trial_type":"html-keyboard-response","trial_index":169,"time_elapsed":329253,"internal_node_id":"0.0-169.0","response":"2nd","certainty":"high","char":"L","transposition":-1,"order":["shifted","swapped"],"probe_pitches":[2,-1,-3,4,2,9,6,-3],"shifted_pitches":[2,-1,-3,5,2,9,6,-3],"swapped_pitches":[2,-1,-3,2,4,9,6,-3],"shift_direction":1,"question_num":141,"has_decoy":false,"subject":"S1C0817","sona":"41613","block":1,"time":"2021-09-15T21:47:36.538Z"},{"rt":1630,"stimulus":"[A] option 1, [L] option 2, [G] neither","key_press":71,"name":"choice","trial_type":"html-keyboard-response","trial_index":180,"time_elapsed":346351,"internal_node_id":"0.0-180.0","response":"neither","certainty":"high","char":"G","transposition":-3,"order":["shifted","swapped"],"probe_pitches":[-3,2,7,0,2,5,0,5],"shifted_pitches":[-3,2,7,0,3,5,0,5],"swapped_pitches":[-3,2,7,2,0,5,0,5],"shift_direction":1,"question_num":151,"has_decoy":false,"subject":"S1C0817","sona":"41613","block":1,"time":"2021-09-15T21:47:36.538Z"},{"rt":2623.5,"stimulus":"[A] option 1, [L] option 2, [G] neither","key_press":65,"name":"choice","trial_type":"html-keyboard-response","trial_index":191,"time_elapsed":363660,"internal_node_id":"0.0-191.0","response":"1st","certainty":"high","char":"A","transposition":-1,"order":["shifted","swapped"],"probe_pitches":[8,6,10,8,6,5,11,10],"shifted_pitches":[8,6,10,7,6,5,11,10],"swapped_pitches":[8,6,10,6,8,5,11,10],"shift_direction":-1,"question_num":161,"has_decoy":false,"subject":"S1C0817","sona":"41613","block":1,"time":"2021-09-15T21:47:36.538Z"},{"rt":1470.2999999970198,"stimulus":"[A] option 1, [L] option 2, [G] neither","key_press":71,"name":"choice","trial_type":"html-keyboard-response","trial_index":202,"time_elapsed":380947,"internal_node_id":"0.0-202.0","response":"neither","certainty":"high","char":"G","transposition":-3,"order":["swapped","shifted"],"probe_pitches":[3,9,7,11,9,0,9,3],"shifted_pitches":[3,9,7,10,9,0,9,3],"swapped_pitches":[3,9,7,9,11,0,9,3],"shift_direction":-1,"question_num":171,"has_decoy":false,"subject":"S1C0817","sona":"41613","block":1,"time":"2021-09-15T21:47:36.538Z"},{"rt":905.5,"stimulus":"[A] option 1, [L] option 2, [G] neither","key_press":76,"name":"choice","trial_type":"html-keyboard-response","trial_index":213,"time_elapsed":396673,"internal_node_id":"0.0-213.0","response":"2nd","certainty":"high","char":"L","transposition":-3,"order":["shifted","swapped"],"probe_pitches":[6,1,-1,4,6,-3,-1,6],"shifted_pitches":[6,1,-1,4,7,-3,-1,6],"swapped_pitches":[6,1,-1,6,4,-3,-1,6],"shift_direction":1,"question_num":181,"has_decoy":false,"subject":"S1C0817","sona":"41613","block":1,"time":"2021-09-15T21:47:36.538Z"},{"rt":2150.5999999940395,"stimulus":"[A] option 1, [L] option 2, [G] neither","key_press":71,"name":"choice","trial_type":"html-keyboard-response","trial_index":224,"time_elapsed":413785,"internal_node_id":"0.0-224.0","response":"neither","certainty":"high","char":"G","transposition":1,"order":["swapped","shifted"],"probe_pitches":[2,4,-1,7,2,-1,9,4],"shifted_pitches":[2,4,-1,6,2,-1,9,4],"swapped_pitches":[2,4,-1,2,7,-1,9,4],"shift_direction":-1,"question_num":191,"has_decoy":false,"subject":"S1C0817","sona":"41613","block":1,"time":"2021-09-15T21:47:36.538Z"}]