[{"rt":1070.2999999970198,"stimulus":"[A] option 1, [L] option 2, [G] neither","key_press":71,"name":"choice","trial_type":"html-keyboard-response","trial_index":10,"time_elapsed":18732,"internal_node_id":"0.0-10.0","subject":"S1C0817","sona":"41613","block":4,"time":"2021-09-15T22:05:53.278Z","response":"neither","certainty":"high","char":"G","transposition":-1,"order":["shifted","swapped"],"probe_pitches":[9,4,-3,-1,2,9,4,6],"shifted_pitches":[9,4,-3,-1,3,9,4,6],"swapped_pitches":[9,4,-3,2,-1,9,4,6],"shift_direction":1,"question_num":1,"has_decoy":false},{"rt":1130.800000011921,"stimulus":"[A] option 1, [L] option 2, [G] neither","key_press":76,"name":"choice","trial_type":"html-keyboard-response","trial_index":21,"time_elapsed":34182,"internal_node_id":"0.0-21.0","subject":"S1C0817","sona":"41613","block":4,"time":"2021-09-15T22:05:53.278Z","response":"2nd","certainty":"high","char":"L","transposition":-2,"order":["swapped","shifted"],"probe_pitches":[3,0,6,-2,4,8,0,4],"shifted_pitches":[3,0,6,-2,5,8,0,4],"swapped_pitches":[3,0,6,4,-2,8,0,4],"shift_direction":1,"question_num":11,"has_decoy":false},{"rt":2335.9000000059605,"stimulus":"[A] option 1, [L] option 2, [G] neither","key_press":76,"name":"choice","trial_type":"html-keyboard-response","trial_index":32,"time_elapsed":51043,"internal_node_id":"0.0-32.0","subject":"S1C0817","sona":"41613","block":4,"time":"2021-09-15T22:05:53.278Z","response":"2nd","certainty":"high","char":"L","transposition":-1,"order":["swapped","shifted"],"probe_pitches":[7,5,2,7,5,3,4,9],"shifted_pitches":[7,5,2,8,5,3,4,9],"swapped_pitches":[7,5,2,5,7,3,4,9],"shift_direction":1,"question_num":21,"has_decoy":false},{"rt":1327.7999999970198,"stimulus":"[A] option 1, [L] option 2, [G] neither","key_press":71,"name":"choice","trial_type":"html-keyboard-response","trial_index":43,"time_elapsed":66761,"internal_node_id":"0.0-43.0","subject":"S1C0817","sona":"41613","block":4,"time":"2021-09-15T22:05:53.278Z","response":"neither","certainty":"high","char":"G","transposition":-3,"order":["swapped","shifted"],"probe_pitches":[5,3,6,-2,5,-3,-1,-2],"shifted_pitches":[5,3,6,-2,4,-3,-1,-2],"swapped_pitches":[5,3,6,5,-2,-3,-1,-2],"shift_direction":-1,"question_num":31,"has_decoy":false},{"rt":2478.2999999970198,"stimulus":"[A] option 1, [L] option 2, [G] neither","key_press":76,"name":"choice","trial_type":"html-keyboard-response","trial_index":54,"time_elapsed":84797,"internal_node_id":"0.0-54.0","subject":"S1C0817","sona":"41613","block":4,"time":"2021-09-15T22:05:53.278Z","response":"2nd","certainty":"high","char":"L","transposition":0,"order":["swapped","shifted"],"probe_pitches":[-1,1,4,-3,6,1,4,9],"shifted_pitches":[-1,1,4,-4,6,1,4,9],"swapped_pitches":[-1,1,4,6,-3,1,4,9],"shift_direction":-1,"question_num":41,"has_decoy":false},{"rt":3066,"stimulus":"[A] option 1, [L] option 2, [G] neither","key_press":71,"name":"choice","trial_type":"html-keyboard-response","trial_index":65,"time_elapsed":102691,"internal_node_id":"0.0-65.0","subject":"S1C0817","sona":"41613","block":4,"time":"2021-09-15T22:05:53.278Z","response":"neither","certainty":"high","char":"G","transposition":-1,"order":["swapped","shifted"],"probe_pitches":[-1,0,-3,2,8,-1,3,8],"shifted_pitches":[-1,0,-3,1,8,-1,3,8],"swapped_pitches":[-1,0,-3,8,2,-1,3,8],"shift_direction":-1,"question_num":51,"has_decoy":false},{"rt":3816.9000000059605,"stimulus":"[A] option 1, [L] option 2, [G] neither","key_press":65,"name":"choice","trial_type":"html-keyboard-response","trial_index":76,"time_elapsed":121413,"internal_node_id":"0.0-76.0","subject":"S1C0817","sona":"41613","block":4,"time":"2021-09-15T22:05:53.278Z","response":"1st","certainty":"high","char":"A","transposition":1,"order":["shifted","swapped"],"probe_pitches":[7,5,7,5,0,9,2,9],"shifted_pitches":[7,5,7,5,1,9,2,9],"swapped_pitches":[7,5,7,0,5,9,2,9],"shift_direction":1,"question_num":61,"has_decoy":false},{"rt":1130.5,"stimulus":"[A] option 1, [L] option 2, [G] neither","key_press":71,"name":"choice","trial_type":"html-keyboard-response","trial_index":87,"time_elapsed":136980,"internal_node_id":"0.0-87.0","subject":"S1C0817","sona":"41613","block":4,"time":"2021-09-15T22:05:53.278Z","response":"neither","certainty":"high","char":"G","transposition":1,"order":["shifted","swapped"],"probe_pitches":[6,9,5,-3,-2,6,-2,5],"shifted_pitches":[6,9,5,-3,-1,6,-2,5],"swapped_pitches":[6,9,5,-2,-3,6,-2,5],"shift_direction":1,"question_num":71,"has_decoy":false},{"rt":3313.5,"stimulus":"[A] option 1, [L] option 2, [G] neither","key_press":71,"name":"choice","trial_type":"html-keyboard-response","trial_index":98,"time_elapsed":154899,"internal_node_id":"0.0-98.0","subject":"S1C0817","sona":"41613","block":4,"time":"2021-09-15T22:05:53.278Z","response":"neither","certainty":"high","char":"G","transposition":-1,"order":["swapped","shifted"],"probe_pitches":[-3,-1,4,2,7,4,-3,9],"shifted_pitches":[-3,-1,4,2,6,4,-3,9],"swapped_pitches":[-3,-1,4,7,2,4,-3,9],"shift_direction":-1,"question_num":81,"has_decoy":false},{"rt":1624.4000000059605,"stimulus":"[A] option 1, [L] option 2, [G] neither","key_press":71,"name":"choice","trial_type":"html-keyboard-response","trial_index":109,"time_elapsed":171010,"internal_node_id":"0.0-109.0","subject":"S1C0817","sona":"41613","block":4,"time":"2021-09-15T22:05:53.278Z","response":"neither","certainty":"high","char":"G","transposition":3,"order":["shifted","swapped"],"probe_pitches":[1,6,-1,1,4,6,1,-3],"shifted_pitches":[1,6,-1,0,4,6,1,-3],"swapped_pitches":[1,6,-1,4,1,6,1,-3],"shift_direction":-1,"question_num":91,"has_decoy":false},{"rt":1233.2999999970198,"stimulus":"[A] option 1, [L] option 2, [G] neither","key_press":71,"name":"choice","trial_type":"html-keyboard-response","trial_index":120,"time_elapsed":186646,"internal_node_id":"0.0-120.0","subject":"S1C0817","sona":"41613","block":4,"time":"2021-09-15T22:05:53.278Z","response":"neither","certainty":"high","char":"G","transposition":-2,"order":["shifted","swapped"],"probe_pitches":[4,-1,4,2,-3,4,6,9],"shifted_pitches":[4,-1,4,2,-4,4,6,9],"swapped_pitches":[4,-1,4,-3,2,4,6,9],"shift_direction":-1,"question_num":101,"has_decoy":false},{"rt":849,"stimulus":"[A] option 1, [L] option 2, [G] neither","key_press":76,"name":"choice","trial_type":"html-keyboard-response","trial_index":131,"time_elapsed":201881,"internal_node_id":"0.0-131.0","subject":"S1C0817","sona":"41613","block":4,"time":"2021-09-15T22:05:53.278Z","response":"2nd","certainty":"high","char":"L","transposition":-3,"order":["shifted","swapped"],"probe_pitches":[0,-3,0,5,2,0,2,7],"shifted_pitches":[0,-3,0,6,2,0,2,7],"swapped_pitches":[0,-3,0,2,5,0,2,7],"shift_direction":1,"question_num":111,"has_decoy":false},{"rt":2110,"stimulus":"[A] option 1, [L] option 2, [G] neither","key_press":65,"name":"choice","trial_type":"html-keyboard-response","trial_index":142,"time_elapsed":218382,"internal_node_id":"0.0-142.0","subject":"S1C0817","sona":"41613","block":4,"time":"2021-09-15T22:05:53.278Z","response":"1st","certainty":"high","char":"A","transposition":-2,"order":["shifted","swapped"],"probe_pitches":[6,7,5,1,-3,4,-1,-3],"shifted_pitches":[6,7,5,0,-3,4,-1,-3],"swapped_pitches":[6,7,5,-3,1,4,-1,-3],"shift_direction":-1,"question_num":121,"has_decoy":false},{"rt":589.6000000089407,"stimulus":"[A] option 1, [L] option 2, [G] neither","key_press":76,"name":"choice","trial_type":"html-keyboard-response","trial_index":153,"time_elapsed":233416,"internal_node_id":"0.0-153.0","subject":"S1C0817","sona":"41613","block":4,"time":"2021-09-15T22:05:53.278Z","response":"2nd","certainty":"high","char":"L","transposition":-3,"order":["shifted","swapped"],"probe_pitches":[9,8,6,9,8,0,5,9],"shifted_pitches":[9,8,6,9,7,0,5,9],"swapped_pitches":[9,8,6,8,9,0,5,9],"shift_direction":-1,"question_num":131,"has_decoy":false},{"rt":772,"stimulus":"[A] option 1, [L] option 2, [G] neither","key_press":76,"name":"choice","trial_type":"html-keyboard-response","trial_index":164,"time_elapsed":248959,"internal_node_id":"0.0-164.0","subject":"S1C0817","sona":"41613","block":4,"time":"2021-09-15T22:05:53.278Z","response":"2nd","certainty":"high","char":"L","transposition":-2,"order":["swapped","shifted"],"probe_pitches":[2,4,-1,4,9,2,7,9],"shifted_pitches":[2,4,-1,4,10,2,7,9],"swapped_pitches":[2,4,-1,9,4,2,7,9],"shift_direction":1,"question_num":141,"has_decoy":false},{"rt":791.5,"stimulus":"[A] option 1, [L] option 2, [G] neither","key_press":65,"name":"choice","trial_type":"html-keyboard-response","trial_index":175,"time_elapsed":264253,"internal_node_id":"0.0-175.0","subject":"S1C0817","sona":"41613","block":4,"time":"2021-09-15T22:05:53.278Z","response":"1st","certainty":"high","char":"A","transposition":-3,"order":["swapped","shifted"],"probe_pitches":[7,2,4,2,7,9,0,2],"shifted_pitches":[7,2,4,3,7,9,0,2],"swapped_pitches":[7,2,4,7,2,9,0,2],"shift_direction":1,"question_num":151,"has_decoy":false},{"rt":819.6999999880791,"stimulus":"[A] option 1, [L] option 2, [G] neither","key_press":71,"name":"choice","trial_type":"html-keyboard-response","trial_index":186,"time_elapsed":279676,"internal_node_id":"0.0-186.0","subject":"S1C0817","sona":"41613","block":4,"time":"2021-09-15T22:05:53.278Z","response":"neither","certainty":"high","char":"G","transposition":0,"order":["swapped","shifted"],"probe_pitches":[4,5,6,0,1,-2,4,5],"shifted_pitches":[4,5,6,0,2,-2,4,5],"swapped_pitches":[4,5,6,1,0,-2,4,5],"shift_direction":1,"question_num":161,"has_decoy":false},{"rt":2125.0999999940395,"stimulus":"[A] option 1, [L] option 2, [G] neither","key_press":71,"name":"choice","trial_type":"html-keyboard-response","trial_index":197,"time_elapsed":296382,"internal_node_id":"0.0-197.0","subject":"S1C0817","sona":"41613","block":4,"time":"2021-09-15T22:05:53.278Z","response":"neither","certainty":"high","char":"G","transposition":2,"order":["swapped","shifted"],"probe_pitches":[7,4,2,9,4,0,-3,7],"shifted_pitches":[7,4,2,8,4,0,-3,7],"swapped_pitches":[7,4,2,4,9,0,-3,7],"shift_direction":-1,"question_num":171,"has_decoy":false},{"rt":982.7000000029802,"stimulus":"[A] option 1, [L] option 2, [G] neither","key_press":76,"name":"choice","trial_type":"html-keyboard-response","trial_index":208,"time_elapsed":312594,"internal_node_id":"0.0-208.0","subject":"S1C0817","sona":"41613","block":4,"time":"2021-09-15T22:05:53.278Z","response":"2nd","certainty":"high","char":"L","transposition":2,"order":["shifted","swapped"],"probe_pitches":[1,-3,-2,4,8,1,5,2],"shifted_pitches":[1,-3,-2,3,8,1,5,2],"swapped_pitches":[1,-3,-2,8,4,1,5,2],"shift_direction":-1,"question_num":181,"has_decoy":false},{"rt":978.7000000029802,"stimulus":"[A] option 1, [L] option 2, [G] neither","key_press":65,"name":"choice","trial_type":"html-keyboard-response","trial_index":219,"time_elapsed":328833,"internal_node_id":"0.0-219.0","subject":"S1C0817","sona":"41613","block":4,"time":"2021-09-15T22:05:53.278Z","response":"1st","certainty":"high","char":"A","transposition":3,"order":["shifted","swapped"],"probe_pitches":[9,8,9,5,-3,0,9,0],"shifted_pitches":[9,8,9,6,-3,0,9,0],"swapped_pitches":[9,8,9,-3,5,0,9,0],"shift_direction":1,"question_num":191,"has_decoy":false}]