[{"rt":2152.5999999940395,"stimulus":"[A] option 1, [L] option 2, [G] neither","key_press":76,"name":"choice","trial_type":"html-keyboard-response","trial_index":10,"time_elapsed":20084,"internal_node_id":"0.0-10.0","subject":"S1C0817","sona":"41613","block":5,"time":"2021-09-15T22:11:36.885Z","response":"2nd","certainty":"high","char":"L","transposition":0,"order":["swapped","shifted"],"probe_pitches":[5,4,5,11,3,6,2,8],"shifted_pitches":[5,4,5,12,3,6,2,8],"swapped_pitches":[5,4,5,3,11,6,2,8],"shift_direction":1,"question_num":1,"has_decoy":false},{"rt":1018.5,"stimulus":"[A] option 1, [L] option 2, [G] neither","key_press":65,"name":"choice","trial_type":"html-keyboard-response","trial_index":21,"time_elapsed":35702,"internal_node_id":"0.0-21.0","subject":"S1C0817","sona":"41613","block":5,"time":"2021-09-15T22:11:36.885Z","response":"1st","certainty":"high","char":"A","transposition":-3,"order":["shifted","swapped"],"probe_pitches":[5,8,5,10,3,1,-2,8],"shifted_pitches":[5,8,5,10,4,1,-2,8],"swapped_pitches":[5,8,5,3,10,1,-2,8],"shift_direction":1,"question_num":11,"has_decoy":false},{"rt":500.90000000596046,"stimulus":"[A] option 1, [L] option 2, [G] neither","key_press":76,"name":"choice","trial_type":"html-keyboard-response","trial_index":32,"time_elapsed":51627,"internal_node_id":"0.0-32.0","subject":"S1C0817","sona":"41613","block":5,"time":"2021-09-15T22:11:36.885Z","response":"2nd","certainty":"high","char":"L","transposition":-1,"order":["swapped","shifted"],"probe_pitches":[1,3,6,-2,3,8,-2,6],"shifted_pitches":[1,3,6,-2,2,8,-2,6],"swapped_pitches":[1,3,6,3,-2,8,-2,6],"shift_direction":-1,"question_num":21,"has_decoy":false},{"rt":4829,"stimulus":"[A] option 1, [L] option 2, [G] neither","key_press":71,"name":"choice","trial_type":"html-keyboard-response","trial_index":43,"time_elapsed":70963,"internal_node_id":"0.0-43.0","subject":"S1C0817","sona":"41613","block":5,"time":"2021-09-15T22:11:36.885Z","response":"neither","certainty":"high","char":"G","transposition":-3,"order":["swapped","shifted"],"probe_pitches":[5,3,9,3,7,14,11,8],"shifted_pitches":[5,3,9,4,7,14,11,8],"swapped_pitches":[5,3,9,7,3,14,11,8],"shift_direction":1,"question_num":31,"has_decoy":false},{"rt":779.4000000059605,"stimulus":"[A] option 1, [L] option 2, [G] neither","key_press":65,"name":"choice","trial_type":"html-keyboard-response","trial_index":54,"time_elapsed":86410,"internal_node_id":"0.0-54.0","subject":"S1C0817","sona":"41613","block":5,"time":"2021-09-15T22:11:36.885Z","response":"1st","certainty":"high","char":"A","transposition":-2,"order":["shifted","swapped"],"probe_pitches":[10,5,8,10,1,3,10,8],"shifted_pitches":[10,5,8,9,1,3,10,8],"swapped_pitches":[10,5,8,1,10,3,10,8],"shift_direction":-1,"question_num":41,"has_decoy":false},{"rt":2847.2000000029802,"stimulus":"[A] option 1, [L] option 2, [G] neither","key_press":71,"name":"choice","trial_type":"html-keyboard-response","trial_index":65,"time_elapsed":103702,"internal_node_id":"0.0-65.0","subject":"S1C0817","sona":"41613","block":5,"time":"2021-09-15T22:11:36.885Z","response":"neither","certainty":"high","char":"G","transposition":3,"order":["swapped","shifted"],"probe_pitches":[5,8,12,10,3,13,8,9],"shifted_pitches":[5,8,12,11,3,13,8,9],"swapped_pitches":[5,8,12,3,10,13,8,9],"shift_direction":1,"question_num":51,"has_decoy":false},{"rt":824.0999999940395,"stimulus":"[A] option 1, [L] option 2, [G] neither","key_press":76,"name":"choice","trial_type":"html-keyboard-response","trial_index":76,"time_elapsed":120308,"internal_node_id":"0.0-76.0","subject":"S1C0817","sona":"41613","block":5,"time":"2021-09-15T22:11:36.885Z","response":"2nd","certainty":"high","char":"L","transposition":-2,"order":["swapped","shifted"],"probe_pitches":[10,9,7,6,14,9,8,3],"shifted_pitches":[10,9,7,5,14,9,8,3],"swapped_pitches":[10,9,7,14,6,9,8,3],"shift_direction":-1,"question_num":61,"has_decoy":false},{"rt":3843.699999988079,"stimulus":"[A] option 1, [L] option 2, [G] neither","key_press":65,"name":"choice","trial_type":"html-keyboard-response","trial_index":87,"time_elapsed":140488,"internal_node_id":"0.0-87.0","subject":"S1C0817","sona":"41613","block":5,"time":"2021-09-15T22:11:36.885Z","response":"1st","certainty":"high","char":"A","transposition":-2,"order":["shifted","swapped"],"probe_pitches":[-2,2,7,0,5,2,0,7],"shifted_pitches":[-2,2,7,0,4,2,0,7],"swapped_pitches":[-2,2,7,5,0,2,0,7],"shift_direction":-1,"question_num":71,"has_decoy":false},{"rt":625,"stimulus":"[A] option 1, [L] option 2, [G] neither","key_press":76,"name":"choice","trial_type":"html-keyboard-response","trial_index":98,"time_elapsed":155739,"internal_node_id":"0.0-98.0","subject":"S1C0817","sona":"41613","block":5,"time":"2021-09-15T22:11:36.885Z","response":"2nd","certainty":"high","char":"L","transposition":1,"order":["swapped","shifted"],"probe_pitches":[0,3,8,5,0,-2,8,3],"shifted_pitches":[0,3,8,4,0,-2,8,3],"swapped_pitches":[0,3,8,0,5,-2,8,3],"shift_direction":-1,"question_num":81,"has_decoy":false},{"rt":1404,"stimulus":"[A] option 1, [L] option 2, [G] neither","key_press":71,"name":"choice","trial_type":"html-keyboard-response","trial_index":109,"time_elapsed":171590,"internal_node_id":"0.0-109.0","subject":"S1C0817","sona":"41613","block":5,"time":"2021-09-15T22:11:36.885Z","response":"neither","certainty":"high","char":"G","transposition":2,"order":["shifted","swapped"],"probe_pitches":[2,6,3,9,4,13,12,5],"shifted_pitches":[2,6,3,8,4,13,12,5],"swapped_pitches":[2,6,3,4,9,13,12,5],"shift_direction":-1,"question_num":91,"has_decoy":false},{"rt":3904.7000000029802,"stimulus":"[A] option 1, [L] option 2, [G] neither","key_press":71,"name":"choice","trial_type":"html-keyboard-response","trial_index":120,"time_elapsed":189843,"internal_node_id":"0.0-120.0","subject":"S1C0817","sona":"41613","block":5,"time":"2021-09-15T22:11:36.885Z","response":"neither","certainty":"high","char":"G","transposition":-3,"order":["swapped","shifted"],"probe_pitches":[0,5,10,7,2,10,0,-2],"shifted_pitches":[0,5,10,8,2,10,0,-2],"swapped_pitches":[0,5,10,2,7,10,0,-2],"shift_direction":1,"question_num":101,"has_decoy":false},{"rt":2217,"stimulus":"[A] option 1, [L] option 2, [G] neither","key_press":71,"name":"choice","trial_type":"html-keyboard-response","trial_index":131,"time_elapsed":209278,"internal_node_id":"0.0-131.0","subject":"S1C0817","sona":"41613","block":5,"time":"2021-09-15T22:11:36.885Z","response":"neither","certainty":"high","char":"G","transposition":2,"order":["shifted","swapped"],"probe_pitches":[8,6,8,1,3,10,1,-2],"shifted_pitches":[8,6,8,0,3,10,1,-2],"swapped_pitches":[8,6,8,3,1,10,1,-2],"shift_direction":-1,"question_num":111,"has_decoy":false},{"rt":970.6000000089407,"stimulus":"[A] option 1, [L] option 2, [G] neither","key_press":76,"name":"choice","trial_type":"html-keyboard-response","trial_index":142,"time_elapsed":224709,"internal_node_id":"0.0-142.0","subject":"S1C0817","sona":"41613","block":5,"time":"2021-09-15T22:11:36.885Z","response":"2nd","certainty":"high","char":"L","transposition":-1,"order":["swapped","shifted"],"probe_pitches":[0,5,0,7,-2,3,5,0],"shifted_pitches":[0,5,0,8,-2,3,5,0],"swapped_pitches":[0,5,0,-2,7,3,5,0],"shift_direction":1,"question_num":121,"has_decoy":false},{"rt":1611.2000000029802,"stimulus":"[A] option 1, [L] option 2, [G] neither","key_press":71,"name":"choice","trial_type":"html-keyboard-response","trial_index":153,"time_elapsed":240763,"internal_node_id":"0.0-153.0","subject":"S1C0817","sona":"41613","block":5,"time":"2021-09-15T22:11:36.885Z","response":"neither","certainty":"high","char":"G","transposition":1,"order":["shifted","swapped"],"probe_pitches":[11,12,14,13,6,10,12,11],"shifted_pitches":[11,12,14,13,7,10,12,11],"swapped_pitches":[11,12,14,6,13,10,12,11],"shift_direction":1,"question_num":131,"has_decoy":false},{"rt":857.1999999880791,"stimulus":"[A] option 1, [L] option 2, [G] neither","key_press":65,"name":"choice","trial_type":"html-keyboard-response","trial_index":164,"time_elapsed":256124,"internal_node_id":"0.0-164.0","subject":"S1C0817","sona":"41613","block":5,"time":"2021-09-15T22:11:36.885Z","response":"1st","certainty":"high","char":"A","transposition":-2,"order":["swapped","shifted"],"probe_pitches":[5,4,5,10,7,12,7,10],"shifted_pitches":[5,4,5,10,6,12,7,10],"swapped_pitches":[5,4,5,7,10,12,7,10],"shift_direction":-1,"question_num":141,"has_decoy":false},{"rt":1157.300000011921,"stimulus":"[A] option 1, [L] option 2, [G] neither","key_press":76,"name":"choice","trial_type":"html-keyboard-response","trial_index":175,"time_elapsed":272603,"internal_node_id":"0.0-175.0","subject":"S1C0817","sona":"41613","block":5,"time":"2021-09-15T22:11:36.885Z","response":"2nd","certainty":"high","char":"L","transposition":0,"order":["shifted","swapped"],"probe_pitches":[5,10,3,8,0,3,10,-2],"shifted_pitches":[5,10,3,8,1,3,10,-2],"swapped_pitches":[5,10,3,0,8,3,10,-2],"shift_direction":1,"question_num":151,"has_decoy":false},{"rt":858.2999999970198,"stimulus":"[A] option 1, [L] option 2, [G] neither","key_press":65,"name":"choice","trial_type":"html-keyboard-response","trial_index":186,"time_elapsed":287874,"internal_node_id":"0.0-186.0","subject":"S1C0817","sona":"41613","block":5,"time":"2021-09-15T22:11:36.885Z","response":"1st","certainty":"high","char":"A","transposition":-3,"order":["shifted","swapped"],"probe_pitches":[8,13,12,13,8,10,11,13],"shifted_pitches":[8,13,12,13,9,10,11,13],"swapped_pitches":[8,13,12,8,13,10,11,13],"shift_direction":1,"question_num":161,"has_decoy":false},{"rt":2252.2000000029802,"stimulus":"[A] option 1, [L] option 2, [G] neither","key_press":71,"name":"choice","trial_type":"html-keyboard-response","trial_index":197,"time_elapsed":305069,"internal_node_id":"0.0-197.0","subject":"S1C0817","sona":"41613","block":5,"time":"2021-09-15T22:11:36.885Z","response":"neither","certainty":"high","char":"G","transposition":3,"order":["swapped","shifted"],"probe_pitches":[0,3,7,5,0,7,0,10],"shifted_pitches":[0,3,7,5,1,7,0,10],"swapped_pitches":[0,3,7,0,5,7,0,10],"shift_direction":1,"question_num":171,"has_decoy":false},{"rt":1326.2999999970198,"stimulus":"[A] option 1, [L] option 2, [G] neither","key_press":76,"name":"choice","trial_type":"html-keyboard-response","trial_index":208,"time_elapsed":321201,"internal_node_id":"0.0-208.0","subject":"S1C0817","sona":"41613","block":5,"time":"2021-09-15T22:11:36.885Z","response":"2nd","certainty":"high","char":"L","transposition":-1,"order":["shifted","swapped"],"probe_pitches":[2,4,10,7,14,8,14,6],"shifted_pitches":[2,4,10,7,13,8,14,6],"swapped_pitches":[2,4,10,14,7,8,14,6],"shift_direction":-1,"question_num":181,"has_decoy":false},{"rt":992.1000000089407,"stimulus":"[A] option 1, [L] option 2, [G] neither","key_press":71,"name":"choice","trial_type":"html-keyboard-response","trial_index":219,"time_elapsed":336598,"internal_node_id":"0.0-219.0","subject":"S1C0817","sona":"41613","block":5,"time":"2021-09-15T22:11:36.885Z","response":"neither","certainty":"high","char":"G","transposition":-1,"order":["shifted","swapped"],"probe_pitches":[11,13,6,3,11,12,14,11],"shifted_pitches":[11,13,6,3,10,12,14,11],"swapped_pitches":[11,13,6,11,3,12,14,11],"shift_direction":-1,"question_num":191,"has_decoy":false}]