[{"rt":920.7999997138977,"stimulus":"[A] option 1, [L] option 2, [G] neither","key_press":76,"name":"choice","trial_type":"html-keyboard-response","trial_index":10,"time_elapsed":23105,"internal_node_id":"0.0-10.0","subject":"S1C1204","sona":"41422","block":4,"time":"2021-09-05T22:56:02.210Z","response":"2nd","certainty":"high","char":"L","transposition":-1,"order":["shifted","swapped"],"probe_pitches":[5,2,9,2,9,-1,3,1,0,3,7,10],"shifted_pitches":[5,2,9,2,9,-1,4,1,0,3,7,10],"swapped_pitches":[5,2,9,2,9,3,-1,1,0,3,7,10],"shift_direction":1,"question_num":1,"has_decoy":false},{"rt":901.3000001907349,"stimulus":"[A] option 1, [L] option 2, [G] neither","key_press":65,"name":"choice","trial_type":"html-keyboard-response","trial_index":21,"time_elapsed":43497,"internal_node_id":"0.0-21.0","subject":"S1C1204","sona":"41422","block":4,"time":"2021-09-05T22:56:02.210Z","response":"1st","certainty":"high","char":"A","transposition":-3,"order":["swapped","shifted"],"probe_pitches":[8,10,5,-2,3,-2,8,0,4,2,5,8],"shifted_pitches":[8,10,5,-2,3,-2,7,0,4,2,5,8],"swapped_pitches":[8,10,5,-2,3,8,-2,0,4,2,5,8],"shift_direction":-1,"question_num":11,"has_decoy":false},{"rt":1819.6999998092651,"stimulus":"[A] option 1, [L] option 2, [G] neither","key_press":76,"name":"choice","trial_type":"html-keyboard-response","trial_index":32,"time_elapsed":64773,"internal_node_id":"0.0-32.0","subject":"S1C1204","sona":"41422","block":4,"time":"2021-09-05T22:56:02.210Z","response":"2nd","certainty":"high","char":"L","transposition":3,"order":["shifted","swapped"],"probe_pitches":[3,-1,2,10,8,7,0,3,-2,7,-1,4],"shifted_pitches":[3,-1,2,10,8,7,1,3,-2,7,-1,4],"swapped_pitches":[3,-1,2,10,8,0,7,3,-2,7,-1,4],"shift_direction":1,"question_num":21,"has_decoy":false},{"rt":334.5,"stimulus":"[A] option 1, [L] option 2, [G] neither","key_press":76,"name":"choice","trial_type":"html-keyboard-response","trial_index":43,"time_elapsed":84856,"internal_node_id":"0.0-43.0","subject":"S1C1204","sona":"41422","block":4,"time":"2021-09-05T22:56:02.210Z","response":"2nd","certainty":"high","char":"L","transposition":3,"order":["swapped","shifted"],"probe_pitches":[12,7,0,7,4,0,7,2,7,9,2,4],"shifted_pitches":[12,7,0,7,4,0,6,2,7,9,2,4],"swapped_pitches":[12,7,0,7,4,7,0,2,7,9,2,4],"shift_direction":-1,"question_num":31,"has_decoy":false},{"rt":1901.6000003814697,"stimulus":"[A] option 1, [L] option 2, [G] neither","key_press":76,"name":"choice","trial_type":"html-keyboard-response","trial_index":54,"time_elapsed":106051,"internal_node_id":"0.0-54.0","subject":"S1C1204","sona":"41422","block":4,"time":"2021-09-05T22:56:02.210Z","response":"2nd","certainty":"high","char":"L","transposition":-2,"order":["shifted","swapped"],"probe_pitches":[0,3,0,3,0,7,10,-2,0,-2,4,-2],"shifted_pitches":[0,3,0,3,0,8,10,-2,0,-2,4,-2],"swapped_pitches":[0,3,0,3,0,10,7,-2,0,-2,4,-2],"shift_direction":1,"question_num":41,"has_decoy":false},{"rt":2320.199999809265,"stimulus":"[A] option 1, [L] option 2, [G] neither","key_press":65,"name":"choice","trial_type":"html-keyboard-response","trial_index":65,"time_elapsed":128661,"internal_node_id":"0.0-65.0","subject":"S1C1204","sona":"41422","block":4,"time":"2021-09-05T22:56:02.210Z","response":"1st","certainty":"high","char":"A","transposition":1,"order":["swapped","shifted"],"probe_pitches":[-2,4,5,-1,7,3,8,1,-1,4,3,1],"shifted_pitches":[-2,4,5,-1,7,2,8,1,-1,4,3,1],"swapped_pitches":[-2,4,5,-1,7,8,3,1,-1,4,3,1],"shift_direction":-1,"question_num":51,"has_decoy":false},{"rt":751.7999997138977,"stimulus":"[A] option 1, [L] option 2, [G] neither","key_press":76,"name":"choice","trial_type":"html-keyboard-response","trial_index":76,"time_elapsed":148363,"internal_node_id":"0.0-76.0","subject":"S1C1204","sona":"41422","block":4,"time":"2021-09-05T22:56:02.210Z","response":"2nd","certainty":"high","char":"L","transposition":-2,"order":["swapped","shifted"],"probe_pitches":[10,5,0,7,5,0,3,5,0,7,3,10],"shifted_pitches":[10,5,0,7,5,0,4,5,0,7,3,10],"swapped_pitches":[10,5,0,7,5,3,0,5,0,7,3,10],"shift_direction":1,"question_num":61,"has_decoy":false},{"rt":192.5,"stimulus":"[A] option 1, [L] option 2, [G] neither","key_press":76,"name":"choice","trial_type":"html-keyboard-response","trial_index":87,"time_elapsed":167473,"internal_node_id":"0.0-87.0","subject":"S1C1204","sona":"41422","block":4,"time":"2021-09-05T22:56:02.210Z","response":"2nd","certainty":"high","char":"L","transposition":-3,"order":["swapped","shifted"],"probe_pitches":[3,8,12,10,8,3,0,12,5,10,12,8],"shifted_pitches":[3,8,12,10,8,4,0,12,5,10,12,8],"swapped_pitches":[3,8,12,10,8,0,3,12,5,10,12,8],"shift_direction":1,"question_num":71,"has_decoy":false},{"rt":907.8000001907349,"stimulus":"[A] option 1, [L] option 2, [G] neither","key_press":71,"name":"choice","trial_type":"html-keyboard-response","trial_index":98,"time_elapsed":188252,"internal_node_id":"0.0-98.0","subject":"S1C1204","sona":"41422","block":4,"time":"2021-09-05T22:56:02.210Z","response":"neither","certainty":"high","char":"G","transposition":-1,"order":["shifted","swapped"],"probe_pitches":[7,9,12,9,5,12,2,9,5,12,5,12],"shifted_pitches":[7,9,12,9,5,13,2,9,5,12,5,12],"swapped_pitches":[7,9,12,9,5,2,12,9,5,12,5,12],"shift_direction":1,"question_num":81,"has_decoy":false},{"rt":639.3000001907349,"stimulus":"[A] option 1, [L] option 2, [G] neither","key_press":65,"name":"choice","trial_type":"html-keyboard-response","trial_index":109,"time_elapsed":208416,"internal_node_id":"0.0-109.0","subject":"S1C1204","sona":"41422","block":4,"time":"2021-09-05T22:56:02.210Z","response":"1st","certainty":"high","char":"A","transposition":-2,"order":["shifted","swapped"],"probe_pitches":[12,10,7,0,7,5,12,2,12,5,0,12],"shifted_pitches":[12,10,7,0,7,4,12,2,12,5,0,12],"swapped_pitches":[12,10,7,0,7,12,5,2,12,5,0,12],"shift_direction":-1,"question_num":91,"has_decoy":false},{"rt":2232,"stimulus":"[A] option 1, [L] option 2, [G] neither","key_press":65,"name":"choice","trial_type":"html-keyboard-response","trial_index":120,"time_elapsed":230095,"internal_node_id":"0.0-120.0","subject":"S1C1204","sona":"41422","block":4,"time":"2021-09-05T22:56:02.210Z","response":"1st","certainty":"high","char":"A","transposition":-1,"order":["shifted","swapped"],"probe_pitches":[1,-2,4,2,4,5,3,9,2,9,-1,9],"shifted_pitches":[1,-2,4,2,4,6,3,9,2,9,-1,9],"swapped_pitches":[1,-2,4,2,4,3,5,9,2,9,-1,9],"shift_direction":1,"question_num":101,"has_decoy":false},{"rt":2002.3999996185303,"stimulus":"[A] option 1, [L] option 2, [G] neither","key_press":71,"name":"choice","trial_type":"html-keyboard-response","trial_index":131,"time_elapsed":252606,"internal_node_id":"0.0-131.0","subject":"S1C1204","sona":"41422","block":4,"time":"2021-09-05T22:56:02.210Z","response":"neither","certainty":"high","char":"G","transposition":-3,"order":["shifted","swapped"],"probe_pitches":[12,8,10,5,8,10,3,0,8,0,8,0],"shifted_pitches":[12,8,10,5,8,9,3,0,8,0,8,0],"swapped_pitches":[12,8,10,5,8,3,10,0,8,0,8,0],"shift_direction":-1,"question_num":111,"has_decoy":false},{"rt":457.90000009536743,"stimulus":"[A] option 1, [L] option 2, [G] neither","key_press":65,"name":"choice","trial_type":"html-keyboard-response","trial_index":142,"time_elapsed":272268,"internal_node_id":"0.0-142.0","subject":"S1C1204","sona":"41422","block":4,"time":"2021-09-05T22:56:02.210Z","response":"1st","certainty":"high","char":"A","transposition":1,"order":["shifted","swapped"],"probe_pitches":[0,2,0,7,5,2,12,7,2,10,7,0],"shifted_pitches":[0,2,0,7,5,2,11,7,2,10,7,0],"swapped_pitches":[0,2,0,7,5,12,2,7,2,10,7,0],"shift_direction":-1,"question_num":121,"has_decoy":false},{"rt":2340.7000002861023,"stimulus":"[A] option 1, [L] option 2, [G] neither","key_press":65,"name":"choice","trial_type":"html-keyboard-response","trial_index":153,"time_elapsed":293426,"internal_node_id":"0.0-153.0","subject":"S1C1204","sona":"41422","block":4,"time":"2021-09-05T22:56:02.210Z","response":"1st","certainty":"high","char":"A","transposition":2,"order":["swapped","shifted"],"probe_pitches":[7,2,-2,2,10,9,2,4,-1,10,-1,4],"shifted_pitches":[7,2,-2,2,10,9,3,4,-1,10,-1,4],"swapped_pitches":[7,2,-2,2,10,2,9,4,-1,10,-1,4],"shift_direction":1,"question_num":131,"has_decoy":false},{"rt":658.8999996185303,"stimulus":"[A] option 1, [L] option 2, [G] neither","key_press":76,"name":"choice","trial_type":"html-keyboard-response","trial_index":164,"time_elapsed":313836,"internal_node_id":"0.0-164.0","subject":"S1C1204","sona":"41422","block":4,"time":"2021-09-05T22:56:02.210Z","response":"2nd","certainty":"high","char":"L","transposition":2,"order":["swapped","shifted"],"probe_pitches":[9,5,2,0,7,2,0,12,2,5,12,7],"shifted_pitches":[9,5,2,0,7,2,-1,12,2,5,12,7],"swapped_pitches":[9,5,2,0,7,0,2,12,2,5,12,7],"shift_direction":-1,"question_num":141,"has_decoy":false},{"rt":719.2999997138977,"stimulus":"[A] option 1, [L] option 2, [G] neither","key_press":76,"name":"choice","trial_type":"html-keyboard-response","trial_index":175,"time_elapsed":333861,"internal_node_id":"0.0-175.0","subject":"S1C1204","sona":"41422","block":4,"time":"2021-09-05T22:56:02.210Z","response":"2nd","certainty":"high","char":"L","transposition":0,"order":["swapped","shifted"],"probe_pitches":[7,12,9,4,0,9,7,2,7,12,9,12],"shifted_pitches":[7,12,9,4,0,10,7,2,7,12,9,12],"swapped_pitches":[7,12,9,4,0,7,9,2,7,12,9,12],"shift_direction":1,"question_num":151,"has_decoy":false},{"rt":2597.199999809265,"stimulus":"[A] option 1, [L] option 2, [G] neither","key_press":76,"name":"choice","trial_type":"html-keyboard-response","trial_index":186,"time_elapsed":355435,"internal_node_id":"0.0-186.0","subject":"S1C1204","sona":"41422","block":4,"time":"2021-09-05T22:56:02.210Z","response":"2nd","certainty":"high","char":"L","transposition":-3,"order":["shifted","swapped"],"probe_pitches":[-1,1,-2,4,6,1,7,8,-1,3,7,3],"shifted_pitches":[-1,1,-2,4,6,0,7,8,-1,3,7,3],"swapped_pitches":[-1,1,-2,4,6,7,1,8,-1,3,7,3],"shift_direction":-1,"question_num":161,"has_decoy":false},{"rt":1167.6999998092651,"stimulus":"[A] option 1, [L] option 2, [G] neither","key_press":76,"name":"choice","trial_type":"html-keyboard-response","trial_index":197,"time_elapsed":399825,"internal_node_id":"0.0-197.0","subject":"S1C1204","sona":"41422","block":4,"time":"2021-09-05T22:56:02.210Z","response":"2nd","certainty":"high","char":"L","transposition":0,"order":["swapped","shifted"],"probe_pitches":[0,5,10,7,4,10,8,-1,2,6,0,5],"shifted_pitches":[0,5,10,7,4,9,8,-1,2,6,0,5],"swapped_pitches":[0,5,10,7,4,8,10,-1,2,6,0,5],"shift_direction":-1,"question_num":171,"has_decoy":false},{"rt":1219.8000001907349,"stimulus":"[A] option 1, [L] option 2, [G] neither","key_press":71,"name":"choice","trial_type":"html-keyboard-response","trial_index":208,"time_elapsed":419973,"internal_node_id":"0.0-208.0","subject":"S1C1204","sona":"41422","block":4,"time":"2021-09-05T22:56:02.210Z","response":"neither","certainty":"high","char":"G","transposition":-1,"order":["shifted","swapped"],"probe_pitches":[0,3,10,12,10,5,7,3,0,7,12,0],"shifted_pitches":[0,3,10,12,10,5,8,3,0,7,12,0],"swapped_pitches":[0,3,10,12,10,7,5,3,0,7,12,0],"shift_direction":1,"question_num":181,"has_decoy":false},{"rt":521.4000000953674,"stimulus":"[A] option 1, [L] option 2, [G] neither","key_press":65,"name":"choice","trial_type":"html-keyboard-response","trial_index":219,"time_elapsed":439403,"internal_node_id":"0.0-219.0","subject":"S1C1204","sona":"41422","block":4,"time":"2021-09-05T22:56:02.210Z","response":"1st","certainty":"high","char":"A","transposition":-2,"order":["swapped","shifted"],"probe_pitches":[8,2,4,1,7,10,6,9,0,1,3,1],"shifted_pitches":[8,2,4,1,7,10,5,9,0,1,3,1],"swapped_pitches":[8,2,4,1,7,6,10,9,0,1,3,1],"shift_direction":-1,"question_num":191,"has_decoy":false}]