[{"rt":6400.700000286102,"stimulus":"[A] option 1, [L] option 2, [G] neither","key_press":76,"name":"choice","trial_type":"html-keyboard-response","trial_index":15,"time_elapsed":66185,"internal_node_id":"0.0-15.0","response":"2nd","certainty":"high","char":"L","transposition":3,"order":["shifted","swapped"],"probe_pitches":[4,1,2,7,6,4,1,6,3,11,3,7],"shifted_pitches":[4,1,2,7,6,5,1,6,3,11,3,7],"swapped_pitches":[4,1,2,7,6,1,4,6,3,11,3,7],"shift_direction":1,"question_num":1,"has_decoy":false,"subject":"S1C1204","sona":"41422","block":1,"time":"2021-09-05T22:31:38.912Z"},{"rt":3368.4000000953674,"stimulus":"[A] option 1, [L] option 2, [G] neither","key_press":76,"name":"choice","trial_type":"html-keyboard-response","trial_index":26,"time_elapsed":89191,"internal_node_id":"0.0-26.0","response":"2nd","certainty":"high","char":"L","transposition":-1,"order":["swapped","shifted"],"probe_pitches":[8,3,9,2,10,3,6,0,3,2,3,-1],"shifted_pitches":[8,3,9,2,10,3,7,0,3,2,3,-1],"swapped_pitches":[8,3,9,2,10,6,3,0,3,2,3,-1],"shift_direction":1,"question_num":11,"has_decoy":false,"subject":"S1C1204","sona":"41422","block":1,"time":"2021-09-05T22:31:38.912Z"},{"rt":1672.8000001907349,"stimulus":"[A] option 1, [L] option 2, [G] neither","key_press":76,"name":"choice","trial_type":"html-keyboard-response","trial_index":37,"time_elapsed":112140,"internal_node_id":"0.0-37.0","response":"2nd","certainty":"high","char":"L","transposition":-1,"order":["swapped","shifted"],"probe_pitches":[-3,-1,6,1,6,-3,4,6,-3,4,1,4],"shifted_pitches":[-3,-1,6,1,6,-4,4,6,-3,4,1,4],"swapped_pitches":[-3,-1,6,1,6,4,-3,6,-3,4,1,4],"shift_direction":-1,"question_num":21,"has_decoy":false,"subject":"S1C1204","sona":"41422","block":1,"time":"2021-09-05T22:31:38.912Z"},{"rt":2502.5,"stimulus":"[A] option 1, [L] option 2, [G] neither","key_press":76,"name":"choice","trial_type":"html-keyboard-response","trial_index":48,"time_elapsed":134559,"internal_node_id":"0.0-48.0","response":"2nd","certainty":"high","char":"L","transposition":-2,"order":["swapped","shifted"],"probe_pitches":[10,11,6,-1,3,0,7,5,9,8,3,10],"shifted_pitches":[10,11,6,-1,3,1,7,5,9,8,3,10],"swapped_pitches":[10,11,6,-1,3,7,0,5,9,8,3,10],"shift_direction":1,"question_num":31,"has_decoy":false,"subject":"S1C1204","sona":"41422","block":1,"time":"2021-09-05T22:31:38.912Z"},{"rt":1602.7000002861023,"stimulus":"[A] option 1, [L] option 2, [G] neither","key_press":76,"name":"choice","trial_type":"html-keyboard-response","trial_index":59,"time_elapsed":157143,"internal_node_id":"0.0-59.0","response":"2nd","certainty":"high","char":"L","transposition":-3,"order":["swapped","shifted"],"probe_pitches":[6,2,4,-1,-3,6,2,-3,-1,6,9,4],"shifted_pitches":[6,2,4,-1,-3,7,2,-3,-1,6,9,4],"swapped_pitches":[6,2,4,-1,-3,2,6,-3,-1,6,9,4],"shift_direction":1,"question_num":41,"has_decoy":false,"subject":"S1C1204","sona":"41422","block":1,"time":"2021-09-05T22:31:38.912Z"},{"rt":1942.1999998092651,"stimulus":"[A] option 1, [L] option 2, [G] neither","key_press":65,"name":"choice","trial_type":"html-keyboard-response","trial_index":70,"time_elapsed":177899,"internal_node_id":"0.0-70.0","response":"1st","certainty":"high","char":"A","transposition":2,"order":["shifted","swapped"],"probe_pitches":[7,1,2,10,2,7,9,6,-1,9,5,0],"shifted_pitches":[7,1,2,10,2,7,8,6,-1,9,5,0],"swapped_pitches":[7,1,2,10,2,9,7,6,-1,9,5,0],"shift_direction":-1,"question_num":51,"has_decoy":false,"subject":"S1C1204","sona":"41422","block":1,"time":"2021-09-05T22:31:38.912Z"},{"rt":5115.200000286102,"stimulus":"[A] option 1, [L] option 2, [G] neither","key_press":76,"name":"choice","trial_type":"html-keyboard-response","trial_index":81,"time_elapsed":202677,"internal_node_id":"0.0-81.0","response":"2nd","certainty":"high","char":"L","transposition":-1,"order":["swapped","shifted"],"probe_pitches":[6,9,11,5,6,8,4,9,7,6,7,9],"shifted_pitches":[6,9,11,5,6,8,3,9,7,6,7,9],"swapped_pitches":[6,9,11,5,6,4,8,9,7,6,7,9],"shift_direction":-1,"question_num":61,"has_decoy":false,"subject":"S1C1204","sona":"41422","block":1,"time":"2021-09-05T22:31:38.912Z"},{"rt":1670.7999997138977,"stimulus":"[A] option 1, [L] option 2, [G] neither","key_press":71,"name":"choice","trial_type":"html-keyboard-response","trial_index":92,"time_elapsed":267127,"internal_node_id":"0.0-92.0","response":"neither","certainty":"high","char":"G","transposition":-3,"order":["shifted","swapped"],"probe_pitches":[4,8,11,10,4,0,1,10,3,8,0,4],"shifted_pitches":[4,8,11,10,4,0,2,10,3,8,0,4],"swapped_pitches":[4,8,11,10,4,1,0,10,3,8,0,4],"shift_direction":1,"question_num":71,"has_decoy":false,"subject":"S1C1204","sona":"41422","block":1,"time":"2021-09-05T22:31:38.912Z"},{"rt":1195.4000000953674,"stimulus":"[A] option 1, [L] option 2, [G] neither","key_press":76,"name":"choice","trial_type":"html-keyboard-response","trial_index":103,"time_elapsed":288107,"internal_node_id":"0.0-103.0","response":"2nd","certainty":"high","char":"L","transposition":0,"order":["swapped","shifted"],"probe_pitches":[7,2,-1,4,9,4,-3,2,7,4,2,-1],"shifted_pitches":[7,2,-1,4,9,4,-2,2,7,4,2,-1],"swapped_pitches":[7,2,-1,4,9,-3,4,2,7,4,2,-1],"shift_direction":1,"question_num":81,"has_decoy":false,"subject":"S1C1204","sona":"41422","block":1,"time":"2021-09-05T22:31:38.912Z"},{"rt":1194.4000000953674,"stimulus":"[A] option 1, [L] option 2, [G] neither","key_press":76,"name":"choice","trial_type":"html-keyboard-response","trial_index":114,"time_elapsed":308315,"internal_node_id":"0.0-114.0","response":"2nd","certainty":"high","char":"L","transposition":1,"order":["swapped","shifted"],"probe_pitches":[11,8,5,0,8,-1,7,3,5,3,0,3],"shifted_pitches":[11,8,5,0,8,-2,7,3,5,3,0,3],"swapped_pitches":[11,8,5,0,8,7,-1,3,5,3,0,3],"shift_direction":-1,"question_num":91,"has_decoy":false,"subject":"S1C1204","sona":"41422","block":1,"time":"2021-09-05T22:31:38.912Z"},{"rt":1360.4000000953674,"stimulus":"[A] option 1, [L] option 2, [G] neither","key_press":76,"name":"choice","trial_type":"html-keyboard-response","trial_index":125,"time_elapsed":330257,"internal_node_id":"0.0-125.0","response":"2nd","certainty":"high","char":"L","transposition":-2,"order":["swapped","shifted"],"probe_pitches":[-1,4,3,10,6,10,-1,0,10,6,1,0],"shifted_pitches":[-1,4,3,10,6,9,-1,0,10,6,1,0],"swapped_pitches":[-1,4,3,10,6,-1,10,0,10,6,1,0],"shift_direction":-1,"question_num":101,"has_decoy":false,"subject":"S1C1204","sona":"41422","block":1,"time":"2021-09-05T22:31:38.912Z"},{"rt":2425.699999809265,"stimulus":"[A] option 1, [L] option 2, [G] neither","key_press":71,"name":"choice","trial_type":"html-keyboard-response","trial_index":136,"time_elapsed":351861,"internal_node_id":"0.0-136.0","response":"neither","certainty":"high","char":"G","transposition":2,"order":["shifted","swapped"],"probe_pitches":[0,-3,2,9,7,5,-3,7,5,-3,2,7],"shifted_pitches":[0,-3,2,9,7,6,-3,7,5,-3,2,7],"swapped_pitches":[0,-3,2,9,7,-3,5,7,5,-3,2,7],"shift_direction":1,"question_num":111,"has_decoy":false,"subject":"S1C1204","sona":"41422","block":1,"time":"2021-09-05T22:31:38.912Z"},{"rt":3366.199999809265,"stimulus":"[A] option 1, [L] option 2, [G] neither","key_press":71,"name":"choice","trial_type":"html-keyboard-response","trial_index":147,"time_elapsed":374162,"internal_node_id":"0.0-147.0","response":"neither","certainty":"high","char":"G","transposition":-3,"order":["shifted","swapped"],"probe_pitches":[5,9,5,9,2,-3,0,2,5,7,2,7],"shifted_pitches":[5,9,5,9,2,-3,-1,2,5,7,2,7],"swapped_pitches":[5,9,5,9,2,0,-3,2,5,7,2,7],"shift_direction":-1,"question_num":121,"has_decoy":false,"subject":"S1C1204","sona":"41422","block":1,"time":"2021-09-05T22:31:38.912Z"},{"rt":756.7999997138977,"stimulus":"[A] option 1, [L] option 2, [G] neither","key_press":76,"name":"choice","trial_type":"html-keyboard-response","trial_index":158,"time_elapsed":394764,"internal_node_id":"0.0-158.0","response":"2nd","certainty":"high","char":"L","transposition":-3,"order":["shifted","swapped"],"probe_pitches":[0,2,0,-1,7,10,5,3,1,9,8,1],"shifted_pitches":[0,2,0,-1,7,10,6,3,1,9,8,1],"swapped_pitches":[0,2,0,-1,7,5,10,3,1,9,8,1],"shift_direction":1,"question_num":131,"has_decoy":false,"subject":"S1C1204","sona":"41422","block":1,"time":"2021-09-05T22:31:38.912Z"},{"rt":4322.099999904633,"stimulus":"[A] option 1, [L] option 2, [G] neither","key_press":71,"name":"choice","trial_type":"html-keyboard-response","trial_index":169,"time_elapsed":418362,"internal_node_id":"0.0-169.0","response":"neither","certainty":"high","char":"G","transposition":-2,"order":["shifted","swapped"],"probe_pitches":[-3,2,0,-3,2,4,7,2,7,0,-3,9],"shifted_pitches":[-3,2,0,-3,2,4,6,2,7,0,-3,9],"swapped_pitches":[-3,2,0,-3,2,7,4,2,7,0,-3,9],"shift_direction":-1,"question_num":141,"has_decoy":false,"subject":"S1C1204","sona":"41422","block":1,"time":"2021-09-05T22:31:38.912Z"},{"rt":1851.1000003814697,"stimulus":"[A] option 1, [L] option 2, [G] neither","key_press":65,"name":"choice","trial_type":"html-keyboard-response","trial_index":180,"time_elapsed":440557,"internal_node_id":"0.0-180.0","response":"1st","certainty":"high","char":"A","transposition":-1,"order":["shifted","swapped"],"probe_pitches":[-3,-1,4,6,-1,4,-3,9,-3,4,1,-3],"shifted_pitches":[-3,-1,4,6,-1,4,-4,9,-3,4,1,-3],"swapped_pitches":[-3,-1,4,6,-1,-3,4,9,-3,4,1,-3],"shift_direction":-1,"question_num":151,"has_decoy":false,"subject":"S1C1204","sona":"41422","block":1,"time":"2021-09-05T22:31:38.912Z"},{"rt":1111.0999999046326,"stimulus":"[A] option 1, [L] option 2, [G] neither","key_press":76,"name":"choice","trial_type":"html-keyboard-response","trial_index":191,"time_elapsed":460698,"internal_node_id":"0.0-191.0","response":"2nd","certainty":"high","char":"L","transposition":0,"order":["shifted","swapped"],"probe_pitches":[7,11,5,7,-1,5,11,-1,5,11,3,9],"shifted_pitches":[7,11,5,7,-1,4,11,-1,5,11,3,9],"swapped_pitches":[7,11,5,7,-1,11,5,-1,5,11,3,9],"shift_direction":-1,"question_num":161,"has_decoy":false,"subject":"S1C1204","sona":"41422","block":1,"time":"2021-09-05T22:31:38.912Z"},{"rt":1212.8999996185303,"stimulus":"[A] option 1, [L] option 2, [G] neither","key_press":76,"name":"choice","trial_type":"html-keyboard-response","trial_index":202,"time_elapsed":481205,"internal_node_id":"0.0-202.0","response":"2nd","certainty":"high","char":"L","transposition":-2,"order":["shifted","swapped"],"probe_pitches":[4,2,4,6,-3,-1,2,9,-1,4,-3,9],"shifted_pitches":[4,2,4,6,-3,0,2,9,-1,4,-3,9],"swapped_pitches":[4,2,4,6,-3,2,-1,9,-1,4,-3,9],"shift_direction":1,"question_num":171,"has_decoy":false,"subject":"S1C1204","sona":"41422","block":1,"time":"2021-09-05T22:31:38.912Z"},{"rt":1902.6999998092651,"stimulus":"[A] option 1, [L] option 2, [G] neither","key_press":76,"name":"choice","trial_type":"html-keyboard-response","trial_index":213,"time_elapsed":502695,"internal_node_id":"0.0-213.0","response":"2nd","certainty":"high","char":"L","transposition":3,"order":["swapped","shifted"],"probe_pitches":[9,7,9,7,4,9,2,-3,7,-3,7,-1],"shifted_pitches":[9,7,9,7,4,9,1,-3,7,-3,7,-1],"swapped_pitches":[9,7,9,7,4,2,9,-3,7,-3,7,-1],"shift_direction":-1,"question_num":181,"has_decoy":false,"subject":"S1C1204","sona":"41422","block":1,"time":"2021-09-05T22:31:38.912Z"},{"rt":339,"stimulus":"[A] option 1, [L] option 2, [G] neither","key_press":76,"name":"choice","trial_type":"html-keyboard-response","trial_index":224,"time_elapsed":525505,"internal_node_id":"0.0-224.0","response":"2nd","certainty":"high","char":"L","transposition":1,"order":["swapped","shifted"],"probe_pitches":[-3,0,7,9,2,-3,7,0,4,0,7,0],"shifted_pitches":[-3,0,7,9,2,-2,7,0,4,0,7,0],"swapped_pitches":[-3,0,7,9,2,7,-3,0,4,0,7,0],"shift_direction":1,"question_num":191,"has_decoy":false,"subject":"S1C1204","sona":"41422","block":1,"time":"2021-09-05T22:31:38.912Z"}]