[{"rt":723,"stimulus":"[A] option 1, [L] option 2, [G] neither","key_press":76,"name":"choice","trial_type":"html-keyboard-response","trial_index":10,"time_elapsed":23757,"internal_node_id":"0.0-10.0","subject":"S1C1204","sona":"41422","block":2,"time":"2021-09-05T22:39:39.748Z","response":"2nd","certainty":"high","char":"L","transposition":0,"order":["swapped","shifted"],"probe_pitches":[11,6,4,9,15,6,11,5,11,4,13,5],"shifted_pitches":[11,6,4,9,15,6,10,5,11,4,13,5],"swapped_pitches":[11,6,4,9,15,11,6,5,11,4,13,5],"shift_direction":-1,"question_num":1,"has_decoy":false},{"rt":1045.7000002861023,"stimulus":"[A] option 1, [L] option 2, [G] neither","key_press":76,"name":"choice","trial_type":"html-keyboard-response","trial_index":21,"time_elapsed":43733,"internal_node_id":"0.0-21.0","subject":"S1C1204","sona":"41422","block":2,"time":"2021-09-05T22:39:39.748Z","response":"2nd","certainty":"high","char":"L","transposition":1,"order":["swapped","shifted"],"probe_pitches":[15,10,6,3,9,8,13,5,3,5,8,9],"shifted_pitches":[15,10,6,3,9,8,12,5,3,5,8,9],"swapped_pitches":[15,10,6,3,9,13,8,5,3,5,8,9],"shift_direction":-1,"question_num":11,"has_decoy":false},{"rt":1740.6999998092651,"stimulus":"[A] option 1, [L] option 2, [G] neither","key_press":71,"name":"choice","trial_type":"html-keyboard-response","trial_index":32,"time_elapsed":74835,"internal_node_id":"0.0-32.0","subject":"S1C1204","sona":"41422","block":2,"time":"2021-09-05T22:39:39.748Z","response":"neither","certainty":"high","char":"G","transposition":-3,"order":["swapped","shifted"],"probe_pitches":[12,9,15,12,3,7,5,15,11,4,5,9],"shifted_pitches":[12,9,15,12,3,8,5,15,11,4,5,9],"swapped_pitches":[12,9,15,12,3,5,7,15,11,4,5,9],"shift_direction":1,"question_num":21,"has_decoy":false},{"rt":4345.800000190735,"stimulus":"[A] option 1, [L] option 2, [G] neither","key_press":76,"name":"choice","trial_type":"html-keyboard-response","trial_index":43,"time_elapsed":98156,"internal_node_id":"0.0-43.0","subject":"S1C1204","sona":"41422","block":2,"time":"2021-09-05T22:39:39.748Z","response":"2nd","certainty":"high","char":"L","transposition":2,"order":["shifted","swapped"],"probe_pitches":[13,11,8,3,11,8,13,11,6,8,3,13],"shifted_pitches":[13,11,8,3,11,8,14,11,6,8,3,13],"swapped_pitches":[13,11,8,3,11,13,8,11,6,8,3,13],"shift_direction":1,"question_num":31,"has_decoy":false},{"rt":1455,"stimulus":"[A] option 1, [L] option 2, [G] neither","key_press":76,"name":"choice","trial_type":"html-keyboard-response","trial_index":54,"time_elapsed":119450,"internal_node_id":"0.0-54.0","subject":"S1C1204","sona":"41422","block":2,"time":"2021-09-05T22:39:39.748Z","response":"2nd","certainty":"high","char":"L","transposition":-1,"order":["shifted","swapped"],"probe_pitches":[11,6,11,3,8,3,13,6,1,6,11,3],"shifted_pitches":[11,6,11,3,8,4,13,6,1,6,11,3],"swapped_pitches":[11,6,11,3,8,13,3,6,1,6,11,3],"shift_direction":1,"question_num":41,"has_decoy":false},{"rt":1467.3000001907349,"stimulus":"[A] option 1, [L] option 2, [G] neither","key_press":71,"name":"choice","trial_type":"html-keyboard-response","trial_index":65,"time_elapsed":139602,"internal_node_id":"0.0-65.0","subject":"S1C1204","sona":"41422","block":2,"time":"2021-09-05T22:39:39.748Z","response":"neither","certainty":"high","char":"G","transposition":-3,"order":["swapped","shifted"],"probe_pitches":[10,5,10,5,8,3,13,1,3,1,13,10],"shifted_pitches":[10,5,10,5,8,4,13,1,3,1,13,10],"swapped_pitches":[10,5,10,5,8,13,3,1,3,1,13,10],"shift_direction":1,"question_num":51,"has_decoy":false},{"rt":3753.2999997138977,"stimulus":"[A] option 1, [L] option 2, [G] neither","key_press":65,"name":"choice","trial_type":"html-keyboard-response","trial_index":76,"time_elapsed":162464,"internal_node_id":"0.0-76.0","subject":"S1C1204","sona":"41422","block":2,"time":"2021-09-05T22:39:39.748Z","response":"1st","certainty":"high","char":"A","transposition":-3,"order":["swapped","shifted"],"probe_pitches":[6,11,4,11,4,8,6,11,6,1,8,4],"shifted_pitches":[6,11,4,11,4,8,5,11,6,1,8,4],"swapped_pitches":[6,11,4,11,4,6,8,11,6,1,8,4],"shift_direction":-1,"question_num":61,"has_decoy":false},{"rt":1338,"stimulus":"[A] option 1, [L] option 2, [G] neither","key_press":76,"name":"choice","trial_type":"html-keyboard-response","trial_index":87,"time_elapsed":184412,"internal_node_id":"0.0-87.0","subject":"S1C1204","sona":"41422","block":2,"time":"2021-09-05T22:39:39.748Z","response":"2nd","certainty":"high","char":"L","transposition":3,"order":["swapped","shifted"],"probe_pitches":[13,8,6,4,1,6,11,4,1,6,1,8],"shifted_pitches":[13,8,6,4,1,5,11,4,1,6,1,8],"swapped_pitches":[13,8,6,4,1,11,6,4,1,6,1,8],"shift_direction":-1,"question_num":71,"has_decoy":false},{"rt":1121.9000000953674,"stimulus":"[A] option 1, [L] option 2, [G] neither","key_press":76,"name":"choice","trial_type":"html-keyboard-response","trial_index":98,"time_elapsed":205589,"internal_node_id":"0.0-98.0","subject":"S1C1204","sona":"41422","block":2,"time":"2021-09-05T22:39:39.748Z","response":"2nd","certainty":"high","char":"L","transposition":-2,"order":["shifted","swapped"],"probe_pitches":[12,10,4,10,4,8,7,11,7,3,13,15],"shifted_pitches":[12,10,4,10,4,9,7,11,7,3,13,15],"swapped_pitches":[12,10,4,10,4,7,8,11,7,3,13,15],"shift_direction":1,"question_num":81,"has_decoy":false},{"rt":592.9000000953674,"stimulus":"[A] option 1, [L] option 2, [G] neither","key_press":76,"name":"choice","trial_type":"html-keyboard-response","trial_index":109,"time_elapsed":226228,"internal_node_id":"0.0-109.0","subject":"S1C1204","sona":"41422","block":2,"time":"2021-09-05T22:39:39.748Z","response":"2nd","certainty":"high","char":"L","transposition":-1,"order":["shifted","swapped"],"probe_pitches":[14,11,9,4,3,7,4,13,15,13,10,7],"shifted_pitches":[14,11,9,4,3,7,5,13,15,13,10,7],"swapped_pitches":[14,11,9,4,3,4,7,13,15,13,10,7],"shift_direction":1,"question_num":91,"has_decoy":false},{"rt":864.7999997138977,"stimulus":"[A] option 1, [L] option 2, [G] neither","key_press":76,"name":"choice","trial_type":"html-keyboard-response","trial_index":120,"time_elapsed":248180,"internal_node_id":"0.0-120.0","subject":"S1C1204","sona":"41422","block":2,"time":"2021-09-05T22:39:39.748Z","response":"2nd","certainty":"high","char":"L","transposition":2,"order":["shifted","swapped"],"probe_pitches":[8,10,14,7,15,10,6,15,6,8,4,12],"shifted_pitches":[8,10,14,7,15,11,6,15,6,8,4,12],"swapped_pitches":[8,10,14,7,15,6,10,15,6,8,4,12],"shift_direction":1,"question_num":101,"has_decoy":false},{"rt":1377.5,"stimulus":"[A] option 1, [L] option 2, [G] neither","key_press":65,"name":"choice","trial_type":"html-keyboard-response","trial_index":131,"time_elapsed":269472,"internal_node_id":"0.0-131.0","subject":"S1C1204","sona":"41422","block":2,"time":"2021-09-05T22:39:39.748Z","response":"1st","certainty":"high","char":"A","transposition":-3,"order":["shifted","swapped"],"probe_pitches":[11,12,8,9,12,10,3,4,6,5,7,13],"shifted_pitches":[11,12,8,9,12,10,2,4,6,5,7,13],"swapped_pitches":[11,12,8,9,12,3,10,4,6,5,7,13],"shift_direction":-1,"question_num":111,"has_decoy":false},{"rt":2544,"stimulus":"[A] option 1, [L] option 2, [G] neither","key_press":71,"name":"choice","trial_type":"html-keyboard-response","trial_index":142,"time_elapsed":291705,"internal_node_id":"0.0-142.0","subject":"S1C1204","sona":"41422","block":2,"time":"2021-09-05T22:39:39.748Z","response":"neither","certainty":"high","char":"G","transposition":-2,"order":["swapped","shifted"],"probe_pitches":[12,8,15,9,13,7,15,14,8,3,7,12],"shifted_pitches":[12,8,15,9,13,6,15,14,8,3,7,12],"swapped_pitches":[12,8,15,9,13,15,7,14,8,3,7,12],"shift_direction":-1,"question_num":121,"has_decoy":false},{"rt":1144,"stimulus":"[A] option 1, [L] option 2, [G] neither","key_press":65,"name":"choice","trial_type":"html-keyboard-response","trial_index":153,"time_elapsed":314844,"internal_node_id":"0.0-153.0","subject":"S1C1204","sona":"41422","block":2,"time":"2021-09-05T22:39:39.748Z","response":"1st","certainty":"high","char":"A","transposition":-1,"order":["shifted","swapped"],"probe_pitches":[10,13,6,13,8,6,1,3,6,13,8,1],"shifted_pitches":[10,13,6,13,8,6,0,3,6,13,8,1],"swapped_pitches":[10,13,6,13,8,1,6,3,6,13,8,1],"shift_direction":-1,"question_num":131,"has_decoy":false},{"rt":2208.800000190735,"stimulus":"[A] option 1, [L] option 2, [G] neither","key_press":76,"name":"choice","trial_type":"html-keyboard-response","trial_index":164,"time_elapsed":336896,"internal_node_id":"0.0-164.0","subject":"S1C1204","sona":"41422","block":2,"time":"2021-09-05T22:39:39.748Z","response":"2nd","certainty":"high","char":"L","transposition":3,"order":["shifted","swapped"],"probe_pitches":[10,4,3,8,11,12,5,15,6,10,12,4],"shifted_pitches":[10,4,3,8,11,13,5,15,6,10,12,4],"swapped_pitches":[10,4,3,8,11,5,12,15,6,10,12,4],"shift_direction":1,"question_num":141,"has_decoy":false},{"rt":666,"stimulus":"[A] option 1, [L] option 2, [G] neither","key_press":76,"name":"choice","trial_type":"html-keyboard-response","trial_index":175,"time_elapsed":357508,"internal_node_id":"0.0-175.0","subject":"S1C1204","sona":"41422","block":2,"time":"2021-09-05T22:39:39.748Z","response":"2nd","certainty":"high","char":"L","transposition":0,"order":["shifted","swapped"],"probe_pitches":[8,3,8,10,3,6,13,1,13,1,8,10],"shifted_pitches":[8,3,8,10,3,6,14,1,13,1,8,10],"swapped_pitches":[8,3,8,10,3,13,6,1,13,1,8,10],"shift_direction":1,"question_num":151,"has_decoy":false},{"rt":444.8999996185303,"stimulus":"[A] option 1, [L] option 2, [G] neither","key_press":76,"name":"choice","trial_type":"html-keyboard-response","trial_index":186,"time_elapsed":377218,"internal_node_id":"0.0-186.0","subject":"S1C1204","sona":"41422","block":2,"time":"2021-09-05T22:39:39.748Z","response":"2nd","certainty":"high","char":"L","transposition":-1,"order":["swapped","shifted"],"probe_pitches":[10,4,3,4,13,9,8,4,8,9,3,10],"shifted_pitches":[10,4,3,4,13,9,7,4,8,9,3,10],"swapped_pitches":[10,4,3,4,13,8,9,4,8,9,3,10],"shift_direction":-1,"question_num":161,"has_decoy":false},{"rt":2347.5,"stimulus":"[A] option 1, [L] option 2, [G] neither","key_press":71,"name":"choice","trial_type":"html-keyboard-response","trial_index":197,"time_elapsed":398107,"internal_node_id":"0.0-197.0","subject":"S1C1204","sona":"41422","block":2,"time":"2021-09-05T22:39:39.748Z","response":"neither","certainty":"high","char":"G","transposition":-2,"order":["swapped","shifted"],"probe_pitches":[1,6,4,6,1,11,13,4,13,1,9,1],"shifted_pitches":[1,6,4,6,1,10,13,4,13,1,9,1],"swapped_pitches":[1,6,4,6,1,13,11,4,13,1,9,1],"shift_direction":-1,"question_num":171,"has_decoy":false},{"rt":463.40000009536743,"stimulus":"[A] option 1, [L] option 2, [G] neither","key_press":76,"name":"choice","trial_type":"html-keyboard-response","trial_index":208,"time_elapsed":419376,"internal_node_id":"0.0-208.0","subject":"S1C1204","sona":"41422","block":2,"time":"2021-09-05T22:39:39.748Z","response":"2nd","certainty":"high","char":"L","transposition":-2,"order":["swapped","shifted"],"probe_pitches":[3,1,5,1,8,13,10,1,13,8,1,8],"shifted_pitches":[3,1,5,1,8,13,9,1,13,8,1,8],"swapped_pitches":[3,1,5,1,8,10,13,1,13,8,1,8],"shift_direction":-1,"question_num":181,"has_decoy":false},{"rt":1354.4000000953674,"stimulus":"[A] option 1, [L] option 2, [G] neither","key_press":65,"name":"choice","trial_type":"html-keyboard-response","trial_index":219,"time_elapsed":439761,"internal_node_id":"0.0-219.0","subject":"S1C1204","sona":"41422","block":2,"time":"2021-09-05T22:39:39.748Z","response":"1st","certainty":"high","char":"A","transposition":1,"order":["shifted","swapped"],"probe_pitches":[1,6,4,9,11,9,1,4,6,13,6,11],"shifted_pitches":[1,6,4,9,11,10,1,4,6,13,6,11],"swapped_pitches":[1,6,4,9,11,1,9,4,6,13,6,11],"shift_direction":1,"question_num":191,"has_decoy":false}]