[{"rt":1334.8000001907349,"stimulus":"[A] option 1, [L] option 2, [G] neither","key_press":76,"name":"choice","trial_type":"html-keyboard-response","trial_index":10,"time_elapsed":22447,"internal_node_id":"0.0-10.0","subject":"S1C1204","sona":"41422","block":5,"time":"2021-09-05T23:08:56.349Z","response":"2nd","certainty":"high","char":"L","transposition":-3,"order":["shifted","swapped"],"probe_pitches":[14,12,14,7,14,12,7,2,4,14,9,14],"shifted_pitches":[14,12,14,7,14,13,7,2,4,14,9,14],"swapped_pitches":[14,12,14,7,14,7,12,2,4,14,9,14],"shift_direction":1,"question_num":1,"has_decoy":false},{"rt":702.6999998092651,"stimulus":"[A] option 1, [L] option 2, [G] neither","key_press":76,"name":"choice","trial_type":"html-keyboard-response","trial_index":21,"time_elapsed":42114,"internal_node_id":"0.0-21.0","subject":"S1C1204","sona":"41422","block":5,"time":"2021-09-05T23:08:56.349Z","response":"2nd","certainty":"high","char":"L","transposition":-3,"order":["swapped","shifted"],"probe_pitches":[12,14,12,9,7,4,12,9,14,9,12,4],"shifted_pitches":[12,14,12,9,7,4,11,9,14,9,12,4],"swapped_pitches":[12,14,12,9,7,12,4,9,14,9,12,4],"shift_direction":-1,"question_num":11,"has_decoy":false},{"rt":485.7999997138977,"stimulus":"[A] option 1, [L] option 2, [G] neither","key_press":76,"name":"choice","trial_type":"html-keyboard-response","trial_index":32,"time_elapsed":61503,"internal_node_id":"0.0-32.0","subject":"S1C1204","sona":"41422","block":5,"time":"2021-09-05T23:08:56.349Z","response":"2nd","certainty":"high","char":"L","transposition":1,"order":["shifted","swapped"],"probe_pitches":[3,4,1,8,9,11,7,1,4,5,11,8],"shifted_pitches":[3,4,1,8,9,11,6,1,4,5,11,8],"swapped_pitches":[3,4,1,8,9,7,11,1,4,5,11,8],"shift_direction":-1,"question_num":21,"has_decoy":false},{"rt":2462.5,"stimulus":"[A] option 1, [L] option 2, [G] neither","key_press":71,"name":"choice","trial_type":"html-keyboard-response","trial_index":43,"time_elapsed":82851,"internal_node_id":"0.0-43.0","subject":"S1C1204","sona":"41422","block":5,"time":"2021-09-05T23:08:56.349Z","response":"neither","certainty":"high","char":"G","transposition":-2,"order":["swapped","shifted"],"probe_pitches":[4,9,4,9,11,4,9,2,4,11,7,11],"shifted_pitches":[4,9,4,9,11,3,9,2,4,11,7,11],"swapped_pitches":[4,9,4,9,11,9,4,2,4,11,7,11],"shift_direction":-1,"question_num":31,"has_decoy":false},{"rt":443,"stimulus":"[A] option 1, [L] option 2, [G] neither","key_press":76,"name":"choice","trial_type":"html-keyboard-response","trial_index":54,"time_elapsed":102490,"internal_node_id":"0.0-54.0","subject":"S1C1204","sona":"41422","block":5,"time":"2021-09-05T23:08:56.349Z","response":"2nd","certainty":"high","char":"L","transposition":2,"order":["swapped","shifted"],"probe_pitches":[9,4,3,7,9,12,6,8,13,2,9,12],"shifted_pitches":[9,4,3,7,9,11,6,8,13,2,9,12],"swapped_pitches":[9,4,3,7,9,6,12,8,13,2,9,12],"shift_direction":-1,"question_num":41,"has_decoy":false},{"rt":3524.2999997138977,"stimulus":"[A] option 1, [L] option 2, [G] neither","key_press":76,"name":"choice","trial_type":"html-keyboard-response","trial_index":65,"time_elapsed":126276,"internal_node_id":"0.0-65.0","subject":"S1C1204","sona":"41422","block":5,"time":"2021-09-05T23:08:56.349Z","response":"2nd","certainty":"high","char":"L","transposition":2,"order":["swapped","shifted"],"probe_pitches":[9,7,9,14,5,9,14,5,2,12,2,14],"shifted_pitches":[9,7,9,14,5,8,14,5,2,12,2,14],"swapped_pitches":[9,7,9,14,5,14,9,5,2,12,2,14],"shift_direction":-1,"question_num":51,"has_decoy":false},{"rt":970.5,"stimulus":"[A] option 1, [L] option 2, [G] neither","key_press":65,"name":"choice","trial_type":"html-keyboard-response","trial_index":76,"time_elapsed":145877,"internal_node_id":"0.0-76.0","subject":"S1C1204","sona":"41422","block":5,"time":"2021-09-05T23:08:56.349Z","response":"1st","certainty":"high","char":"A","transposition":1,"order":["shifted","swapped"],"probe_pitches":[5,2,5,2,10,14,12,7,12,10,5,10],"shifted_pitches":[5,2,5,2,10,14,13,7,12,10,5,10],"swapped_pitches":[5,2,5,2,10,12,14,7,12,10,5,10],"shift_direction":1,"question_num":61,"has_decoy":false},{"rt":1227.7999997138977,"stimulus":"[A] option 1, [L] option 2, [G] neither","key_press":76,"name":"choice","trial_type":"html-keyboard-response","trial_index":87,"time_elapsed":168850,"internal_node_id":"0.0-87.0","subject":"S1C1204","sona":"41422","block":5,"time":"2021-09-05T23:08:56.349Z","response":"2nd","certainty":"high","char":"L","transposition":-3,"order":["shifted","swapped"],"probe_pitches":[9,10,5,6,3,6,9,1,10,11,12,4],"shifted_pitches":[9,10,5,6,3,7,9,1,10,11,12,4],"swapped_pitches":[9,10,5,6,3,9,6,1,10,11,12,4],"shift_direction":1,"question_num":71,"has_decoy":false},{"rt":1624.3000001907349,"stimulus":"[A] option 1, [L] option 2, [G] neither","key_press":65,"name":"choice","trial_type":"html-keyboard-response","trial_index":98,"time_elapsed":189380,"internal_node_id":"0.0-98.0","subject":"S1C1204","sona":"41422","block":5,"time":"2021-09-05T23:08:56.349Z","response":"1st","certainty":"high","char":"A","transposition":0,"order":["shifted","swapped"],"probe_pitches":[11,13,10,6,2,3,12,7,2,3,7,2],"shifted_pitches":[11,13,10,6,2,4,12,7,2,3,7,2],"swapped_pitches":[11,13,10,6,2,12,3,7,2,3,7,2],"shift_direction":1,"question_num":81,"has_decoy":false},{"rt":1372.4000000953674,"stimulus":"[A] option 1, [L] option 2, [G] neither","key_press":76,"name":"choice","trial_type":"html-keyboard-response","trial_index":109,"time_elapsed":209912,"internal_node_id":"0.0-109.0","subject":"S1C1204","sona":"41422","block":5,"time":"2021-09-05T23:08:56.349Z","response":"2nd","certainty":"high","char":"L","transposition":3,"order":["swapped","shifted"],"probe_pitches":[4,8,3,7,9,5,11,3,11,7,8,7],"shifted_pitches":[4,8,3,7,9,5,10,3,11,7,8,7],"swapped_pitches":[4,8,3,7,9,11,5,3,11,7,8,7],"shift_direction":-1,"question_num":91,"has_decoy":false},{"rt":3095.2000002861023,"stimulus":"[A] option 1, [L] option 2, [G] neither","key_press":71,"name":"choice","trial_type":"html-keyboard-response","trial_index":120,"time_elapsed":231657,"internal_node_id":"0.0-120.0","subject":"S1C1204","sona":"41422","block":5,"time":"2021-09-05T23:08:56.349Z","response":"neither","certainty":"high","char":"G","transposition":0,"order":["swapped","shifted"],"probe_pitches":[14,12,14,12,10,12,7,5,10,2,12,14],"shifted_pitches":[14,12,14,12,10,12,8,5,10,2,12,14],"swapped_pitches":[14,12,14,12,10,7,12,5,10,2,12,14],"shift_direction":1,"question_num":101,"has_decoy":false},{"rt":1944.0999999046326,"stimulus":"[A] option 1, [L] option 2, [G] neither","key_press":76,"name":"choice","trial_type":"html-keyboard-response","trial_index":131,"time_elapsed":252277,"internal_node_id":"0.0-131.0","subject":"S1C1204","sona":"41422","block":5,"time":"2021-09-05T23:08:56.349Z","response":"2nd","certainty":"high","char":"L","transposition":-1,"order":["shifted","swapped"],"probe_pitches":[4,5,3,8,3,4,1,6,13,10,11,6],"shifted_pitches":[4,5,3,8,3,4,0,6,13,10,11,6],"swapped_pitches":[4,5,3,8,3,1,4,6,13,10,11,6],"shift_direction":-1,"question_num":111,"has_decoy":false},{"rt":380.59999990463257,"stimulus":"[A] option 1, [L] option 2, [G] neither","key_press":76,"name":"choice","trial_type":"html-keyboard-response","trial_index":142,"time_elapsed":273251,"internal_node_id":"0.0-142.0","subject":"S1C1204","sona":"41422","block":5,"time":"2021-09-05T23:08:56.349Z","response":"2nd","certainty":"high","char":"L","transposition":-1,"order":["shifted","swapped"],"probe_pitches":[6,7,12,8,4,6,1,9,11,6,4,13],"shifted_pitches":[6,7,12,8,4,5,1,9,11,6,4,13],"swapped_pitches":[6,7,12,8,4,1,6,9,11,6,4,13],"shift_direction":-1,"question_num":121,"has_decoy":false},{"rt":1648.3000001907349,"stimulus":"[A] option 1, [L] option 2, [G] neither","key_press":65,"name":"choice","trial_type":"html-keyboard-response","trial_index":153,"time_elapsed":294504,"internal_node_id":"0.0-153.0","subject":"S1C1204","sona":"41422","block":5,"time":"2021-09-05T23:08:56.349Z","response":"1st","certainty":"high","char":"A","transposition":3,"order":["shifted","swapped"],"probe_pitches":[4,6,11,4,6,9,4,11,6,4,2,11],"shifted_pitches":[4,6,11,4,6,10,4,11,6,4,2,11],"swapped_pitches":[4,6,11,4,6,4,9,11,6,4,2,11],"shift_direction":1,"question_num":131,"has_decoy":false},{"rt":4835,"stimulus":"[A] option 1, [L] option 2, [G] neither","key_press":65,"name":"choice","trial_type":"html-keyboard-response","trial_index":164,"time_elapsed":318790,"internal_node_id":"0.0-164.0","subject":"S1C1204","sona":"41422","block":5,"time":"2021-09-05T23:08:56.349Z","response":"1st","certainty":"high","char":"A","transposition":-2,"order":["swapped","shifted"],"probe_pitches":[2,7,6,1,4,7,1,3,12,2,9,10],"shifted_pitches":[2,7,6,1,4,8,1,3,12,2,9,10],"swapped_pitches":[2,7,6,1,4,1,7,3,12,2,9,10],"shift_direction":1,"question_num":141,"has_decoy":false},{"rt":307.8999996185303,"stimulus":"[A] option 1, [L] option 2, [G] neither","key_press":76,"name":"choice","trial_type":"html-keyboard-response","trial_index":175,"time_elapsed":339165,"internal_node_id":"0.0-175.0","subject":"S1C1204","sona":"41422","block":5,"time":"2021-09-05T23:08:56.349Z","response":"2nd","certainty":"high","char":"L","transposition":-1,"order":["swapped","shifted"],"probe_pitches":[9,5,7,5,9,7,12,9,5,12,14,9],"shifted_pitches":[9,5,7,5,9,7,11,9,5,12,14,9],"swapped_pitches":[9,5,7,5,9,12,7,9,5,12,14,9],"shift_direction":-1,"question_num":151,"has_decoy":false},{"rt":1100.0999999046326,"stimulus":"[A] option 1, [L] option 2, [G] neither","key_press":65,"name":"choice","trial_type":"html-keyboard-response","trial_index":186,"time_elapsed":359296,"internal_node_id":"0.0-186.0","subject":"S1C1204","sona":"41422","block":5,"time":"2021-09-05T23:08:56.349Z","response":"1st","certainty":"high","char":"A","transposition":-1,"order":["shifted","swapped"],"probe_pitches":[4,7,2,7,14,7,4,11,14,9,2,9],"shifted_pitches":[4,7,2,7,14,6,4,11,14,9,2,9],"swapped_pitches":[4,7,2,7,14,4,7,11,14,9,2,9],"shift_direction":-1,"question_num":161,"has_decoy":false},{"rt":2043.3000001907349,"stimulus":"[A] option 1, [L] option 2, [G] neither","key_press":71,"name":"choice","trial_type":"html-keyboard-response","trial_index":197,"time_elapsed":379941,"internal_node_id":"0.0-197.0","subject":"S1C1204","sona":"41422","block":5,"time":"2021-09-05T23:08:56.349Z","response":"neither","certainty":"high","char":"G","transposition":-2,"order":["shifted","swapped"],"probe_pitches":[6,4,6,9,11,14,4,2,9,4,2,6],"shifted_pitches":[6,4,6,9,11,14,5,2,9,4,2,6],"swapped_pitches":[6,4,6,9,11,4,14,2,9,4,2,6],"shift_direction":1,"question_num":171,"has_decoy":false},{"rt":665.4000000953674,"stimulus":"[A] option 1, [L] option 2, [G] neither","key_press":76,"name":"choice","trial_type":"html-keyboard-response","trial_index":208,"time_elapsed":399374,"internal_node_id":"0.0-208.0","subject":"S1C1204","sona":"41422","block":5,"time":"2021-09-05T23:08:56.349Z","response":"2nd","certainty":"high","char":"L","transposition":-2,"order":["swapped","shifted"],"probe_pitches":[9,8,4,6,8,6,2,7,1,5,13,10],"shifted_pitches":[9,8,4,6,8,6,3,7,1,5,13,10],"swapped_pitches":[9,8,4,6,8,2,6,7,1,5,13,10],"shift_direction":1,"question_num":181,"has_decoy":false},{"rt":1937.4000000953674,"stimulus":"[A] option 1, [L] option 2, [G] neither","key_press":76,"name":"choice","trial_type":"html-keyboard-response","trial_index":219,"time_elapsed":420262,"internal_node_id":"0.0-219.0","subject":"S1C1204","sona":"41422","block":5,"time":"2021-09-05T23:08:56.349Z","response":"2nd","certainty":"high","char":"L","transposition":-3,"order":["swapped","shifted"],"probe_pitches":[11,13,10,3,10,4,8,3,5,10,5,11],"shifted_pitches":[11,13,10,3,10,4,9,3,5,10,5,11],"swapped_pitches":[11,13,10,3,10,8,4,3,5,10,5,11],"shift_direction":1,"question_num":191,"has_decoy":false}]