[{"rt":1264.1000003814697,"stimulus":"[A] option 1, [L] option 2, [G] neither","key_press":76,"name":"choice","trial_type":"html-keyboard-response","trial_index":10,"time_elapsed":21093,"internal_node_id":"0.0-10.0","subject":"S1C1204","sona":"41422","block":3,"time":"2021-09-05T22:47:55.049Z","response":"2nd","certainty":"high","char":"L","transposition":1,"order":["shifted","swapped"],"probe_pitches":[5,9,14,7,14,5,12,2,9,5,2,9],"shifted_pitches":[5,9,14,7,14,4,12,2,9,5,2,9],"swapped_pitches":[5,9,14,7,14,12,5,2,9,5,2,9],"shift_direction":-1,"question_num":1,"has_decoy":false},{"rt":981.8000001907349,"stimulus":"[A] option 1, [L] option 2, [G] neither","key_press":76,"name":"choice","trial_type":"html-keyboard-response","trial_index":21,"time_elapsed":41482,"internal_node_id":"0.0-21.0","subject":"S1C1204","sona":"41422","block":3,"time":"2021-09-05T22:47:55.049Z","response":"2nd","certainty":"high","char":"L","transposition":-3,"order":["shifted","swapped"],"probe_pitches":[-2,2,7,0,7,9,2,5,6,3,6,-1],"shifted_pitches":[-2,2,7,0,7,8,2,5,6,3,6,-1],"swapped_pitches":[-2,2,7,0,7,2,9,5,6,3,6,-1],"shift_direction":-1,"question_num":11,"has_decoy":false},{"rt":666.1999998092651,"stimulus":"[A] option 1, [L] option 2, [G] neither","key_press":71,"name":"choice","trial_type":"html-keyboard-response","trial_index":32,"time_elapsed":61263,"internal_node_id":"0.0-32.0","subject":"S1C1204","sona":"41422","block":3,"time":"2021-09-05T22:47:55.049Z","response":"neither","certainty":"high","char":"G","transposition":0,"order":["shifted","swapped"],"probe_pitches":[1,-1,3,1,4,6,3,-1,1,8,7,5],"shifted_pitches":[1,-1,3,1,4,6,2,-1,1,8,7,5],"swapped_pitches":[1,-1,3,1,4,3,6,-1,1,8,7,5],"shift_direction":-1,"question_num":21,"has_decoy":false},{"rt":1138.5,"stimulus":"[A] option 1, [L] option 2, [G] neither","key_press":76,"name":"choice","trial_type":"html-keyboard-response","trial_index":43,"time_elapsed":81789,"internal_node_id":"0.0-43.0","subject":"S1C1204","sona":"41422","block":3,"time":"2021-09-05T22:47:55.049Z","response":"2nd","certainty":"high","char":"L","transposition":-2,"order":["swapped","shifted"],"probe_pitches":[2,4,7,-1,0,-3,2,9,6,5,6,4],"shifted_pitches":[2,4,7,-1,0,-3,1,9,6,5,6,4],"swapped_pitches":[2,4,7,-1,0,2,-3,9,6,5,6,4],"shift_direction":-1,"question_num":31,"has_decoy":false},{"rt":4192.200000286102,"stimulus":"[A] option 1, [L] option 2, [G] neither","key_press":71,"name":"choice","trial_type":"html-keyboard-response","trial_index":54,"time_elapsed":105979,"internal_node_id":"0.0-54.0","subject":"S1C1204","sona":"41422","block":3,"time":"2021-09-05T22:47:55.049Z","response":"neither","certainty":"high","char":"G","transposition":-2,"order":["swapped","shifted"],"probe_pitches":[4,7,11,4,11,14,4,9,4,7,4,7],"shifted_pitches":[4,7,11,4,11,13,4,9,4,7,4,7],"swapped_pitches":[4,7,11,4,11,4,14,9,4,7,4,7],"shift_direction":-1,"question_num":41,"has_decoy":false},{"rt":1071.6999998092651,"stimulus":"[A] option 1, [L] option 2, [G] neither","key_press":76,"name":"choice","trial_type":"html-keyboard-response","trial_index":65,"time_elapsed":126272,"internal_node_id":"0.0-65.0","subject":"S1C1204","sona":"41422","block":3,"time":"2021-09-05T22:47:55.049Z","response":"2nd","certainty":"high","char":"L","transposition":2,"order":["swapped","shifted"],"probe_pitches":[14,9,4,2,4,11,9,6,14,9,6,4],"shifted_pitches":[14,9,4,2,4,11,10,6,14,9,6,4],"swapped_pitches":[14,9,4,2,4,9,11,6,14,9,6,4],"shift_direction":1,"question_num":51,"has_decoy":false},{"rt":3137.4000000953674,"stimulus":"[A] option 1, [L] option 2, [G] neither","key_press":76,"name":"choice","trial_type":"html-keyboard-response","trial_index":76,"time_elapsed":148626,"internal_node_id":"0.0-76.0","subject":"S1C1204","sona":"41422","block":3,"time":"2021-09-05T22:47:55.049Z","response":"2nd","certainty":"high","char":"L","transposition":-2,"order":["shifted","swapped"],"probe_pitches":[4,1,-3,3,7,9,-2,8,9,2,4,3],"shifted_pitches":[4,1,-3,3,7,9,-1,8,9,2,4,3],"swapped_pitches":[4,1,-3,3,7,-2,9,8,9,2,4,3],"shift_direction":1,"question_num":61,"has_decoy":false},{"rt":1152.4000000953674,"stimulus":"[A] option 1, [L] option 2, [G] neither","key_press":76,"name":"choice","trial_type":"html-keyboard-response","trial_index":87,"time_elapsed":169281,"internal_node_id":"0.0-87.0","subject":"S1C1204","sona":"41422","block":3,"time":"2021-09-05T22:47:55.049Z","response":"2nd","certainty":"high","char":"L","transposition":-3,"order":["shifted","swapped"],"probe_pitches":[2,7,12,4,7,12,14,9,2,14,4,9],"shifted_pitches":[2,7,12,4,7,11,14,9,2,14,4,9],"swapped_pitches":[2,7,12,4,7,14,12,9,2,14,4,9],"shift_direction":-1,"question_num":71,"has_decoy":false},{"rt":1131,"stimulus":"[A] option 1, [L] option 2, [G] neither","key_press":76,"name":"choice","trial_type":"html-keyboard-response","trial_index":98,"time_elapsed":193580,"internal_node_id":"0.0-98.0","subject":"S1C1204","sona":"41422","block":3,"time":"2021-09-05T22:47:55.049Z","response":"2nd","certainty":"high","char":"L","transposition":-3,"order":["swapped","shifted"],"probe_pitches":[6,5,2,9,7,6,3,-3,6,9,3,-1],"shifted_pitches":[6,5,2,9,7,6,4,-3,6,9,3,-1],"swapped_pitches":[6,5,2,9,7,3,6,-3,6,9,3,-1],"shift_direction":1,"question_num":81,"has_decoy":false},{"rt":912.5,"stimulus":"[A] option 1, [L] option 2, [G] neither","key_press":76,"name":"choice","trial_type":"html-keyboard-response","trial_index":109,"time_elapsed":214674,"internal_node_id":"0.0-109.0","subject":"S1C1204","sona":"41422","block":3,"time":"2021-09-05T22:47:55.049Z","response":"2nd","certainty":"high","char":"L","transposition":-1,"order":["swapped","shifted"],"probe_pitches":[8,6,9,7,8,4,0,1,4,2,4,-2],"shifted_pitches":[8,6,9,7,8,5,0,1,4,2,4,-2],"swapped_pitches":[8,6,9,7,8,0,4,1,4,2,4,-2],"shift_direction":1,"question_num":91,"has_decoy":false},{"rt":2148.2000002861023,"stimulus":"[A] option 1, [L] option 2, [G] neither","key_press":65,"name":"choice","trial_type":"html-keyboard-response","trial_index":120,"time_elapsed":236566,"internal_node_id":"0.0-120.0","subject":"S1C1204","sona":"41422","block":3,"time":"2021-09-05T22:47:55.049Z","response":"1st","certainty":"high","char":"A","transposition":-1,"order":["swapped","shifted"],"probe_pitches":[2,1,3,5,8,5,0,4,-1,-3,8,0],"shifted_pitches":[2,1,3,5,8,6,0,4,-1,-3,8,0],"swapped_pitches":[2,1,3,5,8,0,5,4,-1,-3,8,0],"shift_direction":1,"question_num":101,"has_decoy":false},{"rt":759.1999998092651,"stimulus":"[A] option 1, [L] option 2, [G] neither","key_press":65,"name":"choice","trial_type":"html-keyboard-response","trial_index":131,"time_elapsed":259940,"internal_node_id":"0.0-131.0","subject":"S1C1204","sona":"41422","block":3,"time":"2021-09-05T22:47:55.049Z","response":"1st","certainty":"high","char":"A","transposition":1,"order":["shifted","swapped"],"probe_pitches":[8,9,2,8,7,1,-1,-2,8,3,2,5],"shifted_pitches":[8,9,2,8,7,0,-1,-2,8,3,2,5],"swapped_pitches":[8,9,2,8,7,-1,1,-2,8,3,2,5],"shift_direction":-1,"question_num":111,"has_decoy":false},{"rt":1452.6999998092651,"stimulus":"[A] option 1, [L] option 2, [G] neither","key_press":71,"name":"choice","trial_type":"html-keyboard-response","trial_index":142,"time_elapsed":280597,"internal_node_id":"0.0-142.0","subject":"S1C1204","sona":"41422","block":3,"time":"2021-09-05T22:47:55.049Z","response":"neither","certainty":"high","char":"G","transposition":3,"order":["swapped","shifted"],"probe_pitches":[5,9,7,12,5,7,2,12,9,14,5,2],"shifted_pitches":[5,9,7,12,5,6,2,12,9,14,5,2],"swapped_pitches":[5,9,7,12,5,2,7,12,9,14,5,2],"shift_direction":-1,"question_num":121,"has_decoy":false},{"rt":1295.5,"stimulus":"[A] option 1, [L] option 2, [G] neither","key_press":71,"name":"choice","trial_type":"html-keyboard-response","trial_index":153,"time_elapsed":301437,"internal_node_id":"0.0-153.0","subject":"S1C1204","sona":"41422","block":3,"time":"2021-09-05T22:47:55.049Z","response":"neither","certainty":"high","char":"G","transposition":-1,"order":["swapped","shifted"],"probe_pitches":[12,14,7,4,12,7,9,2,14,2,9,14],"shifted_pitches":[12,14,7,4,12,7,8,2,14,2,9,14],"swapped_pitches":[12,14,7,4,12,9,7,2,14,2,9,14],"shift_direction":-1,"question_num":131,"has_decoy":false},{"rt":1519.9000000953674,"stimulus":"[A] option 1, [L] option 2, [G] neither","key_press":76,"name":"choice","trial_type":"html-keyboard-response","trial_index":164,"time_elapsed":322180,"internal_node_id":"0.0-164.0","subject":"S1C1204","sona":"41422","block":3,"time":"2021-09-05T22:47:55.049Z","response":"2nd","certainty":"high","char":"L","transposition":3,"order":["shifted","swapped"],"probe_pitches":[9,4,0,7,6,2,-3,-1,1,5,0,5],"shifted_pitches":[9,4,0,7,6,3,-3,-1,1,5,0,5],"swapped_pitches":[9,4,0,7,6,-3,2,-1,1,5,0,5],"shift_direction":1,"question_num":141,"has_decoy":false},{"rt":299.69999980926514,"stimulus":"[A] option 1, [L] option 2, [G] neither","key_press":76,"name":"choice","trial_type":"html-keyboard-response","trial_index":175,"time_elapsed":342160,"internal_node_id":"0.0-175.0","subject":"S1C1204","sona":"41422","block":3,"time":"2021-09-05T22:47:55.049Z","response":"2nd","certainty":"high","char":"L","transposition":-1,"order":["swapped","shifted"],"probe_pitches":[12,7,10,14,12,7,10,2,10,12,14,5],"shifted_pitches":[12,7,10,14,12,7,11,2,10,12,14,5],"swapped_pitches":[12,7,10,14,12,10,7,2,10,12,14,5],"shift_direction":1,"question_num":151,"has_decoy":false},{"rt":895.3999996185303,"stimulus":"[A] option 1, [L] option 2, [G] neither","key_press":76,"name":"choice","trial_type":"html-keyboard-response","trial_index":186,"time_elapsed":361294,"internal_node_id":"0.0-186.0","subject":"S1C1204","sona":"41422","block":3,"time":"2021-09-05T22:47:55.049Z","response":"2nd","certainty":"high","char":"L","transposition":-2,"order":["shifted","swapped"],"probe_pitches":[6,2,9,4,6,2,11,14,2,9,11,2],"shifted_pitches":[6,2,9,4,6,2,12,14,2,9,11,2],"swapped_pitches":[6,2,9,4,6,11,2,14,2,9,11,2],"shift_direction":1,"question_num":161,"has_decoy":false},{"rt":743.5,"stimulus":"[A] option 1, [L] option 2, [G] neither","key_press":65,"name":"choice","trial_type":"html-keyboard-response","trial_index":197,"time_elapsed":380935,"internal_node_id":"0.0-197.0","subject":"S1C1204","sona":"41422","block":3,"time":"2021-09-05T22:47:55.049Z","response":"1st","certainty":"high","char":"A","transposition":-3,"order":["shifted","swapped"],"probe_pitches":[12,10,5,7,12,2,7,10,14,2,5,12],"shifted_pitches":[12,10,5,7,12,2,8,10,14,2,5,12],"swapped_pitches":[12,10,5,7,12,7,2,10,14,2,5,12],"shift_direction":1,"question_num":171,"has_decoy":false},{"rt":793.4000000953674,"stimulus":"[A] option 1, [L] option 2, [G] neither","key_press":76,"name":"choice","trial_type":"html-keyboard-response","trial_index":208,"time_elapsed":400875,"internal_node_id":"0.0-208.0","subject":"S1C1204","sona":"41422","block":3,"time":"2021-09-05T22:47:55.049Z","response":"2nd","certainty":"high","char":"L","transposition":2,"order":["swapped","shifted"],"probe_pitches":[-3,1,5,6,1,6,8,-2,8,3,2,8],"shifted_pitches":[-3,1,5,6,1,6,7,-2,8,3,2,8],"swapped_pitches":[-3,1,5,6,1,8,6,-2,8,3,2,8],"shift_direction":-1,"question_num":181,"has_decoy":false},{"rt":699.2999997138977,"stimulus":"[A] option 1, [L] option 2, [G] neither","key_press":76,"name":"choice","trial_type":"html-keyboard-response","trial_index":219,"time_elapsed":420974,"internal_node_id":"0.0-219.0","subject":"S1C1204","sona":"41422","block":3,"time":"2021-09-05T22:47:55.049Z","response":"2nd","certainty":"high","char":"L","transposition":0,"order":["shifted","swapped"],"probe_pitches":[7,2,4,2,11,9,7,4,2,9,4,14],"shifted_pitches":[7,2,4,2,11,10,7,4,2,9,4,14],"swapped_pitches":[7,2,4,2,11,7,9,4,2,9,4,14],"shift_direction":1,"question_num":191,"has_decoy":false}]