[{"rt":703.5999999046326,"stimulus":"[A] option 1, [L] option 2, [G] neither","key_press":76,"name":"choice","trial_type":"html-keyboard-response","trial_index":10,"time_elapsed":22712,"internal_node_id":"0.0-10.0","subject":"S1C1204","sona":"41422","block":6,"time":"2021-09-05T23:16:05.540Z","response":"2nd","certainty":"high","char":"L","transposition":-1,"order":["shifted","swapped"],"probe_pitches":[-1,5,4,6,11,6,0,4,2,7,11,3],"shifted_pitches":[-1,5,4,6,11,6,1,4,2,7,11,3],"swapped_pitches":[-1,5,4,6,11,0,6,4,2,7,11,3],"shift_direction":1,"question_num":1,"has_decoy":false},{"rt":820.0999999046326,"stimulus":"[A] option 1, [L] option 2, [G] neither","key_press":76,"name":"choice","trial_type":"html-keyboard-response","trial_index":21,"time_elapsed":42530,"internal_node_id":"0.0-21.0","subject":"S1C1204","sona":"41422","block":6,"time":"2021-09-05T23:16:05.540Z","response":"2nd","certainty":"high","char":"L","transposition":1,"order":["swapped","shifted"],"probe_pitches":[-2,3,-2,6,1,-2,6,3,8,6,3,1],"shifted_pitches":[-2,3,-2,6,1,-2,5,3,8,6,3,1],"swapped_pitches":[-2,3,-2,6,1,6,-2,3,8,6,3,1],"shift_direction":-1,"question_num":11,"has_decoy":false},{"rt":1736.3999996185303,"stimulus":"[A] option 1, [L] option 2, [G] neither","key_press":71,"name":"choice","trial_type":"html-keyboard-response","trial_index":32,"time_elapsed":63447,"internal_node_id":"0.0-32.0","subject":"S1C1204","sona":"41422","block":6,"time":"2021-09-05T23:16:05.540Z","response":"neither","certainty":"high","char":"G","transposition":3,"order":["swapped","shifted"],"probe_pitches":[10,6,8,1,8,6,3,10,8,10,1,10],"shifted_pitches":[10,6,8,1,8,7,3,10,8,10,1,10],"swapped_pitches":[10,6,8,1,8,3,6,10,8,10,1,10],"shift_direction":1,"question_num":21,"has_decoy":false},{"rt":995.2999997138977,"stimulus":"[A] option 1, [L] option 2, [G] neither","key_press":76,"name":"choice","trial_type":"html-keyboard-response","trial_index":43,"time_elapsed":85464,"internal_node_id":"0.0-43.0","subject":"S1C1204","sona":"41422","block":6,"time":"2021-09-05T23:16:05.540Z","response":"2nd","certainty":"high","char":"L","transposition":-2,"order":["shifted","swapped"],"probe_pitches":[10,5,2,7,0,7,5,10,-2,2,-2,2],"shifted_pitches":[10,5,2,7,0,7,4,10,-2,2,-2,2],"swapped_pitches":[10,5,2,7,0,5,7,10,-2,2,-2,2],"shift_direction":-1,"question_num":31,"has_decoy":false},{"rt":1315.6999998092651,"stimulus":"[A] option 1, [L] option 2, [G] neither","key_press":65,"name":"choice","trial_type":"html-keyboard-response","trial_index":54,"time_elapsed":105551,"internal_node_id":"0.0-54.0","subject":"S1C1204","sona":"41422","block":6,"time":"2021-09-05T23:16:05.540Z","response":"1st","certainty":"high","char":"A","transposition":-1,"order":["swapped","shifted"],"probe_pitches":[8,3,10,8,3,10,5,8,5,8,1,10],"shifted_pitches":[8,3,10,8,3,11,5,8,5,8,1,10],"swapped_pitches":[8,3,10,8,3,5,10,8,5,8,1,10],"shift_direction":1,"question_num":41,"has_decoy":false},{"rt":2103.5,"stimulus":"[A] option 1, [L] option 2, [G] neither","key_press":71,"name":"choice","trial_type":"html-keyboard-response","trial_index":65,"time_elapsed":127543,"internal_node_id":"0.0-65.0","subject":"S1C1204","sona":"41422","block":6,"time":"2021-09-05T23:16:05.540Z","response":"neither","certainty":"high","char":"G","transposition":-3,"order":["swapped","shifted"],"probe_pitches":[3,5,3,8,0,5,3,8,-2,10,0,-2],"shifted_pitches":[3,5,3,8,0,6,3,8,-2,10,0,-2],"swapped_pitches":[3,5,3,8,0,3,5,8,-2,10,0,-2],"shift_direction":1,"question_num":51,"has_decoy":false},{"rt":1197.7999997138977,"stimulus":"[A] option 1, [L] option 2, [G] neither","key_press":76,"name":"choice","trial_type":"html-keyboard-response","trial_index":76,"time_elapsed":147881,"internal_node_id":"0.0-76.0","subject":"S1C1204","sona":"41422","block":6,"time":"2021-09-05T23:16:05.540Z","response":"2nd","certainty":"high","char":"L","transposition":-2,"order":["swapped","shifted"],"probe_pitches":[0,2,5,4,3,4,7,10,9,2,10,0],"shifted_pitches":[0,2,5,4,3,4,6,10,9,2,10,0],"swapped_pitches":[0,2,5,4,3,7,4,10,9,2,10,0],"shift_direction":-1,"question_num":61,"has_decoy":false},{"rt":1487.1000003814697,"stimulus":"[A] option 1, [L] option 2, [G] neither","key_press":65,"name":"choice","trial_type":"html-keyboard-response","trial_index":87,"time_elapsed":168662,"internal_node_id":"0.0-87.0","subject":"S1C1204","sona":"41422","block":6,"time":"2021-09-05T23:16:05.540Z","response":"1st","certainty":"high","char":"A","transposition":2,"order":["shifted","swapped"],"probe_pitches":[-1,1,2,8,1,6,10,7,0,10,7,-1],"shifted_pitches":[-1,1,2,8,1,5,10,7,0,10,7,-1],"swapped_pitches":[-1,1,2,8,1,10,6,7,0,10,7,-1],"shift_direction":-1,"question_num":71,"has_decoy":false},{"rt":318.09999990463257,"stimulus":"[A] option 1, [L] option 2, [G] neither","key_press":76,"name":"choice","trial_type":"html-keyboard-response","trial_index":98,"time_elapsed":189343,"internal_node_id":"0.0-98.0","subject":"S1C1204","sona":"41422","block":6,"time":"2021-09-05T23:16:05.540Z","response":"2nd","certainty":"high","char":"L","transposition":1,"order":["swapped","shifted"],"probe_pitches":[2,7,9,11,4,2,6,9,4,1,10,1],"shifted_pitches":[2,7,9,11,4,3,6,9,4,1,10,1],"swapped_pitches":[2,7,9,11,4,6,2,9,4,1,10,1],"shift_direction":1,"question_num":81,"has_decoy":false},{"rt":1932,"stimulus":"[A] option 1, [L] option 2, [G] neither","key_press":71,"name":"choice","trial_type":"html-keyboard-response","trial_index":109,"time_elapsed":209720,"internal_node_id":"0.0-109.0","subject":"S1C1204","sona":"41422","block":6,"time":"2021-09-05T23:16:05.540Z","response":"neither","certainty":"high","char":"G","transposition":-2,"order":["shifted","swapped"],"probe_pitches":[3,-2,3,0,5,3,8,10,3,-2,0,5],"shifted_pitches":[3,-2,3,0,5,3,7,10,3,-2,0,5],"swapped_pitches":[3,-2,3,0,5,8,3,10,3,-2,0,5],"shift_direction":-1,"question_num":91,"has_decoy":false},{"rt":1457.7000002861023,"stimulus":"[A] option 1, [L] option 2, [G] neither","key_press":65,"name":"choice","trial_type":"html-keyboard-response","trial_index":120,"time_elapsed":237881,"internal_node_id":"0.0-120.0","subject":"S1C1204","sona":"41422","block":6,"time":"2021-09-05T23:16:05.540Z","response":"1st","certainty":"high","char":"A","transposition":-3,"order":["swapped","shifted"],"probe_pitches":[6,9,2,5,6,0,7,10,1,5,10,2],"shifted_pitches":[6,9,2,5,6,0,8,10,1,5,10,2],"swapped_pitches":[6,9,2,5,6,7,0,10,1,5,10,2],"shift_direction":1,"question_num":101,"has_decoy":false},{"rt":1616.5999999046326,"stimulus":"[A] option 1, [L] option 2, [G] neither","key_press":71,"name":"choice","trial_type":"html-keyboard-response","trial_index":131,"time_elapsed":265401,"internal_node_id":"0.0-131.0","subject":"S1C1204","sona":"41422","block":6,"time":"2021-09-05T23:16:05.540Z","response":"neither","certainty":"high","char":"G","transposition":-3,"order":["swapped","shifted"],"probe_pitches":[3,0,5,3,5,10,7,5,7,0,10,3],"shifted_pitches":[3,0,5,3,5,10,8,5,7,0,10,3],"swapped_pitches":[3,0,5,3,5,7,10,5,7,0,10,3],"shift_direction":1,"question_num":111,"has_decoy":false},{"rt":146,"stimulus":"[A] option 1, [L] option 2, [G] neither","key_press":65,"name":"choice","trial_type":"html-keyboard-response","trial_index":142,"time_elapsed":287087,"internal_node_id":"0.0-142.0","subject":"S1C1204","sona":"41422","block":6,"time":"2021-09-05T23:16:05.540Z","response":"1st","certainty":"high","char":"A","transposition":2,"order":["shifted","swapped"],"probe_pitches":[5,7,0,7,-2,7,3,10,0,-2,7,3],"shifted_pitches":[5,7,0,7,-2,6,3,10,0,-2,7,3],"swapped_pitches":[5,7,0,7,-2,3,7,10,0,-2,7,3],"shift_direction":-1,"question_num":121,"has_decoy":false},{"rt":1089.7999997138977,"stimulus":"[A] option 1, [L] option 2, [G] neither","key_press":65,"name":"choice","trial_type":"html-keyboard-response","trial_index":153,"time_elapsed":306810,"internal_node_id":"0.0-153.0","subject":"S1C1204","sona":"41422","block":6,"time":"2021-09-05T23:16:05.540Z","response":"1st","certainty":"high","char":"A","transposition":0,"order":["shifted","swapped"],"probe_pitches":[7,10,7,10,5,2,0,5,10,0,2,7],"shifted_pitches":[7,10,7,10,5,2,-1,5,10,0,2,7],"swapped_pitches":[7,10,7,10,5,0,2,5,10,0,2,7],"shift_direction":-1,"question_num":131,"has_decoy":false},{"rt":1361.3000001907349,"stimulus":"[A] option 1, [L] option 2, [G] neither","key_press":71,"name":"choice","trial_type":"html-keyboard-response","trial_index":164,"time_elapsed":327706,"internal_node_id":"0.0-164.0","subject":"S1C1204","sona":"41422","block":6,"time":"2021-09-05T23:16:05.540Z","response":"neither","certainty":"high","char":"G","transposition":-1,"order":["shifted","swapped"],"probe_pitches":[1,5,1,3,5,-2,3,5,8,-2,5,3],"shifted_pitches":[1,5,1,3,5,-1,3,5,8,-2,5,3],"swapped_pitches":[1,5,1,3,5,3,-2,5,8,-2,5,3],"shift_direction":1,"question_num":141,"has_decoy":false},{"rt":988.9000000953674,"stimulus":"[A] option 1, [L] option 2, [G] neither","key_press":65,"name":"choice","trial_type":"html-keyboard-response","trial_index":175,"time_elapsed":347382,"internal_node_id":"0.0-175.0","subject":"S1C1204","sona":"41422","block":6,"time":"2021-09-05T23:16:05.540Z","response":"1st","certainty":"high","char":"A","transposition":-2,"order":["shifted","swapped"],"probe_pitches":[8,10,4,5,11,8,10,9,4,9,11,8],"shifted_pitches":[8,10,4,5,11,7,10,9,4,9,11,8],"swapped_pitches":[8,10,4,5,11,10,8,9,4,9,11,8],"shift_direction":-1,"question_num":151,"has_decoy":false},{"rt":375.30000019073486,"stimulus":"[A] option 1, [L] option 2, [G] neither","key_press":65,"name":"choice","trial_type":"html-keyboard-response","trial_index":186,"time_elapsed":366481,"internal_node_id":"0.0-186.0","subject":"S1C1204","sona":"41422","block":6,"time":"2021-09-05T23:16:05.540Z","response":"1st","certainty":"high","char":"A","transposition":3,"order":["swapped","shifted"],"probe_pitches":[4,8,5,10,8,1,5,9,4,-1,6,11],"shifted_pitches":[4,8,5,10,8,2,5,9,4,-1,6,11],"swapped_pitches":[4,8,5,10,8,5,1,9,4,-1,6,11],"shift_direction":1,"question_num":161,"has_decoy":false},{"rt":393.19999980926514,"stimulus":"[A] option 1, [L] option 2, [G] neither","key_press":76,"name":"choice","trial_type":"html-keyboard-response","trial_index":197,"time_elapsed":385240,"internal_node_id":"0.0-197.0","subject":"S1C1204","sona":"41422","block":6,"time":"2021-09-05T23:16:05.540Z","response":"2nd","certainty":"high","char":"L","transposition":-1,"order":["shifted","swapped"],"probe_pitches":[5,2,7,1,0,9,11,5,6,5,8,11],"shifted_pitches":[5,2,7,1,0,9,10,5,6,5,8,11],"swapped_pitches":[5,2,7,1,0,11,9,5,6,5,8,11],"shift_direction":-1,"question_num":171,"has_decoy":false},{"rt":704.5,"stimulus":"[A] option 1, [L] option 2, [G] neither","key_press":76,"name":"choice","trial_type":"html-keyboard-response","trial_index":208,"time_elapsed":404704,"internal_node_id":"0.0-208.0","subject":"S1C1204","sona":"41422","block":6,"time":"2021-09-05T23:16:05.540Z","response":"2nd","certainty":"high","char":"L","transposition":0,"order":["shifted","swapped"],"probe_pitches":[-1,3,2,8,6,5,9,2,10,6,8,9],"shifted_pitches":[-1,3,2,8,6,4,9,2,10,6,8,9],"swapped_pitches":[-1,3,2,8,6,9,5,2,10,6,8,9],"shift_direction":-1,"question_num":181,"has_decoy":false},{"rt":1083.2000002861023,"stimulus":"[A] option 1, [L] option 2, [G] neither","key_press":71,"name":"choice","trial_type":"html-keyboard-response","trial_index":219,"time_elapsed":425419,"internal_node_id":"0.0-219.0","subject":"S1C1204","sona":"41422","block":6,"time":"2021-09-05T23:16:05.540Z","response":"neither","certainty":"high","char":"G","transposition":-3,"order":["swapped","shifted"],"probe_pitches":[6,4,8,6,4,5,8,0,8,1,6,3],"shifted_pitches":[6,4,8,6,4,5,9,0,8,1,6,3],"swapped_pitches":[6,4,8,6,4,8,5,0,8,1,6,3],"shift_direction":1,"question_num":191,"has_decoy":false}]