[{"rt":1077.6000000014901,"stimulus":"[A] option 1, [L] option 2, [G] neither","key_press":65,"name":"choice","trial_type":"html-keyboard-response","trial_index":10,"time_elapsed":23061,"internal_node_id":"0.0-10.0","subject":"S1C1654","sona":"41739","block":5,"time":"2021-09-22T16:40:05.276Z","response":"1st","certainty":"high","char":"A","transposition":-1,"order":["shifted","swapped"],"probe_pitches":[2,-1,4,3,8,2,1,10,4,6,9,7,1,0,1,9],"shifted_pitches":[2,-1,4,3,8,2,1,10,5,6,9,7,1,0,1,9],"swapped_pitches":[2,-1,4,3,8,2,1,4,10,6,9,7,1,0,1,9],"shift_direction":1,"question_num":1,"has_decoy":false},{"rt":682.8999999985099,"stimulus":"[A] option 1, [L] option 2, [G] neither","key_press":65,"name":"choice","trial_type":"html-keyboard-response","trial_index":21,"time_elapsed":46086,"internal_node_id":"0.0-21.0","subject":"S1C1654","sona":"41739","block":5,"time":"2021-09-22T16:40:05.276Z","response":"1st","certainty":"high","char":"A","transposition":-3,"order":["shifted","swapped"],"probe_pitches":[2,7,11,4,-1,2,4,7,11,2,-1,7,-1,7,11,9],"shifted_pitches":[2,7,11,4,-1,2,4,8,11,2,-1,7,-1,7,11,9],"swapped_pitches":[2,7,11,4,-1,2,4,11,7,2,-1,7,-1,7,11,9],"shift_direction":1,"question_num":11,"has_decoy":false},{"rt":2623.3000000044703,"stimulus":"[A] option 1, [L] option 2, [G] neither","key_press":65,"name":"choice","trial_type":"html-keyboard-response","trial_index":32,"time_elapsed":71027,"internal_node_id":"0.0-32.0","subject":"S1C1654","sona":"41739","block":5,"time":"2021-09-22T16:40:05.276Z","response":"1st","certainty":"high","char":"A","transposition":-2,"order":["shifted","swapped"],"probe_pitches":[-1,3,8,6,3,11,6,8,-1,1,6,3,-1,1,8,6],"shifted_pitches":[-1,3,8,6,3,11,6,7,-1,1,6,3,-1,1,8,6],"swapped_pitches":[-1,3,8,6,3,11,6,-1,8,1,6,3,-1,1,8,6],"shift_direction":-1,"question_num":21,"has_decoy":false},{"rt":1545.3999999985099,"stimulus":"[A] option 1, [L] option 2, [G] neither","key_press":71,"name":"choice","trial_type":"html-keyboard-response","trial_index":43,"time_elapsed":95318,"internal_node_id":"0.0-43.0","subject":"S1C1654","sona":"41739","block":5,"time":"2021-09-22T16:40:05.276Z","response":"neither","certainty":"high","char":"G","transposition":-2,"order":["shifted","swapped"],"probe_pitches":[4,-1,2,7,-1,1,6,10,7,-2,3,2,4,10,1,-1],"shifted_pitches":[4,-1,2,7,-1,1,6,10,8,-2,3,2,4,10,1,-1],"swapped_pitches":[4,-1,2,7,-1,1,6,7,10,-2,3,2,4,10,1,-1],"shift_direction":1,"question_num":31,"has_decoy":false},{"rt":475.6000000014901,"stimulus":"[A] option 1, [L] option 2, [G] neither","key_press":65,"name":"choice","trial_type":"html-keyboard-response","trial_index":54,"time_elapsed":189187,"internal_node_id":"0.0-54.0","subject":"S1C1654","sona":"41739","block":5,"time":"2021-09-22T16:40:05.276Z","response":"1st","certainty":"high","char":"A","transposition":1,"order":["swapped","shifted"],"probe_pitches":[4,-1,0,6,7,2,7,2,9,-2,2,4,2,0,2,9],"shifted_pitches":[4,-1,0,6,7,2,7,1,9,-2,2,4,2,0,2,9],"swapped_pitches":[4,-1,0,6,7,2,7,9,2,-2,2,4,2,0,2,9],"shift_direction":-1,"question_num":41,"has_decoy":false},{"rt":707.1999999955297,"stimulus":"[A] option 1, [L] option 2, [G] neither","key_press":76,"name":"choice","trial_type":"html-keyboard-response","trial_index":65,"time_elapsed":211949,"internal_node_id":"0.0-65.0","subject":"S1C1654","sona":"41739","block":5,"time":"2021-09-22T16:40:05.276Z","response":"2nd","certainty":"high","char":"L","transposition":0,"order":["shifted","swapped"],"probe_pitches":[3,8,3,2,9,8,2,8,6,-1,2,5,8,10,8,0],"shifted_pitches":[3,8,3,2,9,8,2,8,7,-1,2,5,8,10,8,0],"swapped_pitches":[3,8,3,2,9,8,2,6,8,-1,2,5,8,10,8,0],"shift_direction":1,"question_num":51,"has_decoy":false},{"rt":1009.8999999985099,"stimulus":"[A] option 1, [L] option 2, [G] neither","key_press":71,"name":"choice","trial_type":"html-keyboard-response","trial_index":76,"time_elapsed":235132,"internal_node_id":"0.0-76.0","subject":"S1C1654","sona":"41739","block":5,"time":"2021-09-22T16:40:05.276Z","response":"neither","certainty":"high","char":"G","transposition":-3,"order":["swapped","shifted"],"probe_pitches":[5,9,5,6,1,7,8,-2,5,0,8,6,7,0,3,6],"shifted_pitches":[5,9,5,6,1,7,8,-2,4,0,8,6,7,0,3,6],"swapped_pitches":[5,9,5,6,1,7,8,5,-2,0,8,6,7,0,3,6],"shift_direction":-1,"question_num":61,"has_decoy":false},{"rt":530.9000000059605,"stimulus":"[A] option 1, [L] option 2, [G] neither","key_press":65,"name":"choice","trial_type":"html-keyboard-response","trial_index":87,"time_elapsed":258103,"internal_node_id":"0.0-87.0","subject":"S1C1654","sona":"41739","block":5,"time":"2021-09-22T16:40:05.276Z","response":"1st","certainty":"high","char":"A","transposition":-3,"order":["shifted","swapped"],"probe_pitches":[-1,4,-1,4,10,5,1,5,2,4,0,1,3,9,0,10],"shifted_pitches":[-1,4,-1,4,10,5,1,6,2,4,0,1,3,9,0,10],"swapped_pitches":[-1,4,-1,4,10,5,1,2,5,4,0,1,3,9,0,10],"shift_direction":1,"question_num":71,"has_decoy":false},{"rt":400.5,"stimulus":"[A] option 1, [L] option 2, [G] neither","key_press":76,"name":"choice","trial_type":"html-keyboard-response","trial_index":98,"time_elapsed":280642,"internal_node_id":"0.0-98.0","subject":"S1C1654","sona":"41739","block":5,"time":"2021-09-22T16:40:05.276Z","response":"2nd","certainty":"high","char":"L","transposition":0,"order":["swapped","shifted"],"probe_pitches":[4,6,9,4,6,4,6,4,1,-1,4,6,9,6,4,11],"shifted_pitches":[4,6,9,4,6,4,6,3,1,-1,4,6,9,6,4,11],"swapped_pitches":[4,6,9,4,6,4,6,1,4,-1,4,6,9,6,4,11],"shift_direction":-1,"question_num":81,"has_decoy":false},{"rt":1528.8999999985099,"stimulus":"[A] option 1, [L] option 2, [G] neither","key_press":71,"name":"choice","trial_type":"html-keyboard-response","trial_index":109,"time_elapsed":304371,"internal_node_id":"0.0-109.0","subject":"S1C1654","sona":"41739","block":5,"time":"2021-09-22T16:40:05.276Z","response":"neither","certainty":"high","char":"G","transposition":3,"order":["swapped","shifted"],"probe_pitches":[6,0,4,10,3,7,6,3,0,1,8,5,-2,0,7,3],"shifted_pitches":[6,0,4,10,3,7,6,2,0,1,8,5,-2,0,7,3],"swapped_pitches":[6,0,4,10,3,7,6,0,3,1,8,5,-2,0,7,3],"shift_direction":-1,"question_num":91,"has_decoy":false},{"rt":945,"stimulus":"[A] option 1, [L] option 2, [G] neither","key_press":65,"name":"choice","trial_type":"html-keyboard-response","trial_index":120,"time_elapsed":327467,"internal_node_id":"0.0-120.0","subject":"S1C1654","sona":"41739","block":5,"time":"2021-09-22T16:40:05.276Z","response":"1st","certainty":"high","char":"A","transposition":-2,"order":["swapped","shifted"],"probe_pitches":[6,4,2,3,7,-1,5,-1,4,9,8,2,1,10,-2,2],"shifted_pitches":[6,4,2,3,7,-1,5,0,4,9,8,2,1,10,-2,2],"swapped_pitches":[6,4,2,3,7,-1,5,4,-1,9,8,2,1,10,-2,2],"shift_direction":1,"question_num":101,"has_decoy":false},{"rt":437.29999999701977,"stimulus":"[A] option 1, [L] option 2, [G] neither","key_press":65,"name":"choice","trial_type":"html-keyboard-response","trial_index":131,"time_elapsed":350289,"internal_node_id":"0.0-131.0","subject":"S1C1654","sona":"41739","block":5,"time":"2021-09-22T16:40:05.276Z","response":"1st","certainty":"high","char":"A","transposition":-1,"order":["shifted","swapped"],"probe_pitches":[6,9,2,9,4,9,-1,11,4,2,4,11,6,9,4,2],"shifted_pitches":[6,9,2,9,4,9,-1,11,5,2,4,11,6,9,4,2],"swapped_pitches":[6,9,2,9,4,9,-1,4,11,2,4,11,6,9,4,2],"shift_direction":1,"question_num":111,"has_decoy":false},{"rt":1038.7000000029802,"stimulus":"[A] option 1, [L] option 2, [G] neither","key_press":76,"name":"choice","trial_type":"html-keyboard-response","trial_index":142,"time_elapsed":373671,"internal_node_id":"0.0-142.0","subject":"S1C1654","sona":"41739","block":5,"time":"2021-09-22T16:40:05.276Z","response":"2nd","certainty":"high","char":"L","transposition":1,"order":["swapped","shifted"],"probe_pitches":[4,2,9,2,9,11,9,11,7,2,-1,9,7,11,7,2],"shifted_pitches":[4,2,9,2,9,11,9,11,6,2,-1,9,7,11,7,2],"swapped_pitches":[4,2,9,2,9,11,9,7,11,2,-1,9,7,11,7,2],"shift_direction":-1,"question_num":121,"has_decoy":false},{"rt":338,"stimulus":"[A] option 1, [L] option 2, [G] neither","key_press":76,"name":"choice","trial_type":"html-keyboard-response","trial_index":153,"time_elapsed":396190,"internal_node_id":"0.0-153.0","subject":"S1C1654","sona":"41739","block":5,"time":"2021-09-22T16:40:05.276Z","response":"2nd","certainty":"high","char":"L","transposition":-1,"order":["swapped","shifted"],"probe_pitches":[11,6,1,3,-1,6,8,6,3,1,-1,11,1,-1,1,3],"shifted_pitches":[11,6,1,3,-1,6,8,6,2,1,-1,11,1,-1,1,3],"swapped_pitches":[11,6,1,3,-1,6,8,3,6,1,-1,11,1,-1,1,3],"shift_direction":-1,"question_num":131,"has_decoy":false},{"rt":1165.8999999985099,"stimulus":"[A] option 1, [L] option 2, [G] neither","key_press":76,"name":"choice","trial_type":"html-keyboard-response","trial_index":164,"time_elapsed":419418,"internal_node_id":"0.0-164.0","subject":"S1C1654","sona":"41739","block":5,"time":"2021-09-22T16:40:05.276Z","response":"2nd","certainty":"high","char":"L","transposition":3,"order":["swapped","shifted"],"probe_pitches":[6,1,-1,6,4,6,9,-1,4,9,11,-1,4,6,-1,11],"shifted_pitches":[6,1,-1,6,4,6,9,0,4,9,11,-1,4,6,-1,11],"swapped_pitches":[6,1,-1,6,4,6,9,4,-1,9,11,-1,4,6,-1,11],"shift_direction":1,"question_num":141,"has_decoy":false},{"rt":563,"stimulus":"[A] option 1, [L] option 2, [G] neither","key_press":76,"name":"choice","trial_type":"html-keyboard-response","trial_index":175,"time_elapsed":442015,"internal_node_id":"0.0-175.0","subject":"S1C1654","sona":"41739","block":5,"time":"2021-09-22T16:40:05.276Z","response":"2nd","certainty":"high","char":"L","transposition":-1,"order":["swapped","shifted"],"probe_pitches":[1,7,6,8,5,7,-1,-2,0,7,-2,8,5,2,5,0],"shifted_pitches":[1,7,6,8,5,7,-1,-3,0,7,-2,8,5,2,5,0],"swapped_pitches":[1,7,6,8,5,7,-1,0,-2,7,-2,8,5,2,5,0],"shift_direction":-1,"question_num":151,"has_decoy":false},{"rt":1216.6000000014901,"stimulus":"[A] option 1, [L] option 2, [G] neither","key_press":76,"name":"choice","trial_type":"html-keyboard-response","trial_index":186,"time_elapsed":465309,"internal_node_id":"0.0-186.0","subject":"S1C1654","sona":"41739","block":5,"time":"2021-09-22T16:40:05.276Z","response":"2nd","certainty":"high","char":"L","transposition":-2,"order":["shifted","swapped"],"probe_pitches":[1,6,1,8,11,6,8,6,1,-1,11,1,11,8,6,4],"shifted_pitches":[1,6,1,8,11,6,8,6,2,-1,11,1,11,8,6,4],"swapped_pitches":[1,6,1,8,11,6,8,1,6,-1,11,1,11,8,6,4],"shift_direction":1,"question_num":161,"has_decoy":false},{"rt":403.19999999552965,"stimulus":"[A] option 1, [L] option 2, [G] neither","key_press":76,"name":"choice","trial_type":"html-keyboard-response","trial_index":197,"time_elapsed":487775,"internal_node_id":"0.0-197.0","subject":"S1C1654","sona":"41739","block":5,"time":"2021-09-22T16:40:05.276Z","response":"2nd","certainty":"high","char":"L","transposition":2,"order":["shifted","swapped"],"probe_pitches":[-1,2,7,6,0,1,5,9,4,5,2,4,9,6,-2,0],"shifted_pitches":[-1,2,7,6,0,1,5,9,3,5,2,4,9,6,-2,0],"swapped_pitches":[-1,2,7,6,0,1,5,4,9,5,2,4,9,6,-2,0],"shift_direction":-1,"question_num":171,"has_decoy":false},{"rt":821,"stimulus":"[A] option 1, [L] option 2, [G] neither","key_press":65,"name":"choice","trial_type":"html-keyboard-response","trial_index":208,"time_elapsed":510733,"internal_node_id":"0.0-208.0","subject":"S1C1654","sona":"41739","block":5,"time":"2021-09-22T16:40:05.276Z","response":"1st","certainty":"high","char":"A","transposition":-3,"order":["shifted","swapped"],"probe_pitches":[1,6,1,-1,1,-1,6,4,8,-1,6,-1,4,1,11,1],"shifted_pitches":[1,6,1,-1,1,-1,6,3,8,-1,6,-1,4,1,11,1],"swapped_pitches":[1,6,1,-1,1,-1,6,8,4,-1,6,-1,4,1,11,1],"shift_direction":-1,"question_num":181,"has_decoy":false},{"rt":457.5,"stimulus":"[A] option 1, [L] option 2, [G] neither","key_press":76,"name":"choice","trial_type":"html-keyboard-response","trial_index":219,"time_elapsed":533279,"internal_node_id":"0.0-219.0","subject":"S1C1654","sona":"41739","block":5,"time":"2021-09-22T16:40:05.276Z","response":"2nd","certainty":"high","char":"L","transposition":2,"order":["swapped","shifted"],"probe_pitches":[-1,2,4,6,9,11,9,6,-1,11,2,11,6,4,2,-1],"shifted_pitches":[-1,2,4,6,9,11,9,6,0,11,2,11,6,4,2,-1],"swapped_pitches":[-1,2,4,6,9,11,9,-1,6,11,2,11,6,4,2,-1],"shift_direction":1,"question_num":191,"has_decoy":false}]