[{"rt":8195.69999999553,"stimulus":"[A] option 1, [L] option 2, [G] neither","key_press":76,"name":"choice","trial_type":"html-keyboard-response","trial_index":15,"time_elapsed":85352,"internal_node_id":"0.0-15.0","response":"2nd","certainty":"high","char":"L","transposition":-2,"order":["shifted","swapped"],"probe_pitches":[-3,3,-2,4,8,1,8,-3,6,3,-2,2,-1,9,-3,5],"shifted_pitches":[-3,3,-2,4,8,1,8,-3,7,3,-2,2,-1,9,-3,5],"swapped_pitches":[-3,3,-2,4,8,1,8,6,-3,3,-2,2,-1,9,-3,5],"shift_direction":1,"question_num":1,"has_decoy":false,"subject":"S1C1654","sona":"41739","block":1,"time":"2021-09-22T16:00:44.127Z"},{"rt":1555.7999999970198,"stimulus":"[A] option 1, [L] option 2, [G] neither","key_press":76,"name":"choice","trial_type":"html-keyboard-response","trial_index":26,"time_elapsed":111671,"internal_node_id":"0.0-26.0","response":"2nd","certainty":"high","char":"L","transposition":-3,"order":["shifted","swapped"],"probe_pitches":[10,8,13,8,15,5,8,13,3,15,10,3,10,8,5,8],"shifted_pitches":[10,8,13,8,15,5,8,13,2,15,10,3,10,8,5,8],"swapped_pitches":[10,8,13,8,15,5,8,3,13,15,10,3,10,8,5,8],"shift_direction":-1,"question_num":11,"has_decoy":false,"subject":"S1C1654","sona":"41739","block":1,"time":"2021-09-22T16:00:44.127Z"},{"rt":1746.7000000029802,"stimulus":"[A] option 1, [L] option 2, [G] neither","key_press":65,"name":"choice","trial_type":"html-keyboard-response","trial_index":37,"time_elapsed":137942,"internal_node_id":"0.0-37.0","response":"1st","certainty":"high","char":"A","transposition":-1,"order":["swapped","shifted"],"probe_pitches":[8,2,5,1,6,4,-1,6,4,7,8,-2,-3,-2,-1,-2],"shifted_pitches":[8,2,5,1,6,4,-1,6,3,7,8,-2,-3,-2,-1,-2],"swapped_pitches":[8,2,5,1,6,4,-1,4,6,7,8,-2,-3,-2,-1,-2],"shift_direction":-1,"question_num":21,"has_decoy":false,"subject":"S1C1654","sona":"41739","block":1,"time":"2021-09-22T16:00:44.127Z"},{"rt":6366,"stimulus":"[A] option 1, [L] option 2, [G] neither","key_press":76,"name":"choice","trial_type":"html-keyboard-response","trial_index":48,"time_elapsed":168461,"internal_node_id":"0.0-48.0","response":"2nd","certainty":"high","char":"L","transposition":3,"order":["shifted","swapped"],"probe_pitches":[5,10,12,8,12,3,8,12,3,10,5,12,8,12,3,10],"shifted_pitches":[5,10,12,8,12,3,8,11,3,10,5,12,8,12,3,10],"swapped_pitches":[5,10,12,8,12,3,8,3,12,10,5,12,8,12,3,10],"shift_direction":-1,"question_num":31,"has_decoy":false,"subject":"S1C1654","sona":"41739","block":1,"time":"2021-09-22T16:00:44.127Z"},{"rt":921.5,"stimulus":"[A] option 1, [L] option 2, [G] neither","key_press":76,"name":"choice","trial_type":"html-keyboard-response","trial_index":59,"time_elapsed":193626,"internal_node_id":"0.0-59.0","response":"2nd","certainty":"high","char":"L","transposition":2,"order":["swapped","shifted"],"probe_pitches":[6,3,9,1,-2,3,2,7,6,9,1,5,-1,2,7,-2],"shifted_pitches":[6,3,9,1,-2,3,2,8,6,9,1,5,-1,2,7,-2],"swapped_pitches":[6,3,9,1,-2,3,2,6,7,9,1,5,-1,2,7,-2],"shift_direction":1,"question_num":41,"has_decoy":false,"subject":"S1C1654","sona":"41739","block":1,"time":"2021-09-22T16:00:44.127Z"},{"rt":385.3999999985099,"stimulus":"[A] option 1, [L] option 2, [G] neither","key_press":76,"name":"choice","trial_type":"html-keyboard-response","trial_index":70,"time_elapsed":216290,"internal_node_id":"0.0-70.0","response":"2nd","certainty":"high","char":"L","transposition":2,"order":["swapped","shifted"],"probe_pitches":[7,3,7,15,12,7,10,7,12,3,5,10,12,15,5,3],"shifted_pitches":[7,3,7,15,12,7,10,7,13,3,5,10,12,15,5,3],"swapped_pitches":[7,3,7,15,12,7,10,12,7,3,5,10,12,15,5,3],"shift_direction":1,"question_num":51,"has_decoy":false,"subject":"S1C1654","sona":"41739","block":1,"time":"2021-09-22T16:00:44.127Z"},{"rt":362.29999999701977,"stimulus":"[A] option 1, [L] option 2, [G] neither","key_press":76,"name":"choice","trial_type":"html-keyboard-response","trial_index":81,"time_elapsed":241506,"internal_node_id":"0.0-81.0","response":"2nd","certainty":"high","char":"L","transposition":-1,"order":["swapped","shifted"],"probe_pitches":[0,6,-1,4,3,5,6,-3,1,6,-2,3,1,3,-1,-2],"shifted_pitches":[0,6,-1,4,3,5,6,-3,2,6,-2,3,1,3,-1,-2],"swapped_pitches":[0,6,-1,4,3,5,6,1,-3,6,-2,3,1,3,-1,-2],"shift_direction":1,"question_num":61,"has_decoy":false,"subject":"S1C1654","sona":"41739","block":1,"time":"2021-09-22T16:00:44.127Z"},{"rt":1220,"stimulus":"[A] option 1, [L] option 2, [G] neither","key_press":65,"name":"choice","trial_type":"html-keyboard-response","trial_index":92,"time_elapsed":265045,"internal_node_id":"0.0-92.0","response":"1st","certainty":"high","char":"A","transposition":1,"order":["swapped","shifted"],"probe_pitches":[8,7,4,-2,2,-1,9,-1,8,5,-1,5,4,6,-2,4],"shifted_pitches":[8,7,4,-2,2,-1,9,0,8,5,-1,5,4,6,-2,4],"swapped_pitches":[8,7,4,-2,2,-1,9,8,-1,5,-1,5,4,6,-2,4],"shift_direction":1,"question_num":71,"has_decoy":false,"subject":"S1C1654","sona":"41739","block":1,"time":"2021-09-22T16:00:44.127Z"},{"rt":1109.3999999985099,"stimulus":"[A] option 1, [L] option 2, [G] neither","key_press":65,"name":"choice","trial_type":"html-keyboard-response","trial_index":103,"time_elapsed":289484,"internal_node_id":"0.0-103.0","response":"1st","certainty":"high","char":"A","transposition":-3,"order":["shifted","swapped"],"probe_pitches":[9,7,8,7,8,5,7,0,1,9,4,9,6,2,-2,7],"shifted_pitches":[9,7,8,7,8,5,7,-1,1,9,4,9,6,2,-2,7],"swapped_pitches":[9,7,8,7,8,5,7,1,0,9,4,9,6,2,-2,7],"shift_direction":-1,"question_num":81,"has_decoy":false,"subject":"S1C1654","sona":"41739","block":1,"time":"2021-09-22T16:00:44.127Z"},{"rt":9433.89999999851,"stimulus":"[A] option 1, [L] option 2, [G] neither","key_press":71,"name":"choice","trial_type":"html-keyboard-response","trial_index":114,"time_elapsed":324698,"internal_node_id":"0.0-114.0","response":"neither","certainty":"high","char":"G","transposition":1,"order":["shifted","swapped"],"probe_pitches":[6,10,13,8,10,6,15,8,6,13,15,6,3,10,3,6],"shifted_pitches":[6,10,13,8,10,6,15,8,5,13,15,6,3,10,3,6],"swapped_pitches":[6,10,13,8,10,6,15,6,8,13,15,6,3,10,3,6],"shift_direction":-1,"question_num":91,"has_decoy":false,"subject":"S1C1654","sona":"41739","block":1,"time":"2021-09-22T16:00:44.127Z"},{"rt":463.8999999985099,"stimulus":"[A] option 1, [L] option 2, [G] neither","key_press":76,"name":"choice","trial_type":"html-keyboard-response","trial_index":125,"time_elapsed":350138,"internal_node_id":"0.0-125.0","response":"2nd","certainty":"high","char":"L","transposition":-1,"order":["swapped","shifted"],"probe_pitches":[6,3,8,3,11,15,13,3,8,15,13,11,15,13,6,11],"shifted_pitches":[6,3,8,3,11,15,13,2,8,15,13,11,15,13,6,11],"swapped_pitches":[6,3,8,3,11,15,13,8,3,15,13,11,15,13,6,11],"shift_direction":-1,"question_num":101,"has_decoy":false,"subject":"S1C1654","sona":"41739","block":1,"time":"2021-09-22T16:00:44.127Z"},{"rt":1145.8000000044703,"stimulus":"[A] option 1, [L] option 2, [G] neither","key_press":65,"name":"choice","trial_type":"html-keyboard-response","trial_index":136,"time_elapsed":374540,"internal_node_id":"0.0-136.0","response":"1st","certainty":"high","char":"A","transposition":0,"order":["shifted","swapped"],"probe_pitches":[3,5,3,8,3,10,15,3,8,12,3,8,10,15,12,10],"shifted_pitches":[3,5,3,8,3,10,15,3,9,12,3,8,10,15,12,10],"swapped_pitches":[3,5,3,8,3,10,15,8,3,12,3,8,10,15,12,10],"shift_direction":1,"question_num":111,"has_decoy":false,"subject":"S1C1654","sona":"41739","block":1,"time":"2021-09-22T16:00:44.127Z"},{"rt":988.3999999985099,"stimulus":"[A] option 1, [L] option 2, [G] neither","key_press":76,"name":"choice","trial_type":"html-keyboard-response","trial_index":147,"time_elapsed":398224,"internal_node_id":"0.0-147.0","response":"2nd","certainty":"high","char":"L","transposition":-3,"order":["shifted","swapped"],"probe_pitches":[6,0,2,1,9,1,5,3,2,0,-2,5,-1,1,3,2],"shifted_pitches":[6,0,2,1,9,1,5,4,2,0,-2,5,-1,1,3,2],"swapped_pitches":[6,0,2,1,9,1,5,2,3,0,-2,5,-1,1,3,2],"shift_direction":1,"question_num":121,"has_decoy":false,"subject":"S1C1654","sona":"41739","block":1,"time":"2021-09-22T16:00:44.127Z"},{"rt":286.5,"stimulus":"[A] option 1, [L] option 2, [G] neither","key_press":76,"name":"choice","trial_type":"html-keyboard-response","trial_index":158,"time_elapsed":420801,"internal_node_id":"0.0-158.0","response":"2nd","certainty":"high","char":"L","transposition":3,"order":["swapped","shifted"],"probe_pitches":[7,3,0,-1,4,-1,9,3,7,0,9,0,-3,2,1,-2],"shifted_pitches":[7,3,0,-1,4,-1,9,3,6,0,9,0,-3,2,1,-2],"swapped_pitches":[7,3,0,-1,4,-1,9,7,3,0,9,0,-3,2,1,-2],"shift_direction":-1,"question_num":131,"has_decoy":false,"subject":"S1C1654","sona":"41739","block":1,"time":"2021-09-22T16:00:44.127Z"},{"rt":1057.3999999985099,"stimulus":"[A] option 1, [L] option 2, [G] neither","key_press":65,"name":"choice","trial_type":"html-keyboard-response","trial_index":169,"time_elapsed":444142,"internal_node_id":"0.0-169.0","response":"1st","certainty":"high","char":"A","transposition":-2,"order":["shifted","swapped"],"probe_pitches":[6,7,1,4,-2,0,3,-1,6,3,2,-2,0,7,-3,4],"shifted_pitches":[6,7,1,4,-2,0,3,-1,5,3,2,-2,0,7,-3,4],"swapped_pitches":[6,7,1,4,-2,0,3,6,-1,3,2,-2,0,7,-3,4],"shift_direction":-1,"question_num":141,"has_decoy":false,"subject":"S1C1654","sona":"41739","block":1,"time":"2021-09-22T16:00:44.127Z"},{"rt":748.4000000059605,"stimulus":"[A] option 1, [L] option 2, [G] neither","key_press":76,"name":"choice","trial_type":"html-keyboard-response","trial_index":180,"time_elapsed":468033,"internal_node_id":"0.0-180.0","response":"2nd","certainty":"high","char":"L","transposition":-3,"order":["shifted","swapped"],"probe_pitches":[8,3,5,8,13,5,15,3,13,5,8,15,10,13,8,5],"shifted_pitches":[8,3,5,8,13,5,15,4,13,5,8,15,10,13,8,5],"swapped_pitches":[8,3,5,8,13,5,15,13,3,5,8,15,10,13,8,5],"shift_direction":1,"question_num":151,"has_decoy":false,"subject":"S1C1654","sona":"41739","block":1,"time":"2021-09-22T16:00:44.127Z"},{"rt":975.6999999955297,"stimulus":"[A] option 1, [L] option 2, [G] neither","key_press":71,"name":"choice","trial_type":"html-keyboard-response","trial_index":191,"time_elapsed":492460,"internal_node_id":"0.0-191.0","response":"neither","certainty":"high","char":"G","transposition":0,"order":["shifted","swapped"],"probe_pitches":[-3,2,-1,5,-1,8,6,2,3,8,7,0,7,-3,3,6],"shifted_pitches":[-3,2,-1,5,-1,8,6,1,3,8,7,0,7,-3,3,6],"swapped_pitches":[-3,2,-1,5,-1,8,6,3,2,8,7,0,7,-3,3,6],"shift_direction":-1,"question_num":161,"has_decoy":false,"subject":"S1C1654","sona":"41739","block":1,"time":"2021-09-22T16:00:44.127Z"},{"rt":334.69999999552965,"stimulus":"[A] option 1, [L] option 2, [G] neither","key_press":76,"name":"choice","trial_type":"html-keyboard-response","trial_index":202,"time_elapsed":515139,"internal_node_id":"0.0-202.0","response":"2nd","certainty":"high","char":"L","transposition":-2,"order":["swapped","shifted"],"probe_pitches":[3,8,15,8,13,15,13,3,8,6,8,15,3,6,8,11],"shifted_pitches":[3,8,15,8,13,15,13,3,9,6,8,15,3,6,8,11],"swapped_pitches":[3,8,15,8,13,15,13,8,3,6,8,15,3,6,8,11],"shift_direction":1,"question_num":171,"has_decoy":false,"subject":"S1C1654","sona":"41739","block":1,"time":"2021-09-22T16:00:44.127Z"},{"rt":1058.7000000029802,"stimulus":"[A] option 1, [L] option 2, [G] neither","key_press":76,"name":"choice","trial_type":"html-keyboard-response","trial_index":213,"time_elapsed":538583,"internal_node_id":"0.0-213.0","response":"2nd","certainty":"high","char":"L","transposition":-1,"order":["swapped","shifted"],"probe_pitches":[6,8,10,13,6,13,10,6,3,13,10,13,10,13,3,8],"shifted_pitches":[6,8,10,13,6,13,10,7,3,13,10,13,10,13,3,8],"swapped_pitches":[6,8,10,13,6,13,10,3,6,13,10,13,10,13,3,8],"shift_direction":1,"question_num":181,"has_decoy":false,"subject":"S1C1654","sona":"41739","block":1,"time":"2021-09-22T16:00:44.127Z"},{"rt":668.7999999970198,"stimulus":"[A] option 1, [L] option 2, [G] neither","key_press":76,"name":"choice","trial_type":"html-keyboard-response","trial_index":224,"time_elapsed":561893,"internal_node_id":"0.0-224.0","response":"2nd","certainty":"high","char":"L","transposition":-2,"order":["swapped","shifted"],"probe_pitches":[15,10,3,10,5,3,12,15,7,3,15,12,10,7,12,10],"shifted_pitches":[15,10,3,10,5,3,12,14,7,3,15,12,10,7,12,10],"swapped_pitches":[15,10,3,10,5,3,12,7,15,3,15,12,10,7,12,10],"shift_direction":-1,"question_num":191,"has_decoy":false,"subject":"S1C1654","sona":"41739","block":1,"time":"2021-09-22T16:00:44.127Z"}]