[{"rt":376,"stimulus":"[A] option 1, [L] option 2, [G] neither","key_press":65,"name":"choice","trial_type":"html-keyboard-response","trial_index":10,"time_elapsed":238404,"internal_node_id":"0.0-10.0","subject":"S1C1654","sona":"41739","block":3,"time":"2021-09-22T16:23:17.872Z","response":"1st","certainty":"high","char":"A","transposition":2,"order":["shifted","swapped"],"probe_pitches":[1,-2,1,3,-2,1,3,1,-2,6,8,1,-2,3,6,3],"shifted_pitches":[1,-2,1,3,-2,1,3,1,-3,6,8,1,-2,3,6,3],"swapped_pitches":[1,-2,1,3,-2,1,3,-2,1,6,8,1,-2,3,6,3],"shift_direction":-1,"question_num":1,"has_decoy":false},{"rt":320.29999999701977,"stimulus":"[A] option 1, [L] option 2, [G] neither","key_press":76,"name":"choice","trial_type":"html-keyboard-response","trial_index":21,"time_elapsed":263209,"internal_node_id":"0.0-21.0","subject":"S1C1654","sona":"41739","block":3,"time":"2021-09-22T16:23:17.872Z","response":"2nd","certainty":"high","char":"L","transposition":0,"order":["shifted","swapped"],"probe_pitches":[0,1,5,0,3,0,1,9,5,0,7,12,10,4,1,12],"shifted_pitches":[0,1,5,0,3,0,1,8,5,0,7,12,10,4,1,12],"swapped_pitches":[0,1,5,0,3,0,1,5,9,0,7,12,10,4,1,12],"shift_direction":-1,"question_num":11,"has_decoy":false},{"rt":569.2999999970198,"stimulus":"[A] option 1, [L] option 2, [G] neither","key_press":76,"name":"choice","trial_type":"html-keyboard-response","trial_index":32,"time_elapsed":288857,"internal_node_id":"0.0-32.0","subject":"S1C1654","sona":"41739","block":3,"time":"2021-09-22T16:23:17.872Z","response":"2nd","certainty":"high","char":"L","transposition":-2,"order":["swapped","shifted"],"probe_pitches":[10,4,0,4,1,5,4,0,10,6,8,4,12,7,5,1],"shifted_pitches":[10,4,0,4,1,5,4,0,11,6,8,4,12,7,5,1],"swapped_pitches":[10,4,0,4,1,5,4,10,0,6,8,4,12,7,5,1],"shift_direction":1,"question_num":21,"has_decoy":false},{"rt":359,"stimulus":"[A] option 1, [L] option 2, [G] neither","key_press":76,"name":"choice","trial_type":"html-keyboard-response","trial_index":43,"time_elapsed":311357,"internal_node_id":"0.0-43.0","subject":"S1C1654","sona":"41739","block":3,"time":"2021-09-22T16:23:17.872Z","response":"2nd","certainty":"high","char":"L","transposition":-3,"order":["swapped","shifted"],"probe_pitches":[0,-2,0,-2,5,7,10,7,3,0,7,-2,10,-2,10,3],"shifted_pitches":[0,-2,0,-2,5,7,10,7,2,0,7,-2,10,-2,10,3],"swapped_pitches":[0,-2,0,-2,5,7,10,3,7,0,7,-2,10,-2,10,3],"shift_direction":-1,"question_num":31,"has_decoy":false},{"rt":234,"stimulus":"[A] option 1, [L] option 2, [G] neither","key_press":76,"name":"choice","trial_type":"html-keyboard-response","trial_index":54,"time_elapsed":379983,"internal_node_id":"0.0-54.0","subject":"S1C1654","sona":"41739","block":3,"time":"2021-09-22T16:23:17.872Z","response":"2nd","certainty":"high","char":"L","transposition":1,"order":["swapped","shifted"],"probe_pitches":[5,7,3,9,11,4,8,1,6,5,11,5,7,3,9,4],"shifted_pitches":[5,7,3,9,11,4,8,2,6,5,11,5,7,3,9,4],"swapped_pitches":[5,7,3,9,11,4,8,6,1,5,11,5,7,3,9,4],"shift_direction":1,"question_num":41,"has_decoy":false},{"rt":498.3999999985099,"stimulus":"[A] option 1, [L] option 2, [G] neither","key_press":65,"name":"choice","trial_type":"html-keyboard-response","trial_index":65,"time_elapsed":403008,"internal_node_id":"0.0-65.0","subject":"S1C1654","sona":"41739","block":3,"time":"2021-09-22T16:23:17.872Z","response":"1st","certainty":"high","char":"A","transposition":-1,"order":["shifted","swapped"],"probe_pitches":[10,5,8,5,8,10,1,10,5,-2,10,8,5,-2,3,5],"shifted_pitches":[10,5,8,5,8,10,1,11,5,-2,10,8,5,-2,3,5],"swapped_pitches":[10,5,8,5,8,10,1,5,10,-2,10,8,5,-2,3,5],"shift_direction":1,"question_num":51,"has_decoy":false},{"rt":1551.8999999985099,"stimulus":"[A] option 1, [L] option 2, [G] neither","key_press":76,"name":"choice","trial_type":"html-keyboard-response","trial_index":76,"time_elapsed":426821,"internal_node_id":"0.0-76.0","subject":"S1C1654","sona":"41739","block":3,"time":"2021-09-22T16:23:17.872Z","response":"2nd","certainty":"high","char":"L","transposition":3,"order":["swapped","shifted"],"probe_pitches":[0,5,6,2,3,4,8,12,9,1,8,4,8,9,4,8],"shifted_pitches":[0,5,6,2,3,4,8,12,10,1,8,4,8,9,4,8],"swapped_pitches":[0,5,6,2,3,4,8,9,12,1,8,4,8,9,4,8],"shift_direction":1,"question_num":61,"has_decoy":false},{"rt":1199.6000000014901,"stimulus":"[A] option 1, [L] option 2, [G] neither","key_press":76,"name":"choice","trial_type":"html-keyboard-response","trial_index":87,"time_elapsed":450288,"internal_node_id":"0.0-87.0","subject":"S1C1654","sona":"41739","block":3,"time":"2021-09-22T16:23:17.872Z","response":"2nd","certainty":"high","char":"L","transposition":-3,"order":["shifted","swapped"],"probe_pitches":[0,3,2,7,0,10,11,2,5,10,2,7,0,2,11,1],"shifted_pitches":[0,3,2,7,0,10,11,2,6,10,2,7,0,2,11,1],"swapped_pitches":[0,3,2,7,0,10,11,5,2,10,2,7,0,2,11,1],"shift_direction":1,"question_num":71,"has_decoy":false},{"rt":1152.4000000059605,"stimulus":"[A] option 1, [L] option 2, [G] neither","key_press":76,"name":"choice","trial_type":"html-keyboard-response","trial_index":98,"time_elapsed":473671,"internal_node_id":"0.0-98.0","subject":"S1C1654","sona":"41739","block":3,"time":"2021-09-22T16:23:17.872Z","response":"2nd","certainty":"high","char":"L","transposition":-2,"order":["swapped","shifted"],"probe_pitches":[11,6,1,2,0,6,9,4,11,5,8,0,6,7,2,10],"shifted_pitches":[11,6,1,2,0,6,9,3,11,5,8,0,6,7,2,10],"swapped_pitches":[11,6,1,2,0,6,9,11,4,5,8,0,6,7,2,10],"shift_direction":-1,"question_num":81,"has_decoy":false},{"rt":445.20000000298023,"stimulus":"[A] option 1, [L] option 2, [G] neither","key_press":76,"name":"choice","trial_type":"html-keyboard-response","trial_index":109,"time_elapsed":496784,"internal_node_id":"0.0-109.0","subject":"S1C1654","sona":"41739","block":3,"time":"2021-09-22T16:23:17.872Z","response":"2nd","certainty":"high","char":"L","transposition":-3,"order":["swapped","shifted"],"probe_pitches":[0,-2,3,8,0,10,5,0,3,8,0,10,5,3,-2,8],"shifted_pitches":[0,-2,3,8,0,10,5,-1,3,8,0,10,5,3,-2,8],"swapped_pitches":[0,-2,3,8,0,10,5,3,0,8,0,10,5,3,-2,8],"shift_direction":-1,"question_num":91,"has_decoy":false},{"rt":357,"stimulus":"[A] option 1, [L] option 2, [G] neither","key_press":76,"name":"choice","trial_type":"html-keyboard-response","trial_index":120,"time_elapsed":526626,"internal_node_id":"0.0-120.0","subject":"S1C1654","sona":"41739","block":3,"time":"2021-09-22T16:23:17.872Z","response":"2nd","certainty":"high","char":"L","transposition":3,"order":["swapped","shifted"],"probe_pitches":[7,5,2,-2,7,2,0,2,-2,5,7,2,10,5,7,-2],"shifted_pitches":[7,5,2,-2,7,2,0,3,-2,5,7,2,10,5,7,-2],"swapped_pitches":[7,5,2,-2,7,2,0,-2,2,5,7,2,10,5,7,-2],"shift_direction":1,"question_num":101,"has_decoy":false},{"rt":1504.2000000029802,"stimulus":"[A] option 1, [L] option 2, [G] neither","key_press":65,"name":"choice","trial_type":"html-keyboard-response","trial_index":131,"time_elapsed":550374,"internal_node_id":"0.0-131.0","subject":"S1C1654","sona":"41739","block":3,"time":"2021-09-22T16:23:17.872Z","response":"1st","certainty":"high","char":"A","transposition":-1,"order":["shifted","swapped"],"probe_pitches":[1,3,6,8,1,9,11,5,8,0,11,7,11,2,11,12],"shifted_pitches":[1,3,6,8,1,9,11,4,8,0,11,7,11,2,11,12],"swapped_pitches":[1,3,6,8,1,9,11,8,5,0,11,7,11,2,11,12],"shift_direction":-1,"question_num":111,"has_decoy":false},{"rt":1507,"stimulus":"[A] option 1, [L] option 2, [G] neither","key_press":65,"name":"choice","trial_type":"html-keyboard-response","trial_index":142,"time_elapsed":573956,"internal_node_id":"0.0-142.0","subject":"S1C1654","sona":"41739","block":3,"time":"2021-09-22T16:23:17.872Z","response":"1st","certainty":"high","char":"A","transposition":-1,"order":["shifted","swapped"],"probe_pitches":[10,12,11,7,3,2,1,0,4,12,2,1,4,7,2,12],"shifted_pitches":[10,12,11,7,3,2,1,0,5,12,2,1,4,7,2,12],"swapped_pitches":[10,12,11,7,3,2,1,4,0,12,2,1,4,7,2,12],"shift_direction":1,"question_num":121,"has_decoy":false},{"rt":768.6000000014901,"stimulus":"[A] option 1, [L] option 2, [G] neither","key_press":65,"name":"choice","trial_type":"html-keyboard-response","trial_index":153,"time_elapsed":700930,"internal_node_id":"0.0-153.0","subject":"S1C1654","sona":"41739","block":3,"time":"2021-09-22T16:23:17.872Z","response":"1st","certainty":"high","char":"A","transposition":0,"order":["shifted","swapped"],"probe_pitches":[-2,3,0,8,5,0,5,-2,0,5,10,5,-2,8,3,8],"shifted_pitches":[-2,3,0,8,5,0,5,-2,-1,5,10,5,-2,8,3,8],"swapped_pitches":[-2,3,0,8,5,0,5,0,-2,5,10,5,-2,8,3,8],"shift_direction":-1,"question_num":131,"has_decoy":false},{"rt":1502.5,"stimulus":"[A] option 1, [L] option 2, [G] neither","key_press":65,"name":"choice","trial_type":"html-keyboard-response","trial_index":164,"time_elapsed":731364,"internal_node_id":"0.0-164.0","subject":"S1C1654","sona":"41739","block":3,"time":"2021-09-22T16:23:17.872Z","response":"1st","certainty":"high","char":"A","transposition":-3,"order":["swapped","shifted"],"probe_pitches":[0,5,10,3,10,2,7,10,0,12,10,11,5,6,10,7],"shifted_pitches":[0,5,10,3,10,2,7,9,0,12,10,11,5,6,10,7],"swapped_pitches":[0,5,10,3,10,2,7,0,10,12,10,11,5,6,10,7],"shift_direction":-1,"question_num":141,"has_decoy":false},{"rt":296.59999999403954,"stimulus":"[A] option 1, [L] option 2, [G] neither","key_press":76,"name":"choice","trial_type":"html-keyboard-response","trial_index":175,"time_elapsed":754258,"internal_node_id":"0.0-175.0","subject":"S1C1654","sona":"41739","block":3,"time":"2021-09-22T16:23:17.872Z","response":"2nd","certainty":"high","char":"L","transposition":-1,"order":["swapped","shifted"],"probe_pitches":[3,1,8,1,8,3,-2,10,8,6,1,10,6,-2,6,1],"shifted_pitches":[3,1,8,1,8,3,-2,10,9,6,1,10,6,-2,6,1],"swapped_pitches":[3,1,8,1,8,3,-2,8,10,6,1,10,6,-2,6,1],"shift_direction":1,"question_num":151,"has_decoy":false},{"rt":1025.7999999970198,"stimulus":"[A] option 1, [L] option 2, [G] neither","key_press":71,"name":"choice","trial_type":"html-keyboard-response","trial_index":186,"time_elapsed":777327,"internal_node_id":"0.0-186.0","subject":"S1C1654","sona":"41739","block":3,"time":"2021-09-22T16:23:17.872Z","response":"neither","certainty":"high","char":"G","transposition":2,"order":["shifted","swapped"],"probe_pitches":[9,5,3,9,2,11,3,9,8,1,4,8,11,0,9,5],"shifted_pitches":[9,5,3,9,2,11,3,9,7,1,4,8,11,0,9,5],"swapped_pitches":[9,5,3,9,2,11,3,8,9,1,4,8,11,0,9,5],"shift_direction":-1,"question_num":161,"has_decoy":false},{"rt":1316.5,"stimulus":"[A] option 1, [L] option 2, [G] neither","key_press":71,"name":"choice","trial_type":"html-keyboard-response","trial_index":197,"time_elapsed":800898,"internal_node_id":"0.0-197.0","subject":"S1C1654","sona":"41739","block":3,"time":"2021-09-22T16:23:17.872Z","response":"neither","certainty":"high","char":"G","transposition":1,"order":["shifted","swapped"],"probe_pitches":[5,0,7,3,5,10,0,7,5,3,10,0,-2,3,-2,0],"shifted_pitches":[5,0,7,3,5,10,0,8,5,3,10,0,-2,3,-2,0],"swapped_pitches":[5,0,7,3,5,10,0,5,7,3,10,0,-2,3,-2,0],"shift_direction":1,"question_num":171,"has_decoy":false},{"rt":345.8999999985099,"stimulus":"[A] option 1, [L] option 2, [G] neither","key_press":76,"name":"choice","trial_type":"html-keyboard-response","trial_index":208,"time_elapsed":823548,"internal_node_id":"0.0-208.0","subject":"S1C1654","sona":"41739","block":3,"time":"2021-09-22T16:23:17.872Z","response":"2nd","certainty":"high","char":"L","transposition":-2,"order":["swapped","shifted"],"probe_pitches":[1,3,1,5,1,-2,8,1,-2,5,1,8,5,-2,3,-2],"shifted_pitches":[1,3,1,5,1,-2,8,0,-2,5,1,8,5,-2,3,-2],"swapped_pitches":[1,3,1,5,1,-2,8,-2,1,5,1,8,5,-2,3,-2],"shift_direction":-1,"question_num":181,"has_decoy":false},{"rt":685.2999999970198,"stimulus":"[A] option 1, [L] option 2, [G] neither","key_press":65,"name":"choice","trial_type":"html-keyboard-response","trial_index":219,"time_elapsed":846547,"internal_node_id":"0.0-219.0","subject":"S1C1654","sona":"41739","block":3,"time":"2021-09-22T16:23:17.872Z","response":"1st","certainty":"high","char":"A","transposition":-2,"order":["shifted","swapped"],"probe_pitches":[10,5,0,2,5,-2,7,0,-2,2,5,10,5,7,0,-2],"shifted_pitches":[10,5,0,2,5,-2,7,0,-1,2,5,10,5,7,0,-2],"swapped_pitches":[10,5,0,2,5,-2,7,-2,0,2,5,10,5,7,0,-2],"shift_direction":1,"question_num":191,"has_decoy":false}]