[{"rt":388.70000000298023,"stimulus":"[A] option 1, [L] option 2, [G] neither","key_press":76,"name":"choice","trial_type":"html-keyboard-response","trial_index":10,"time_elapsed":25770,"internal_node_id":"0.0-10.0","subject":"S1C1654","sona":"41739","block":2,"time":"2021-09-22T16:09:07.261Z","response":"2nd","certainty":"high","char":"L","transposition":-1,"order":["swapped","shifted"],"probe_pitches":[5,3,7,12,7,3,10,15,12,7,3,15,3,15,12,15],"shifted_pitches":[5,3,7,12,7,3,10,14,12,7,3,15,3,15,12,15],"swapped_pitches":[5,3,7,12,7,3,10,12,15,7,3,15,3,15,12,15],"shift_direction":-1,"question_num":1,"has_decoy":false},{"rt":1271.3999999985099,"stimulus":"[A] option 1, [L] option 2, [G] neither","key_press":76,"name":"choice","trial_type":"html-keyboard-response","trial_index":21,"time_elapsed":49963,"internal_node_id":"0.0-21.0","subject":"S1C1654","sona":"41739","block":2,"time":"2021-09-22T16:09:07.261Z","response":"2nd","certainty":"high","char":"L","transposition":-1,"order":["shifted","swapped"],"probe_pitches":[3,1,2,7,6,7,4,9,13,5,13,1,3,1,4,11],"shifted_pitches":[3,1,2,7,6,7,4,9,12,5,13,1,3,1,4,11],"swapped_pitches":[3,1,2,7,6,7,4,13,9,5,13,1,3,1,4,11],"shift_direction":-1,"question_num":11,"has_decoy":false},{"rt":773.6000000014901,"stimulus":"[A] option 1, [L] option 2, [G] neither","key_press":65,"name":"choice","trial_type":"html-keyboard-response","trial_index":32,"time_elapsed":74595,"internal_node_id":"0.0-32.0","subject":"S1C1654","sona":"41739","block":2,"time":"2021-09-22T16:09:07.261Z","response":"1st","certainty":"high","char":"A","transposition":0,"order":["shifted","swapped"],"probe_pitches":[5,10,7,10,7,5,12,15,10,12,15,7,10,15,12,3],"shifted_pitches":[5,10,7,10,7,5,12,14,10,12,15,7,10,15,12,3],"swapped_pitches":[5,10,7,10,7,5,12,10,15,12,15,7,10,15,12,3],"shift_direction":-1,"question_num":21,"has_decoy":false},{"rt":411.8999999985099,"stimulus":"[A] option 1, [L] option 2, [G] neither","key_press":76,"name":"choice","trial_type":"html-keyboard-response","trial_index":43,"time_elapsed":97444,"internal_node_id":"0.0-43.0","subject":"S1C1654","sona":"41739","block":2,"time":"2021-09-22T16:09:07.261Z","response":"2nd","certainty":"high","char":"L","transposition":-3,"order":["swapped","shifted"],"probe_pitches":[10,13,10,13,8,3,8,5,15,8,5,15,5,8,10,8],"shifted_pitches":[10,13,10,13,8,3,8,5,16,8,5,15,5,8,10,8],"swapped_pitches":[10,13,10,13,8,3,8,15,5,8,5,15,5,8,10,8],"shift_direction":1,"question_num":31,"has_decoy":false},{"rt":1484.5,"stimulus":"[A] option 1, [L] option 2, [G] neither","key_press":71,"name":"choice","trial_type":"html-keyboard-response","trial_index":54,"time_elapsed":121466,"internal_node_id":"0.0-54.0","subject":"S1C1654","sona":"41739","block":2,"time":"2021-09-22T16:09:07.261Z","response":"neither","certainty":"high","char":"G","transposition":0,"order":["shifted","swapped"],"probe_pitches":[3,6,12,4,13,12,10,1,7,3,6,12,5,4,5,12],"shifted_pitches":[3,6,12,4,13,12,10,1,8,3,6,12,5,4,5,12],"swapped_pitches":[3,6,12,4,13,12,10,7,1,3,6,12,5,4,5,12],"shift_direction":1,"question_num":41,"has_decoy":false},{"rt":468.8999999985099,"stimulus":"[A] option 1, [L] option 2, [G] neither","key_press":76,"name":"choice","trial_type":"html-keyboard-response","trial_index":65,"time_elapsed":144222,"internal_node_id":"0.0-65.0","subject":"S1C1654","sona":"41739","block":2,"time":"2021-09-22T16:09:07.261Z","response":"2nd","certainty":"high","char":"L","transposition":-2,"order":["swapped","shifted"],"probe_pitches":[3,4,10,11,7,3,5,10,7,5,13,11,3,7,2,11],"shifted_pitches":[3,4,10,11,7,3,5,9,7,5,13,11,3,7,2,11],"swapped_pitches":[3,4,10,11,7,3,5,7,10,5,13,11,3,7,2,11],"shift_direction":-1,"question_num":51,"has_decoy":false},{"rt":959.1000000014901,"stimulus":"[A] option 1, [L] option 2, [G] neither","key_press":65,"name":"choice","trial_type":"html-keyboard-response","trial_index":76,"time_elapsed":168301,"internal_node_id":"0.0-76.0","subject":"S1C1654","sona":"41739","block":2,"time":"2021-09-22T16:09:07.261Z","response":"1st","certainty":"high","char":"A","transposition":2,"order":["swapped","shifted"],"probe_pitches":[11,8,3,1,8,4,5,9,11,4,8,1,7,5,8,2],"shifted_pitches":[11,8,3,1,8,4,5,9,10,4,8,1,7,5,8,2],"swapped_pitches":[11,8,3,1,8,4,5,11,9,4,8,1,7,5,8,2],"shift_direction":-1,"question_num":61,"has_decoy":false},{"rt":368.1000000014901,"stimulus":"[A] option 1, [L] option 2, [G] neither","key_press":76,"name":"choice","trial_type":"html-keyboard-response","trial_index":87,"time_elapsed":191050,"internal_node_id":"0.0-87.0","subject":"S1C1654","sona":"41739","block":2,"time":"2021-09-22T16:09:07.261Z","response":"2nd","certainty":"high","char":"L","transposition":-2,"order":["swapped","shifted"],"probe_pitches":[3,5,10,3,10,3,12,10,8,12,5,12,10,5,10,8],"shifted_pitches":[3,5,10,3,10,3,12,11,8,12,5,12,10,5,10,8],"swapped_pitches":[3,5,10,3,10,3,12,8,10,12,5,12,10,5,10,8],"shift_direction":1,"question_num":71,"has_decoy":false},{"rt":940.8000000044703,"stimulus":"[A] option 1, [L] option 2, [G] neither","key_press":65,"name":"choice","trial_type":"html-keyboard-response","trial_index":98,"time_elapsed":215792,"internal_node_id":"0.0-98.0","subject":"S1C1654","sona":"41739","block":2,"time":"2021-09-22T16:09:07.261Z","response":"1st","certainty":"high","char":"A","transposition":-3,"order":["shifted","swapped"],"probe_pitches":[8,3,5,12,5,10,15,3,12,10,3,8,10,15,8,3],"shifted_pitches":[8,3,5,12,5,10,15,4,12,10,3,8,10,15,8,3],"swapped_pitches":[8,3,5,12,5,10,15,12,3,10,3,8,10,15,8,3],"shift_direction":1,"question_num":81,"has_decoy":false},{"rt":763.1000000014901,"stimulus":"[A] option 1, [L] option 2, [G] neither","key_press":76,"name":"choice","trial_type":"html-keyboard-response","trial_index":109,"time_elapsed":239285,"internal_node_id":"0.0-109.0","subject":"S1C1654","sona":"41739","block":2,"time":"2021-09-22T16:09:07.261Z","response":"2nd","certainty":"high","char":"L","transposition":-3,"order":["swapped","shifted"],"probe_pitches":[3,1,3,8,7,4,3,4,6,9,2,6,11,8,9,8],"shifted_pitches":[3,1,3,8,7,4,3,4,5,9,2,6,11,8,9,8],"swapped_pitches":[3,1,3,8,7,4,3,6,4,9,2,6,11,8,9,8],"shift_direction":-1,"question_num":91,"has_decoy":false},{"rt":1195.6000000014901,"stimulus":"[A] option 1, [L] option 2, [G] neither","key_press":76,"name":"choice","trial_type":"html-keyboard-response","trial_index":120,"time_elapsed":279637,"internal_node_id":"0.0-120.0","subject":"S1C1654","sona":"41739","block":2,"time":"2021-09-22T16:09:07.261Z","response":"2nd","certainty":"high","char":"L","transposition":-2,"order":["swapped","shifted"],"probe_pitches":[6,9,10,9,5,6,10,6,5,11,2,10,8,9,11,1],"shifted_pitches":[6,9,10,9,5,6,10,7,5,11,2,10,8,9,11,1],"swapped_pitches":[6,9,10,9,5,6,10,5,6,11,2,10,8,9,11,1],"shift_direction":1,"question_num":101,"has_decoy":false},{"rt":1724,"stimulus":"[A] option 1, [L] option 2, [G] neither","key_press":65,"name":"choice","trial_type":"html-keyboard-response","trial_index":131,"time_elapsed":304816,"internal_node_id":"0.0-131.0","subject":"S1C1654","sona":"41739","block":2,"time":"2021-09-22T16:09:07.261Z","response":"1st","certainty":"high","char":"A","transposition":3,"order":["shifted","swapped"],"probe_pitches":[11,13,11,8,9,8,12,7,5,3,1,11,8,11,5,9],"shifted_pitches":[11,13,11,8,9,8,12,6,5,3,1,11,8,11,5,9],"swapped_pitches":[11,13,11,8,9,8,12,5,7,3,1,11,8,11,5,9],"shift_direction":-1,"question_num":111,"has_decoy":false},{"rt":822.2000000029802,"stimulus":"[A] option 1, [L] option 2, [G] neither","key_press":65,"name":"choice","trial_type":"html-keyboard-response","trial_index":142,"time_elapsed":327924,"internal_node_id":"0.0-142.0","subject":"S1C1654","sona":"41739","block":2,"time":"2021-09-22T16:09:07.261Z","response":"1st","certainty":"high","char":"A","transposition":2,"order":["shifted","swapped"],"probe_pitches":[10,13,8,6,8,10,6,3,13,10,13,6,13,6,3,10],"shifted_pitches":[10,13,8,6,8,10,6,3,12,10,13,6,13,6,3,10],"swapped_pitches":[10,13,8,6,8,10,6,13,3,10,13,6,13,6,3,10],"shift_direction":-1,"question_num":121,"has_decoy":false},{"rt":926.1999999955297,"stimulus":"[A] option 1, [L] option 2, [G] neither","key_press":65,"name":"choice","trial_type":"html-keyboard-response","trial_index":153,"time_elapsed":351208,"internal_node_id":"0.0-153.0","subject":"S1C1654","sona":"41739","block":2,"time":"2021-09-22T16:09:07.261Z","response":"1st","certainty":"high","char":"A","transposition":-1,"order":["shifted","swapped"],"probe_pitches":[15,10,3,6,8,13,8,3,13,8,6,10,13,3,8,13],"shifted_pitches":[15,10,3,6,8,13,8,3,12,8,6,10,13,3,8,13],"swapped_pitches":[15,10,3,6,8,13,8,13,3,8,6,10,13,3,8,13],"shift_direction":-1,"question_num":131,"has_decoy":false},{"rt":487.1000000014901,"stimulus":"[A] option 1, [L] option 2, [G] neither","key_press":76,"name":"choice","trial_type":"html-keyboard-response","trial_index":164,"time_elapsed":379128,"internal_node_id":"0.0-164.0","subject":"S1C1654","sona":"41739","block":2,"time":"2021-09-22T16:09:07.261Z","response":"2nd","certainty":"high","char":"L","transposition":-3,"order":["swapped","shifted"],"probe_pitches":[12,7,13,8,2,11,8,10,3,1,7,9,6,10,9,12],"shifted_pitches":[12,7,13,8,2,11,8,10,4,1,7,9,6,10,9,12],"swapped_pitches":[12,7,13,8,2,11,8,3,10,1,7,9,6,10,9,12],"shift_direction":1,"question_num":141,"has_decoy":false},{"rt":1907.7000000029802,"stimulus":"[A] option 1, [L] option 2, [G] neither","key_press":71,"name":"choice","trial_type":"html-keyboard-response","trial_index":175,"time_elapsed":403379,"internal_node_id":"0.0-175.0","subject":"S1C1654","sona":"41739","block":2,"time":"2021-09-22T16:09:07.261Z","response":"neither","certainty":"high","char":"G","transposition":1,"order":["shifted","swapped"],"probe_pitches":[1,2,1,5,1,5,13,2,8,5,1,8,10,5,9,13],"shifted_pitches":[1,2,1,5,1,5,13,3,8,5,1,8,10,5,9,13],"swapped_pitches":[1,2,1,5,1,5,13,8,2,5,1,8,10,5,9,13],"shift_direction":1,"question_num":151,"has_decoy":false},{"rt":678.2000000029802,"stimulus":"[A] option 1, [L] option 2, [G] neither","key_press":65,"name":"choice","trial_type":"html-keyboard-response","trial_index":186,"time_elapsed":426690,"internal_node_id":"0.0-186.0","subject":"S1C1654","sona":"41739","block":2,"time":"2021-09-22T16:09:07.261Z","response":"1st","certainty":"high","char":"A","transposition":1,"order":["shifted","swapped"],"probe_pitches":[3,6,8,11,8,11,8,3,6,8,13,6,15,6,11,8],"shifted_pitches":[3,6,8,11,8,11,8,3,7,8,13,6,15,6,11,8],"swapped_pitches":[3,6,8,11,8,11,8,6,3,8,13,6,15,6,11,8],"shift_direction":1,"question_num":161,"has_decoy":false},{"rt":794.5,"stimulus":"[A] option 1, [L] option 2, [G] neither","key_press":76,"name":"choice","trial_type":"html-keyboard-response","trial_index":197,"time_elapsed":450007,"internal_node_id":"0.0-197.0","subject":"S1C1654","sona":"41739","block":2,"time":"2021-09-22T16:09:07.261Z","response":"2nd","certainty":"high","char":"L","transposition":3,"order":["swapped","shifted"],"probe_pitches":[5,8,15,8,3,5,13,8,10,13,3,10,5,15,3,5],"shifted_pitches":[5,8,15,8,3,5,13,8,11,13,3,10,5,15,3,5],"swapped_pitches":[5,8,15,8,3,5,13,10,8,13,3,10,5,15,3,5],"shift_direction":1,"question_num":171,"has_decoy":false},{"rt":1489.1999999955297,"stimulus":"[A] option 1, [L] option 2, [G] neither","key_press":65,"name":"choice","trial_type":"html-keyboard-response","trial_index":208,"time_elapsed":473651,"internal_node_id":"0.0-208.0","subject":"S1C1654","sona":"41739","block":2,"time":"2021-09-22T16:09:07.261Z","response":"1st","certainty":"high","char":"A","transposition":-2,"order":["swapped","shifted"],"probe_pitches":[11,6,8,15,6,11,13,11,15,3,6,13,15,13,11,6],"shifted_pitches":[11,6,8,15,6,11,13,10,15,3,6,13,15,13,11,6],"swapped_pitches":[11,6,8,15,6,11,13,15,11,3,6,13,15,13,11,6],"shift_direction":-1,"question_num":181,"has_decoy":false},{"rt":689.5,"stimulus":"[A] option 1, [L] option 2, [G] neither","key_press":65,"name":"choice","trial_type":"html-keyboard-response","trial_index":219,"time_elapsed":497891,"internal_node_id":"0.0-219.0","subject":"S1C1654","sona":"41739","block":2,"time":"2021-09-22T16:09:07.261Z","response":"1st","certainty":"high","char":"A","transposition":-1,"order":["shifted","swapped"],"probe_pitches":[7,1,2,6,9,5,6,10,12,13,7,4,13,4,1,5],"shifted_pitches":[7,1,2,6,9,5,6,11,12,13,7,4,13,4,1,5],"swapped_pitches":[7,1,2,6,9,5,6,12,10,13,7,4,13,4,1,5],"shift_direction":1,"question_num":191,"has_decoy":false}]