[{"rt":797.5,"stimulus":"[A] option 1, [L] option 2, [G] neither","key_press":76,"name":"choice","trial_type":"html-keyboard-response","trial_index":10,"time_elapsed":22813,"internal_node_id":"0.0-10.0","subject":"S1C1654","sona":"41739","block":6,"time":"2021-09-22T16:47:54.715Z","response":"2nd","certainty":"high","char":"L","transposition":0,"order":["swapped","shifted"],"probe_pitches":[2,4,11,7,2,7,9,11,2,9,2,11,2,7,4,11],"shifted_pitches":[2,4,11,7,2,7,9,11,3,9,2,11,2,7,4,11],"swapped_pitches":[2,4,11,7,2,7,9,2,11,9,2,11,2,7,4,11],"shift_direction":1,"question_num":1,"has_decoy":false},{"rt":413.09999999403954,"stimulus":"[A] option 1, [L] option 2, [G] neither","key_press":76,"name":"choice","trial_type":"html-keyboard-response","trial_index":21,"time_elapsed":45278,"internal_node_id":"0.0-21.0","subject":"S1C1654","sona":"41739","block":6,"time":"2021-09-22T16:47:54.715Z","response":"2nd","certainty":"high","char":"L","transposition":3,"order":["swapped","shifted"],"probe_pitches":[13,7,10,13,11,8,6,4,12,6,7,13,11,3,9,7],"shifted_pitches":[13,7,10,13,11,8,6,5,12,6,7,13,11,3,9,7],"swapped_pitches":[13,7,10,13,11,8,6,12,4,6,7,13,11,3,9,7],"shift_direction":1,"question_num":11,"has_decoy":false},{"rt":1979.1000000014901,"stimulus":"[A] option 1, [L] option 2, [G] neither","key_press":65,"name":"choice","trial_type":"html-keyboard-response","trial_index":32,"time_elapsed":69344,"internal_node_id":"0.0-32.0","subject":"S1C1654","sona":"41739","block":6,"time":"2021-09-22T16:47:54.715Z","response":"1st","certainty":"high","char":"A","transposition":3,"order":["shifted","swapped"],"probe_pitches":[1,6,8,3,-1,1,6,1,3,6,-1,8,3,-1,3,8],"shifted_pitches":[1,6,8,3,-1,1,6,0,3,6,-1,8,3,-1,3,8],"swapped_pitches":[1,6,8,3,-1,1,6,3,1,6,-1,8,3,-1,3,8],"shift_direction":-1,"question_num":21,"has_decoy":false},{"rt":436.6000000014901,"stimulus":"[A] option 1, [L] option 2, [G] neither","key_press":76,"name":"choice","trial_type":"html-keyboard-response","trial_index":43,"time_elapsed":92471,"internal_node_id":"0.0-43.0","subject":"S1C1654","sona":"41739","block":6,"time":"2021-09-22T16:47:54.715Z","response":"2nd","certainty":"high","char":"L","transposition":2,"order":["swapped","shifted"],"probe_pitches":[6,4,1,-1,4,9,6,11,-1,9,4,1,-1,1,4,1],"shifted_pitches":[6,4,1,-1,4,9,6,11,0,9,4,1,-1,1,4,1],"swapped_pitches":[6,4,1,-1,4,9,6,-1,11,9,4,1,-1,1,4,1],"shift_direction":1,"question_num":31,"has_decoy":false},{"rt":3531.2999999970198,"stimulus":"[A] option 1, [L] option 2, [G] neither","key_press":65,"name":"choice","trial_type":"html-keyboard-response","trial_index":54,"time_elapsed":118191,"internal_node_id":"0.0-54.0","subject":"S1C1654","sona":"41739","block":6,"time":"2021-09-22T16:47:54.715Z","response":"1st","certainty":"high","char":"A","transposition":0,"order":["swapped","shifted"],"probe_pitches":[8,11,14,13,7,6,8,4,11,6,14,9,7,9,8,15],"shifted_pitches":[8,11,14,13,7,6,8,4,10,6,14,9,7,9,8,15],"swapped_pitches":[8,11,14,13,7,6,8,11,4,6,14,9,7,9,8,15],"shift_direction":-1,"question_num":41,"has_decoy":false},{"rt":1195.1000000014901,"stimulus":"[A] option 1, [L] option 2, [G] neither","key_press":76,"name":"choice","trial_type":"html-keyboard-response","trial_index":65,"time_elapsed":142025,"internal_node_id":"0.0-65.0","subject":"S1C1654","sona":"41739","block":6,"time":"2021-09-22T16:47:54.715Z","response":"2nd","certainty":"high","char":"L","transposition":-1,"order":["swapped","shifted"],"probe_pitches":[6,4,6,7,12,9,4,15,5,9,10,8,3,5,9,12],"shifted_pitches":[6,4,6,7,12,9,4,14,5,9,10,8,3,5,9,12],"swapped_pitches":[6,4,6,7,12,9,4,5,15,9,10,8,3,5,9,12],"shift_direction":-1,"question_num":51,"has_decoy":false},{"rt":370.3999999985099,"stimulus":"[A] option 1, [L] option 2, [G] neither","key_press":65,"name":"choice","trial_type":"html-keyboard-response","trial_index":76,"time_elapsed":164561,"internal_node_id":"0.0-76.0","subject":"S1C1654","sona":"41739","block":6,"time":"2021-09-22T16:47:54.715Z","response":"1st","certainty":"high","char":"A","transposition":-2,"order":["shifted","swapped"],"probe_pitches":[-1,2,9,6,11,4,2,-1,9,4,6,4,2,4,9,2],"shifted_pitches":[-1,2,9,6,11,4,2,-1,8,4,6,4,2,4,9,2],"swapped_pitches":[-1,2,9,6,11,4,2,9,-1,4,6,4,2,4,9,2],"shift_direction":-1,"question_num":61,"has_decoy":false},{"rt":821.3999999985099,"stimulus":"[A] option 1, [L] option 2, [G] neither","key_press":71,"name":"choice","trial_type":"html-keyboard-response","trial_index":87,"time_elapsed":187671,"internal_node_id":"0.0-87.0","subject":"S1C1654","sona":"41739","block":6,"time":"2021-09-22T16:47:54.715Z","response":"neither","certainty":"high","char":"G","transposition":-1,"order":["shifted","swapped"],"probe_pitches":[7,2,4,11,2,9,-1,7,9,11,-1,11,-1,7,-1,4],"shifted_pitches":[7,2,4,11,2,9,-1,6,9,11,-1,11,-1,7,-1,4],"swapped_pitches":[7,2,4,11,2,9,-1,9,7,11,-1,11,-1,7,-1,4],"shift_direction":-1,"question_num":71,"has_decoy":false},{"rt":245.59999999403954,"stimulus":"[A] option 1, [L] option 2, [G] neither","key_press":76,"name":"choice","trial_type":"html-keyboard-response","trial_index":98,"time_elapsed":210166,"internal_node_id":"0.0-98.0","subject":"S1C1654","sona":"41739","block":6,"time":"2021-09-22T16:47:54.715Z","response":"2nd","certainty":"high","char":"L","transposition":1,"order":["shifted","swapped"],"probe_pitches":[5,8,11,4,5,8,5,8,7,11,15,3,9,7,15,13],"shifted_pitches":[5,8,11,4,5,8,5,8,6,11,15,3,9,7,15,13],"swapped_pitches":[5,8,11,4,5,8,5,7,8,11,15,3,9,7,15,13],"shift_direction":-1,"question_num":81,"has_decoy":false},{"rt":866,"stimulus":"[A] option 1, [L] option 2, [G] neither","key_press":65,"name":"choice","trial_type":"html-keyboard-response","trial_index":109,"time_elapsed":233196,"internal_node_id":"0.0-109.0","subject":"S1C1654","sona":"41739","block":6,"time":"2021-09-22T16:47:54.715Z","response":"1st","certainty":"high","char":"A","transposition":-3,"order":["shifted","swapped"],"probe_pitches":[11,6,11,4,-1,4,9,-1,6,9,4,11,1,4,-1,6],"shifted_pitches":[11,6,11,4,-1,4,9,-2,6,9,4,11,1,4,-1,6],"swapped_pitches":[11,6,11,4,-1,4,9,6,-1,9,4,11,1,4,-1,6],"shift_direction":-1,"question_num":91,"has_decoy":false},{"rt":1274.5999999940395,"stimulus":"[A] option 1, [L] option 2, [G] neither","key_press":76,"name":"choice","trial_type":"html-keyboard-response","trial_index":120,"time_elapsed":257075,"internal_node_id":"0.0-120.0","subject":"S1C1654","sona":"41739","block":6,"time":"2021-09-22T16:47:54.715Z","response":"2nd","certainty":"high","char":"L","transposition":-1,"order":["swapped","shifted"],"probe_pitches":[4,6,4,6,4,6,8,1,6,-1,4,-1,1,-1,8,1],"shifted_pitches":[4,6,4,6,4,6,8,2,6,-1,4,-1,1,-1,8,1],"swapped_pitches":[4,6,4,6,4,6,8,6,1,-1,4,-1,1,-1,8,1],"shift_direction":1,"question_num":101,"has_decoy":false},{"rt":742.2999999970198,"stimulus":"[A] option 1, [L] option 2, [G] neither","key_press":76,"name":"choice","trial_type":"html-keyboard-response","trial_index":131,"time_elapsed":280002,"internal_node_id":"0.0-131.0","subject":"S1C1654","sona":"41739","block":6,"time":"2021-09-22T16:47:54.715Z","response":"2nd","certainty":"high","char":"L","transposition":-1,"order":["shifted","swapped"],"probe_pitches":[14,12,13,5,4,7,14,7,3,10,11,3,15,13,5,6],"shifted_pitches":[14,12,13,5,4,7,14,8,3,10,11,3,15,13,5,6],"swapped_pitches":[14,12,13,5,4,7,14,3,7,10,11,3,15,13,5,6],"shift_direction":1,"question_num":111,"has_decoy":false},{"rt":363.8999999985099,"stimulus":"[A] option 1, [L] option 2, [G] neither","key_press":76,"name":"choice","trial_type":"html-keyboard-response","trial_index":142,"time_elapsed":302463,"internal_node_id":"0.0-142.0","subject":"S1C1654","sona":"41739","block":6,"time":"2021-09-22T16:47:54.715Z","response":"2nd","certainty":"high","char":"L","transposition":1,"order":["swapped","shifted"],"probe_pitches":[8,6,11,3,11,1,8,3,-1,11,-1,11,8,6,8,3],"shifted_pitches":[8,6,11,3,11,1,8,3,0,11,-1,11,8,6,8,3],"swapped_pitches":[8,6,11,3,11,1,8,-1,3,11,-1,11,8,6,8,3],"shift_direction":1,"question_num":121,"has_decoy":false},{"rt":69.10000000149012,"stimulus":"[A] option 1, [L] option 2, [G] neither","key_press":76,"name":"choice","trial_type":"html-keyboard-response","trial_index":153,"time_elapsed":324649,"internal_node_id":"0.0-153.0","subject":"S1C1654","sona":"41739","block":6,"time":"2021-09-22T16:47:54.715Z","response":"2nd","certainty":"high","char":"L","transposition":-3,"order":["swapped","shifted"],"probe_pitches":[1,4,8,1,-1,8,11,6,8,11,6,-1,6,11,1,-1],"shifted_pitches":[1,4,8,1,-1,8,11,6,9,11,6,-1,6,11,1,-1],"swapped_pitches":[1,4,8,1,-1,8,11,8,6,11,6,-1,6,11,1,-1],"shift_direction":1,"question_num":131,"has_decoy":false},{"rt":1192.6000000014901,"stimulus":"[A] option 1, [L] option 2, [G] neither","key_press":65,"name":"choice","trial_type":"html-keyboard-response","trial_index":164,"time_elapsed":348112,"internal_node_id":"0.0-164.0","subject":"S1C1654","sona":"41739","block":6,"time":"2021-09-22T16:47:54.715Z","response":"1st","certainty":"high","char":"A","transposition":-2,"order":["shifted","swapped"],"probe_pitches":[4,-1,4,2,11,4,11,9,2,6,9,4,2,11,9,11],"shifted_pitches":[4,-1,4,2,11,4,11,8,2,6,9,4,2,11,9,11],"swapped_pitches":[4,-1,4,2,11,4,11,2,9,6,9,4,2,11,9,11],"shift_direction":-1,"question_num":141,"has_decoy":false},{"rt":100.10000000149012,"stimulus":"[A] option 1, [L] option 2, [G] neither","key_press":76,"name":"choice","trial_type":"html-keyboard-response","trial_index":175,"time_elapsed":370350,"internal_node_id":"0.0-175.0","subject":"S1C1654","sona":"41739","block":6,"time":"2021-09-22T16:47:54.715Z","response":"2nd","certainty":"high","char":"L","transposition":-2,"order":["shifted","swapped"],"probe_pitches":[4,3,6,10,12,9,14,13,12,6,13,6,12,4,10,5],"shifted_pitches":[4,3,6,10,12,9,14,13,11,6,13,6,12,4,10,5],"swapped_pitches":[4,3,6,10,12,9,14,12,13,6,13,6,12,4,10,5],"shift_direction":-1,"question_num":151,"has_decoy":false},{"rt":1959.7000000029802,"stimulus":"[A] option 1, [L] option 2, [G] neither","key_press":71,"name":"choice","trial_type":"html-keyboard-response","trial_index":186,"time_elapsed":394500,"internal_node_id":"0.0-186.0","subject":"S1C1654","sona":"41739","block":6,"time":"2021-09-22T16:47:54.715Z","response":"neither","certainty":"high","char":"G","transposition":-3,"order":["swapped","shifted"],"probe_pitches":[5,3,5,6,12,4,8,12,10,5,14,5,3,10,5,8],"shifted_pitches":[5,3,5,6,12,4,8,13,10,5,14,5,3,10,5,8],"swapped_pitches":[5,3,5,6,12,4,8,10,12,5,14,5,3,10,5,8],"shift_direction":1,"question_num":161,"has_decoy":false},{"rt":791.1000000014901,"stimulus":"[A] option 1, [L] option 2, [G] neither","key_press":76,"name":"choice","trial_type":"html-keyboard-response","trial_index":197,"time_elapsed":417482,"internal_node_id":"0.0-197.0","subject":"S1C1654","sona":"41739","block":6,"time":"2021-09-22T16:47:54.715Z","response":"2nd","certainty":"high","char":"L","transposition":2,"order":["swapped","shifted"],"probe_pitches":[3,5,11,9,15,6,4,13,3,10,4,3,10,14,10,5],"shifted_pitches":[3,5,11,9,15,6,4,12,3,10,4,3,10,14,10,5],"swapped_pitches":[3,5,11,9,15,6,4,3,13,10,4,3,10,14,10,5],"shift_direction":-1,"question_num":171,"has_decoy":false},{"rt":1538.8000000044703,"stimulus":"[A] option 1, [L] option 2, [G] neither","key_press":65,"name":"choice","trial_type":"html-keyboard-response","trial_index":208,"time_elapsed":441070,"internal_node_id":"0.0-208.0","subject":"S1C1654","sona":"41739","block":6,"time":"2021-09-22T16:47:54.715Z","response":"1st","certainty":"high","char":"A","transposition":-2,"order":["shifted","swapped"],"probe_pitches":[13,12,8,3,12,13,11,10,6,5,11,12,3,9,14,3],"shifted_pitches":[13,12,8,3,12,13,11,10,7,5,11,12,3,9,14,3],"swapped_pitches":[13,12,8,3,12,13,11,6,10,5,11,12,3,9,14,3],"shift_direction":1,"question_num":181,"has_decoy":false},{"rt":1086.8999999985099,"stimulus":"[A] option 1, [L] option 2, [G] neither","key_press":76,"name":"choice","trial_type":"html-keyboard-response","trial_index":219,"time_elapsed":464208,"internal_node_id":"0.0-219.0","subject":"S1C1654","sona":"41739","block":6,"time":"2021-09-22T16:47:54.715Z","response":"2nd","certainty":"high","char":"L","transposition":-3,"order":["shifted","swapped"],"probe_pitches":[14,10,11,15,8,11,10,5,8,10,13,7,11,4,3,15],"shifted_pitches":[14,10,11,15,8,11,10,5,9,10,13,7,11,4,3,15],"swapped_pitches":[14,10,11,15,8,11,10,8,5,10,13,7,11,4,3,15],"shift_direction":1,"question_num":191,"has_decoy":false}]