[{"rt":1362,"stimulus":"[A] option 1, [L] option 2, [G] neither","key_press":71,"name":"choice","trial_type":"html-keyboard-response","trial_index":10,"time_elapsed":24121,"internal_node_id":"0.0-10.0","subject":"S1C1654","sona":"41739","block":4,"time":"2021-09-22T16:31:09.140Z","response":"neither","certainty":"high","char":"G","transposition":-1,"order":["swapped","shifted"],"probe_pitches":[3,6,9,8,14,6,11,2,5,6,3,10,2,9,7,8],"shifted_pitches":[3,6,9,8,14,6,11,1,5,6,3,10,2,9,7,8],"swapped_pitches":[3,6,9,8,14,6,11,5,2,6,3,10,2,9,7,8],"shift_direction":-1,"question_num":1,"has_decoy":false},{"rt":393.6000000014901,"stimulus":"[A] option 1, [L] option 2, [G] neither","key_press":76,"name":"choice","trial_type":"html-keyboard-response","trial_index":21,"time_elapsed":46792,"internal_node_id":"0.0-21.0","subject":"S1C1654","sona":"41739","block":4,"time":"2021-09-22T16:31:09.140Z","response":"2nd","certainty":"high","char":"L","transposition":0,"order":["shifted","swapped"],"probe_pitches":[12,13,11,6,4,2,13,6,11,8,12,7,13,12,8,3],"shifted_pitches":[12,13,11,6,4,2,13,5,11,8,12,7,13,12,8,3],"swapped_pitches":[12,13,11,6,4,2,13,11,6,8,12,7,13,12,8,3],"shift_direction":-1,"question_num":11,"has_decoy":false},{"rt":441.20000000298023,"stimulus":"[A] option 1, [L] option 2, [G] neither","key_press":76,"name":"choice","trial_type":"html-keyboard-response","trial_index":32,"time_elapsed":69480,"internal_node_id":"0.0-32.0","subject":"S1C1654","sona":"41739","block":4,"time":"2021-09-22T16:31:09.140Z","response":"2nd","certainty":"high","char":"L","transposition":-2,"order":["swapped","shifted"],"probe_pitches":[15,10,12,5,8,12,15,5,8,12,5,15,8,3,5,10],"shifted_pitches":[15,10,12,5,8,12,15,6,8,12,5,15,8,3,5,10],"swapped_pitches":[15,10,12,5,8,12,15,8,5,12,5,15,8,3,5,10],"shift_direction":1,"question_num":21,"has_decoy":false},{"rt":395,"stimulus":"[A] option 1, [L] option 2, [G] neither","key_press":76,"name":"choice","trial_type":"html-keyboard-response","trial_index":43,"time_elapsed":92254,"internal_node_id":"0.0-43.0","subject":"S1C1654","sona":"41739","block":4,"time":"2021-09-22T16:31:09.140Z","response":"2nd","certainty":"high","char":"L","transposition":2,"order":["shifted","swapped"],"probe_pitches":[9,3,7,4,9,11,10,5,9,11,8,4,11,12,8,13],"shifted_pitches":[9,3,7,4,9,11,10,6,9,11,8,4,11,12,8,13],"swapped_pitches":[9,3,7,4,9,11,10,9,5,11,8,4,11,12,8,13],"shift_direction":1,"question_num":31,"has_decoy":false},{"rt":584.5999999940395,"stimulus":"[A] option 1, [L] option 2, [G] neither","key_press":65,"name":"choice","trial_type":"html-keyboard-response","trial_index":54,"time_elapsed":115173,"internal_node_id":"0.0-54.0","subject":"S1C1654","sona":"41739","block":4,"time":"2021-09-22T16:31:09.140Z","response":"1st","certainty":"high","char":"A","transposition":-3,"order":["shifted","swapped"],"probe_pitches":[9,11,8,3,11,14,11,13,5,4,5,10,6,9,13,5],"shifted_pitches":[9,11,8,3,11,14,11,12,5,4,5,10,6,9,13,5],"swapped_pitches":[9,11,8,3,11,14,11,5,13,4,5,10,6,9,13,5],"shift_direction":-1,"question_num":41,"has_decoy":false},{"rt":708.6000000014901,"stimulus":"[A] option 1, [L] option 2, [G] neither","key_press":65,"name":"choice","trial_type":"html-keyboard-response","trial_index":65,"time_elapsed":138168,"internal_node_id":"0.0-65.0","subject":"S1C1654","sona":"41739","block":4,"time":"2021-09-22T16:31:09.140Z","response":"1st","certainty":"high","char":"A","transposition":-2,"order":["shifted","swapped"],"probe_pitches":[13,15,11,6,11,13,6,13,15,8,3,11,3,11,8,6],"shifted_pitches":[13,15,11,6,11,13,6,13,14,8,3,11,3,11,8,6],"swapped_pitches":[13,15,11,6,11,13,6,15,13,8,3,11,3,11,8,6],"shift_direction":-1,"question_num":51,"has_decoy":false},{"rt":1167.2999999970198,"stimulus":"[A] option 1, [L] option 2, [G] neither","key_press":76,"name":"choice","trial_type":"html-keyboard-response","trial_index":76,"time_elapsed":161766,"internal_node_id":"0.0-76.0","subject":"S1C1654","sona":"41739","block":4,"time":"2021-09-22T16:31:09.140Z","response":"2nd","certainty":"high","char":"L","transposition":-2,"order":["swapped","shifted"],"probe_pitches":[7,5,6,8,11,10,13,5,8,10,6,4,11,6,4,13],"shifted_pitches":[7,5,6,8,11,10,13,5,9,10,6,4,11,6,4,13],"swapped_pitches":[7,5,6,8,11,10,13,8,5,10,6,4,11,6,4,13],"shift_direction":1,"question_num":61,"has_decoy":false},{"rt":1598,"stimulus":"[A] option 1, [L] option 2, [G] neither","key_press":76,"name":"choice","trial_type":"html-keyboard-response","trial_index":87,"time_elapsed":185417,"internal_node_id":"0.0-87.0","subject":"S1C1654","sona":"41739","block":4,"time":"2021-09-22T16:31:09.140Z","response":"2nd","certainty":"high","char":"L","transposition":-1,"order":["swapped","shifted"],"probe_pitches":[5,8,13,5,10,8,10,8,13,10,13,3,8,10,15,8],"shifted_pitches":[5,8,13,5,10,8,10,8,12,10,13,3,8,10,15,8],"swapped_pitches":[5,8,13,5,10,8,10,13,8,10,13,3,8,10,15,8],"shift_direction":-1,"question_num":71,"has_decoy":false},{"rt":1283.1000000014901,"stimulus":"[A] option 1, [L] option 2, [G] neither","key_press":65,"name":"choice","trial_type":"html-keyboard-response","trial_index":98,"time_elapsed":208792,"internal_node_id":"0.0-98.0","subject":"S1C1654","sona":"41739","block":4,"time":"2021-09-22T16:31:09.140Z","response":"1st","certainty":"high","char":"A","transposition":3,"order":["shifted","swapped"],"probe_pitches":[3,6,10,3,8,6,3,10,6,15,13,15,10,3,13,15],"shifted_pitches":[3,6,10,3,8,6,3,10,5,15,13,15,10,3,13,15],"swapped_pitches":[3,6,10,3,8,6,3,6,10,15,13,15,10,3,13,15],"shift_direction":-1,"question_num":81,"has_decoy":false},{"rt":1859.6000000014901,"stimulus":"[A] option 1, [L] option 2, [G] neither","key_press":71,"name":"choice","trial_type":"html-keyboard-response","trial_index":109,"time_elapsed":233109,"internal_node_id":"0.0-109.0","subject":"S1C1654","sona":"41739","block":4,"time":"2021-09-22T16:31:09.140Z","response":"neither","certainty":"high","char":"G","transposition":1,"order":["shifted","swapped"],"probe_pitches":[2,3,7,9,14,6,4,12,9,6,9,4,14,12,2,10],"shifted_pitches":[2,3,7,9,14,6,4,12,8,6,9,4,14,12,2,10],"swapped_pitches":[2,3,7,9,14,6,4,9,12,6,9,4,14,12,2,10],"shift_direction":-1,"question_num":91,"has_decoy":false},{"rt":514.3000000044703,"stimulus":"[A] option 1, [L] option 2, [G] neither","key_press":76,"name":"choice","trial_type":"html-keyboard-response","trial_index":120,"time_elapsed":256324,"internal_node_id":"0.0-120.0","subject":"S1C1654","sona":"41739","block":4,"time":"2021-09-22T16:31:09.140Z","response":"2nd","certainty":"high","char":"L","transposition":0,"order":["swapped","shifted"],"probe_pitches":[8,3,6,11,3,11,3,13,8,3,13,3,15,6,13,6],"shifted_pitches":[8,3,6,11,3,11,3,12,8,3,13,3,15,6,13,6],"swapped_pitches":[8,3,6,11,3,11,3,8,13,3,13,3,15,6,13,6],"shift_direction":-1,"question_num":101,"has_decoy":false},{"rt":485.8999999985099,"stimulus":"[A] option 1, [L] option 2, [G] neither","key_press":65,"name":"choice","trial_type":"html-keyboard-response","trial_index":131,"time_elapsed":279135,"internal_node_id":"0.0-131.0","subject":"S1C1654","sona":"41739","block":4,"time":"2021-09-22T16:31:09.140Z","response":"1st","certainty":"high","char":"A","transposition":2,"order":["shifted","swapped"],"probe_pitches":[10,6,10,13,6,8,3,8,10,3,6,15,3,13,15,13],"shifted_pitches":[10,6,10,13,6,8,3,9,10,3,6,15,3,13,15,13],"swapped_pitches":[10,6,10,13,6,8,3,10,8,3,6,15,3,13,15,13],"shift_direction":1,"question_num":111,"has_decoy":false},{"rt":1577.5,"stimulus":"[A] option 1, [L] option 2, [G] neither","key_press":76,"name":"choice","trial_type":"html-keyboard-response","trial_index":142,"time_elapsed":305057,"internal_node_id":"0.0-142.0","subject":"S1C1654","sona":"41739","block":4,"time":"2021-09-22T16:31:09.140Z","response":"2nd","certainty":"high","char":"L","transposition":-1,"order":["swapped","shifted"],"probe_pitches":[3,5,7,5,12,10,3,5,7,3,7,15,12,7,15,12],"shifted_pitches":[3,5,7,5,12,10,3,5,8,3,7,15,12,7,15,12],"swapped_pitches":[3,5,7,5,12,10,3,7,5,3,7,15,12,7,15,12],"shift_direction":1,"question_num":121,"has_decoy":false},{"rt":2701.5,"stimulus":"[A] option 1, [L] option 2, [G] neither","key_press":65,"name":"choice","trial_type":"html-keyboard-response","trial_index":153,"time_elapsed":330130,"internal_node_id":"0.0-153.0","subject":"S1C1654","sona":"41739","block":4,"time":"2021-09-22T16:31:09.140Z","response":"1st","certainty":"high","char":"A","transposition":-1,"order":["swapped","shifted"],"probe_pitches":[6,4,3,2,8,11,8,5,11,14,8,7,11,14,13,6],"shifted_pitches":[6,4,3,2,8,11,8,5,10,14,8,7,11,14,13,6],"swapped_pitches":[6,4,3,2,8,11,8,11,5,14,8,7,11,14,13,6],"shift_direction":-1,"question_num":131,"has_decoy":false},{"rt":494.3999999985099,"stimulus":"[A] option 1, [L] option 2, [G] neither","key_press":65,"name":"choice","trial_type":"html-keyboard-response","trial_index":164,"time_elapsed":353044,"internal_node_id":"0.0-164.0","subject":"S1C1654","sona":"41739","block":4,"time":"2021-09-22T16:31:09.140Z","response":"1st","certainty":"high","char":"A","transposition":-2,"order":["swapped","shifted"],"probe_pitches":[5,6,8,6,7,5,14,13,3,10,11,10,3,8,5,9],"shifted_pitches":[5,6,8,6,7,5,14,13,4,10,11,10,3,8,5,9],"swapped_pitches":[5,6,8,6,7,5,14,3,13,10,11,10,3,8,5,9],"shift_direction":1,"question_num":141,"has_decoy":false},{"rt":1254.3999999985099,"stimulus":"[A] option 1, [L] option 2, [G] neither","key_press":76,"name":"choice","trial_type":"html-keyboard-response","trial_index":175,"time_elapsed":376893,"internal_node_id":"0.0-175.0","subject":"S1C1654","sona":"41739","block":4,"time":"2021-09-22T16:31:09.140Z","response":"2nd","certainty":"high","char":"L","transposition":-3,"order":["shifted","swapped"],"probe_pitches":[12,8,10,5,8,5,12,5,8,12,3,5,8,10,15,8],"shifted_pitches":[12,8,10,5,8,5,12,5,7,12,3,5,8,10,15,8],"swapped_pitches":[12,8,10,5,8,5,12,8,5,12,3,5,8,10,15,8],"shift_direction":-1,"question_num":151,"has_decoy":false},{"rt":524.7000000029802,"stimulus":"[A] option 1, [L] option 2, [G] neither","key_press":71,"name":"choice","trial_type":"html-keyboard-response","trial_index":186,"time_elapsed":399835,"internal_node_id":"0.0-186.0","subject":"S1C1654","sona":"41739","block":4,"time":"2021-09-22T16:31:09.140Z","response":"neither","certainty":"high","char":"G","transposition":-3,"order":["swapped","shifted"],"probe_pitches":[10,5,3,7,10,7,15,7,5,3,10,15,10,5,3,12],"shifted_pitches":[10,5,3,7,10,7,15,8,5,3,10,15,10,5,3,12],"swapped_pitches":[10,5,3,7,10,7,15,5,7,3,10,15,10,5,3,12],"shift_direction":1,"question_num":161,"has_decoy":false},{"rt":360.29999999701977,"stimulus":"[A] option 1, [L] option 2, [G] neither","key_press":76,"name":"choice","trial_type":"html-keyboard-response","trial_index":197,"time_elapsed":422480,"internal_node_id":"0.0-197.0","subject":"S1C1654","sona":"41739","block":4,"time":"2021-09-22T16:31:09.140Z","response":"2nd","certainty":"high","char":"L","transposition":-3,"order":["swapped","shifted"],"probe_pitches":[5,8,14,12,5,3,6,10,13,9,7,8,7,12,6,2],"shifted_pitches":[5,8,14,12,5,3,6,11,13,9,7,8,7,12,6,2],"swapped_pitches":[5,8,14,12,5,3,6,13,10,9,7,8,7,12,6,2],"shift_direction":1,"question_num":171,"has_decoy":false},{"rt":1128.2999999970198,"stimulus":"[A] option 1, [L] option 2, [G] neither","key_press":65,"name":"choice","trial_type":"html-keyboard-response","trial_index":208,"time_elapsed":446028,"internal_node_id":"0.0-208.0","subject":"S1C1654","sona":"41739","block":4,"time":"2021-09-22T16:31:09.140Z","response":"1st","certainty":"high","char":"A","transposition":1,"order":["shifted","swapped"],"probe_pitches":[8,5,10,8,13,15,5,10,13,3,10,3,8,13,3,15],"shifted_pitches":[8,5,10,8,13,15,5,11,13,3,10,3,8,13,3,15],"swapped_pitches":[8,5,10,8,13,15,5,13,10,3,10,3,8,13,3,15],"shift_direction":1,"question_num":181,"has_decoy":false},{"rt":432.79999999701977,"stimulus":"[A] option 1, [L] option 2, [G] neither","key_press":76,"name":"choice","trial_type":"html-keyboard-response","trial_index":219,"time_elapsed":468703,"internal_node_id":"0.0-219.0","subject":"S1C1654","sona":"41739","block":4,"time":"2021-09-22T16:31:09.140Z","response":"2nd","certainty":"high","char":"L","transposition":3,"order":["shifted","swapped"],"probe_pitches":[10,8,14,6,2,11,2,11,6,10,4,5,4,3,8,13],"shifted_pitches":[10,8,14,6,2,11,2,11,7,10,4,5,4,3,8,13],"swapped_pitches":[10,8,14,6,2,11,2,6,11,10,4,5,4,3,8,13],"shift_direction":1,"question_num":191,"has_decoy":false}]