[{"rt":4666,"stimulus":"[A] option 1, [L] option 2, [G] neither","key_press":65,"name":"choice","trial_type":"html-keyboard-response","trial_index":10,"time_elapsed":36577,"internal_node_id":"0.0-10.0","subject":"S1C0819","sona":"41819","block":3,"time":"2021-09-15T23:06:07.061Z","response":"1st","certainty":"high","char":"A","transposition":-1,"order":["swapped","shifted"],"probe_pitches":[7,3,10,15,12,10,5,15],"shifted_pitches":[7,3,10,15,11,10,5,15],"swapped_pitches":[7,3,10,12,15,10,5,15],"shift_direction":-1,"question_num":1,"has_decoy":false},{"rt":780.0999999996275,"stimulus":"[A] option 1, [L] option 2, [G] neither","key_press":76,"name":"choice","trial_type":"html-keyboard-response","trial_index":21,"time_elapsed":52463,"internal_node_id":"0.0-21.0","subject":"S1C0819","sona":"41819","block":3,"time":"2021-09-15T23:06:07.061Z","response":"2nd","certainty":"high","char":"L","transposition":-2,"order":["shifted","swapped"],"probe_pitches":[11,5,12,13,9,15,10,6],"shifted_pitches":[11,5,12,13,8,15,10,6],"swapped_pitches":[11,5,12,9,13,15,10,6],"shift_direction":-1,"question_num":11,"has_decoy":false},{"rt":765,"stimulus":"[A] option 1, [L] option 2, [G] neither","key_press":65,"name":"choice","trial_type":"html-keyboard-response","trial_index":32,"time_elapsed":69665,"internal_node_id":"0.0-32.0","subject":"S1C0819","sona":"41819","block":3,"time":"2021-09-15T23:06:07.061Z","response":"1st","certainty":"high","char":"A","transposition":-1,"order":["swapped","shifted"],"probe_pitches":[15,10,3,4,12,9,4,7],"shifted_pitches":[15,10,3,5,12,9,4,7],"swapped_pitches":[15,10,3,12,4,9,4,7],"shift_direction":1,"question_num":21,"has_decoy":false},{"rt":884.5,"stimulus":"[A] option 1, [L] option 2, [G] neither","key_press":65,"name":"choice","trial_type":"html-keyboard-response","trial_index":43,"time_elapsed":85476,"internal_node_id":"0.0-43.0","subject":"S1C0819","sona":"41819","block":3,"time":"2021-09-15T23:06:07.061Z","response":"1st","certainty":"high","char":"A","transposition":1,"order":["shifted","swapped"],"probe_pitches":[12,15,10,5,3,12,15,7],"shifted_pitches":[12,15,10,4,3,12,15,7],"swapped_pitches":[12,15,10,3,5,12,15,7],"shift_direction":-1,"question_num":31,"has_decoy":false},{"rt":623.1000000014901,"stimulus":"[A] option 1, [L] option 2, [G] neither","key_press":65,"name":"choice","trial_type":"html-keyboard-response","trial_index":54,"time_elapsed":101097,"internal_node_id":"0.0-54.0","subject":"S1C0819","sona":"41819","block":3,"time":"2021-09-15T23:06:07.061Z","response":"1st","certainty":"high","char":"A","transposition":1,"order":["swapped","shifted"],"probe_pitches":[8,10,11,15,8,3,8,3],"shifted_pitches":[8,10,11,15,9,3,8,3],"swapped_pitches":[8,10,11,8,15,3,8,3],"shift_direction":1,"question_num":41,"has_decoy":false},{"rt":471.5,"stimulus":"[A] option 1, [L] option 2, [G] neither","key_press":76,"name":"choice","trial_type":"html-keyboard-response","trial_index":65,"time_elapsed":116892,"internal_node_id":"0.0-65.0","subject":"S1C0819","sona":"41819","block":3,"time":"2021-09-15T23:06:07.061Z","response":"2nd","certainty":"high","char":"L","transposition":-2,"order":["shifted","swapped"],"probe_pitches":[10,8,5,10,15,13,10,5],"shifted_pitches":[10,8,5,11,15,13,10,5],"swapped_pitches":[10,8,5,15,10,13,10,5],"shift_direction":1,"question_num":51,"has_decoy":false},{"rt":432.09999999962747,"stimulus":"[A] option 1, [L] option 2, [G] neither","key_press":65,"name":"choice","trial_type":"html-keyboard-response","trial_index":76,"time_elapsed":131679,"internal_node_id":"0.0-76.0","subject":"S1C0819","sona":"41819","block":3,"time":"2021-09-15T23:06:07.061Z","response":"1st","certainty":"high","char":"A","transposition":-1,"order":["shifted","swapped"],"probe_pitches":[11,9,7,4,11,3,4,11],"shifted_pitches":[11,9,7,4,12,3,4,11],"swapped_pitches":[11,9,7,11,4,3,4,11],"shift_direction":1,"question_num":61,"has_decoy":false},{"rt":618.0999999996275,"stimulus":"[A] option 1, [L] option 2, [G] neither","key_press":76,"name":"choice","trial_type":"html-keyboard-response","trial_index":87,"time_elapsed":146679,"internal_node_id":"0.0-87.0","subject":"S1C0819","sona":"41819","block":3,"time":"2021-09-15T23:06:07.061Z","response":"2nd","certainty":"high","char":"L","transposition":-3,"order":["swapped","shifted"],"probe_pitches":[15,10,3,8,13,6,3,15],"shifted_pitches":[15,10,3,8,14,6,3,15],"swapped_pitches":[15,10,3,13,8,6,3,15],"shift_direction":1,"question_num":71,"has_decoy":false},{"rt":431.59999999962747,"stimulus":"[A] option 1, [L] option 2, [G] neither","key_press":65,"name":"choice","trial_type":"html-keyboard-response","trial_index":98,"time_elapsed":162044,"internal_node_id":"0.0-98.0","subject":"S1C0819","sona":"41819","block":3,"time":"2021-09-15T23:06:07.061Z","response":"1st","certainty":"high","char":"A","transposition":-2,"order":["swapped","shifted"],"probe_pitches":[11,8,10,4,8,13,15,11],"shifted_pitches":[11,8,10,4,7,13,15,11],"swapped_pitches":[11,8,10,8,4,13,15,11],"shift_direction":-1,"question_num":81,"has_decoy":false},{"rt":760,"stimulus":"[A] option 1, [L] option 2, [G] neither","key_press":65,"name":"choice","trial_type":"html-keyboard-response","trial_index":109,"time_elapsed":177211,"internal_node_id":"0.0-109.0","subject":"S1C0819","sona":"41819","block":3,"time":"2021-09-15T23:06:07.061Z","response":"1st","certainty":"high","char":"A","transposition":0,"order":["shifted","swapped"],"probe_pitches":[6,8,6,13,10,15,6,15],"shifted_pitches":[6,8,6,12,10,15,6,15],"swapped_pitches":[6,8,6,10,13,15,6,15],"shift_direction":-1,"question_num":91,"has_decoy":false},{"rt":510.90000000037253,"stimulus":"[A] option 1, [L] option 2, [G] neither","key_press":76,"name":"choice","trial_type":"html-keyboard-response","trial_index":120,"time_elapsed":193413,"internal_node_id":"0.0-120.0","subject":"S1C0819","sona":"41819","block":3,"time":"2021-09-15T23:06:07.061Z","response":"2nd","certainty":"high","char":"L","transposition":-3,"order":["shifted","swapped"],"probe_pitches":[14,8,11,7,5,14,7,8],"shifted_pitches":[14,8,11,7,6,14,7,8],"swapped_pitches":[14,8,11,5,7,14,7,8],"shift_direction":1,"question_num":101,"has_decoy":false},{"rt":534.0999999996275,"stimulus":"[A] option 1, [L] option 2, [G] neither","key_press":65,"name":"choice","trial_type":"html-keyboard-response","trial_index":131,"time_elapsed":209481,"internal_node_id":"0.0-131.0","subject":"S1C0819","sona":"41819","block":3,"time":"2021-09-15T23:06:07.061Z","response":"1st","certainty":"high","char":"A","transposition":3,"order":["shifted","swapped"],"probe_pitches":[12,14,7,11,9,13,5,9],"shifted_pitches":[12,14,7,10,9,13,5,9],"swapped_pitches":[12,14,7,9,11,13,5,9],"shift_direction":-1,"question_num":111,"has_decoy":false},{"rt":1348.800000000745,"stimulus":"[A] option 1, [L] option 2, [G] neither","key_press":76,"name":"choice","trial_type":"html-keyboard-response","trial_index":142,"time_elapsed":225238,"internal_node_id":"0.0-142.0","subject":"S1C0819","sona":"41819","block":3,"time":"2021-09-15T23:06:07.061Z","response":"2nd","certainty":"high","char":"L","transposition":-3,"order":["shifted","swapped"],"probe_pitches":[14,8,9,12,4,13,10,6],"shifted_pitches":[14,8,9,11,4,13,10,6],"swapped_pitches":[14,8,9,4,12,13,10,6],"shift_direction":-1,"question_num":121,"has_decoy":false},{"rt":948.2000000011176,"stimulus":"[A] option 1, [L] option 2, [G] neither","key_press":76,"name":"choice","trial_type":"html-keyboard-response","trial_index":153,"time_elapsed":241092,"internal_node_id":"0.0-153.0","subject":"S1C0819","sona":"41819","block":3,"time":"2021-09-15T23:06:07.061Z","response":"2nd","certainty":"high","char":"L","transposition":-2,"order":["shifted","swapped"],"probe_pitches":[10,15,12,5,10,15,8,12],"shifted_pitches":[10,15,12,5,11,15,8,12],"swapped_pitches":[10,15,12,10,5,15,8,12],"shift_direction":1,"question_num":131,"has_decoy":false},{"rt":558.4000000003725,"stimulus":"[A] option 1, [L] option 2, [G] neither","key_press":65,"name":"choice","trial_type":"html-keyboard-response","trial_index":164,"time_elapsed":256620,"internal_node_id":"0.0-164.0","subject":"S1C0819","sona":"41819","block":3,"time":"2021-09-15T23:06:07.061Z","response":"1st","certainty":"high","char":"A","transposition":0,"order":["swapped","shifted"],"probe_pitches":[7,4,11,14,10,4,10,9],"shifted_pitches":[7,4,11,13,10,4,10,9],"swapped_pitches":[7,4,11,10,14,4,10,9],"shift_direction":-1,"question_num":141,"has_decoy":false},{"rt":1401.9000000003725,"stimulus":"[A] option 1, [L] option 2, [G] neither","key_press":76,"name":"choice","trial_type":"html-keyboard-response","trial_index":175,"time_elapsed":289635,"internal_node_id":"0.0-175.0","subject":"S1C0819","sona":"41819","block":3,"time":"2021-09-15T23:06:07.061Z","response":"2nd","certainty":"high","char":"L","transposition":-1,"order":["shifted","swapped"],"probe_pitches":[3,5,12,8,3,10,3,12],"shifted_pitches":[3,5,12,9,3,10,3,12],"swapped_pitches":[3,5,12,3,8,10,3,12],"shift_direction":1,"question_num":151,"has_decoy":false},{"rt":1221.800000000745,"stimulus":"[A] option 1, [L] option 2, [G] neither","key_press":65,"name":"choice","trial_type":"html-keyboard-response","trial_index":186,"time_elapsed":312066,"internal_node_id":"0.0-186.0","subject":"S1C0819","sona":"41819","block":3,"time":"2021-09-15T23:06:07.061Z","response":"1st","certainty":"high","char":"A","transposition":2,"order":["swapped","shifted"],"probe_pitches":[3,8,11,6,8,3,13,3],"shifted_pitches":[3,8,11,6,7,3,13,3],"swapped_pitches":[3,8,11,8,6,3,13,3],"shift_direction":-1,"question_num":161,"has_decoy":false},{"rt":465.80000000074506,"stimulus":"[A] option 1, [L] option 2, [G] neither","key_press":76,"name":"choice","trial_type":"html-keyboard-response","trial_index":197,"time_elapsed":328127,"internal_node_id":"0.0-197.0","subject":"S1C0819","sona":"41819","block":3,"time":"2021-09-15T23:06:07.061Z","response":"2nd","certainty":"high","char":"L","transposition":-3,"order":["swapped","shifted"],"probe_pitches":[10,8,15,10,13,5,3,13],"shifted_pitches":[10,8,15,10,12,5,3,13],"swapped_pitches":[10,8,15,13,10,5,3,13],"shift_direction":-1,"question_num":171,"has_decoy":false},{"rt":1375.0999999996275,"stimulus":"[A] option 1, [L] option 2, [G] neither","key_press":65,"name":"choice","trial_type":"html-keyboard-response","trial_index":208,"time_elapsed":344402,"internal_node_id":"0.0-208.0","subject":"S1C0819","sona":"41819","block":3,"time":"2021-09-15T23:06:07.061Z","response":"1st","certainty":"high","char":"A","transposition":3,"order":["swapped","shifted"],"probe_pitches":[15,13,11,8,15,11,6,15],"shifted_pitches":[15,13,11,9,15,11,6,15],"swapped_pitches":[15,13,11,15,8,11,6,15],"shift_direction":1,"question_num":181,"has_decoy":false},{"rt":410.5,"stimulus":"[A] option 1, [L] option 2, [G] neither","key_press":65,"name":"choice","trial_type":"html-keyboard-response","trial_index":219,"time_elapsed":359650,"internal_node_id":"0.0-219.0","subject":"S1C0819","sona":"41819","block":3,"time":"2021-09-15T23:06:07.061Z","response":"1st","certainty":"high","char":"A","transposition":2,"order":["swapped","shifted"],"probe_pitches":[7,4,11,13,6,12,11,7],"shifted_pitches":[7,4,11,14,6,12,11,7],"swapped_pitches":[7,4,11,6,13,12,11,7],"shift_direction":1,"question_num":191,"has_decoy":false}]