[{"rt":8871.89999999851,"stimulus":"[A] option 1, [L] option 2, [G] neither","key_press":76,"name":"choice","trial_type":"html-keyboard-response","trial_index":15,"time_elapsed":106108,"internal_node_id":"0.0-15.0","response":"2nd","certainty":"high","char":"L","transposition":1,"order":["swapped","shifted"],"probe_pitches":[1,-2,3,10,8,3,10,5],"shifted_pitches":[1,-2,3,9,8,3,10,5],"swapped_pitches":[1,-2,3,8,10,3,10,5],"shift_direction":-1,"question_num":1,"has_decoy":false,"subject":"S1C0819","sona":"41819","block":1,"time":"2021-09-15T22:49:41.363Z"},{"rt":5857.300000000745,"stimulus":"[A] option 1, [L] option 2, [G] neither","key_press":65,"name":"choice","trial_type":"html-keyboard-response","trial_index":26,"time_elapsed":128102,"internal_node_id":"0.0-26.0","response":"1st","certainty":"high","char":"A","transposition":-3,"order":["shifted","swapped"],"probe_pitches":[-2,1,6,-2,1,3,6,8],"shifted_pitches":[-2,1,6,-2,2,3,6,8],"swapped_pitches":[-2,1,6,1,-2,3,6,8],"shift_direction":1,"question_num":11,"has_decoy":false,"subject":"S1C0819","sona":"41819","block":1,"time":"2021-09-15T22:49:41.363Z"},{"rt":2269.0999999996275,"stimulus":"[A] option 1, [L] option 2, [G] neither","key_press":76,"name":"choice","trial_type":"html-keyboard-response","trial_index":37,"time_elapsed":146329,"internal_node_id":"0.0-37.0","response":"2nd","certainty":"high","char":"L","transposition":-1,"order":["swapped","shifted"],"probe_pitches":[8,4,8,13,15,8,3,5],"shifted_pitches":[8,4,8,14,15,8,3,5],"swapped_pitches":[8,4,8,15,13,8,3,5],"shift_direction":1,"question_num":21,"has_decoy":false,"subject":"S1C0819","sona":"41819","block":1,"time":"2021-09-15T22:49:41.363Z"},{"rt":1864.7999999988824,"stimulus":"[A] option 1, [L] option 2, [G] neither","key_press":76,"name":"choice","trial_type":"html-keyboard-response","trial_index":48,"time_elapsed":179373,"internal_node_id":"0.0-48.0","response":"2nd","certainty":"high","char":"L","transposition":1,"order":["shifted","swapped"],"probe_pitches":[12,13,10,8,5,6,3,14],"shifted_pitches":[12,13,10,9,5,6,3,14],"swapped_pitches":[12,13,10,5,8,6,3,14],"shift_direction":1,"question_num":31,"has_decoy":false,"subject":"S1C0819","sona":"41819","block":1,"time":"2021-09-15T22:49:41.363Z"},{"rt":1747.300000000745,"stimulus":"[A] option 1, [L] option 2, [G] neither","key_press":65,"name":"choice","trial_type":"html-keyboard-response","trial_index":59,"time_elapsed":197687,"internal_node_id":"0.0-59.0","response":"1st","certainty":"high","char":"A","transposition":0,"order":["swapped","shifted"],"probe_pitches":[9,11,4,11,9,7,3,13],"shifted_pitches":[9,11,4,11,8,7,3,13],"swapped_pitches":[9,11,4,9,11,7,3,13],"shift_direction":-1,"question_num":41,"has_decoy":false,"subject":"S1C0819","sona":"41819","block":1,"time":"2021-09-15T22:49:41.363Z"},{"rt":1268.800000000745,"stimulus":"[A] option 1, [L] option 2, [G] neither","key_press":76,"name":"choice","trial_type":"html-keyboard-response","trial_index":70,"time_elapsed":215037,"internal_node_id":"0.0-70.0","response":"2nd","certainty":"high","char":"L","transposition":-1,"order":["swapped","shifted"],"probe_pitches":[10,5,7,10,5,0,-2,2],"shifted_pitches":[10,5,7,11,5,0,-2,2],"swapped_pitches":[10,5,7,5,10,0,-2,2],"shift_direction":1,"question_num":51,"has_decoy":false,"subject":"S1C0819","sona":"41819","block":1,"time":"2021-09-15T22:49:41.363Z"},{"rt":2310.4000000003725,"stimulus":"[A] option 1, [L] option 2, [G] neither","key_press":65,"name":"choice","trial_type":"html-keyboard-response","trial_index":81,"time_elapsed":234282,"internal_node_id":"0.0-81.0","response":"1st","certainty":"high","char":"A","transposition":2,"order":["swapped","shifted"],"probe_pitches":[2,0,-2,2,10,7,10,5],"shifted_pitches":[2,0,-2,3,10,7,10,5],"swapped_pitches":[2,0,-2,10,2,7,10,5],"shift_direction":1,"question_num":61,"has_decoy":false,"subject":"S1C0819","sona":"41819","block":1,"time":"2021-09-15T22:49:41.363Z"},{"rt":1112.9000000003725,"stimulus":"[A] option 1, [L] option 2, [G] neither","key_press":76,"name":"choice","trial_type":"html-keyboard-response","trial_index":92,"time_elapsed":256055,"internal_node_id":"0.0-92.0","response":"2nd","certainty":"high","char":"L","transposition":0,"order":["shifted","swapped"],"probe_pitches":[10,8,5,10,1,3,10,8],"shifted_pitches":[10,8,5,10,2,3,10,8],"swapped_pitches":[10,8,5,1,10,3,10,8],"shift_direction":1,"question_num":71,"has_decoy":false,"subject":"S1C0819","sona":"41819","block":1,"time":"2021-09-15T22:49:41.363Z"},{"rt":970.1000000014901,"stimulus":"[A] option 1, [L] option 2, [G] neither","key_press":76,"name":"choice","trial_type":"html-keyboard-response","trial_index":103,"time_elapsed":286226,"internal_node_id":"0.0-103.0","response":"2nd","certainty":"high","char":"L","transposition":-2,"order":["swapped","shifted"],"probe_pitches":[8,3,5,10,3,-2,0,10],"shifted_pitches":[8,3,5,9,3,-2,0,10],"swapped_pitches":[8,3,5,3,10,-2,0,10],"shift_direction":-1,"question_num":81,"has_decoy":false,"subject":"S1C0819","sona":"41819","block":1,"time":"2021-09-15T22:49:41.363Z"},{"rt":1420,"stimulus":"[A] option 1, [L] option 2, [G] neither","key_press":76,"name":"choice","trial_type":"html-keyboard-response","trial_index":114,"time_elapsed":306686,"internal_node_id":"0.0-114.0","response":"2nd","certainty":"high","char":"L","transposition":3,"order":["shifted","swapped"],"probe_pitches":[6,3,4,12,6,5,4,12],"shifted_pitches":[6,3,4,12,7,5,4,12],"swapped_pitches":[6,3,4,6,12,5,4,12],"shift_direction":1,"question_num":91,"has_decoy":false,"subject":"S1C0819","sona":"41819","block":1,"time":"2021-09-15T22:49:41.363Z"},{"rt":7067.5,"stimulus":"[A] option 1, [L] option 2, [G] neither","key_press":71,"name":"choice","trial_type":"html-keyboard-response","trial_index":125,"time_elapsed":329621,"internal_node_id":"0.0-125.0","response":"neither","certainty":"high","char":"G","transposition":-1,"order":["shifted","swapped"],"probe_pitches":[5,7,10,7,0,3,5,0],"shifted_pitches":[5,7,10,7,-1,3,5,0],"swapped_pitches":[5,7,10,0,7,3,5,0],"shift_direction":-1,"question_num":101,"has_decoy":false,"subject":"S1C0819","sona":"41819","block":1,"time":"2021-09-15T22:49:41.363Z"},{"rt":596.3999999985099,"stimulus":"[A] option 1, [L] option 2, [G] neither","key_press":76,"name":"choice","trial_type":"html-keyboard-response","trial_index":136,"time_elapsed":346341,"internal_node_id":"0.0-136.0","response":"2nd","certainty":"high","char":"L","transposition":-2,"order":["shifted","swapped"],"probe_pitches":[5,10,11,13,7,10,13,14],"shifted_pitches":[5,10,11,13,6,10,13,14],"swapped_pitches":[5,10,11,7,13,10,13,14],"shift_direction":-1,"question_num":111,"has_decoy":false,"subject":"S1C0819","sona":"41819","block":1,"time":"2021-09-15T22:49:41.363Z"},{"rt":750,"stimulus":"[A] option 1, [L] option 2, [G] neither","key_press":76,"name":"choice","trial_type":"html-keyboard-response","trial_index":147,"time_elapsed":363103,"internal_node_id":"0.0-147.0","response":"2nd","certainty":"high","char":"L","transposition":-3,"order":["swapped","shifted"],"probe_pitches":[4,5,8,12,11,14,7,8],"shifted_pitches":[4,5,8,12,10,14,7,8],"swapped_pitches":[4,5,8,11,12,14,7,8],"shift_direction":-1,"question_num":121,"has_decoy":false,"subject":"S1C0819","sona":"41819","block":1,"time":"2021-09-15T22:49:41.363Z"},{"rt":513.2999999988824,"stimulus":"[A] option 1, [L] option 2, [G] neither","key_press":76,"name":"choice","trial_type":"html-keyboard-response","trial_index":158,"time_elapsed":379057,"internal_node_id":"0.0-158.0","response":"2nd","certainty":"high","char":"L","transposition":-1,"order":["shifted","swapped"],"probe_pitches":[6,12,6,12,5,8,14,11],"shifted_pitches":[6,12,6,13,5,8,14,11],"swapped_pitches":[6,12,6,5,12,8,14,11],"shift_direction":1,"question_num":131,"has_decoy":false,"subject":"S1C0819","sona":"41819","block":1,"time":"2021-09-15T22:49:41.363Z"},{"rt":4608.800000000745,"stimulus":"[A] option 1, [L] option 2, [G] neither","key_press":65,"name":"choice","trial_type":"html-keyboard-response","trial_index":169,"time_elapsed":399830,"internal_node_id":"0.0-169.0","response":"1st","certainty":"high","char":"A","transposition":-3,"order":["shifted","swapped"],"probe_pitches":[3,-2,1,3,8,-2,6,8],"shifted_pitches":[3,-2,1,3,7,-2,6,8],"swapped_pitches":[3,-2,1,8,3,-2,6,8],"shift_direction":-1,"question_num":141,"has_decoy":false,"subject":"S1C0819","sona":"41819","block":1,"time":"2021-09-15T22:49:41.363Z"},{"rt":1271.199999999255,"stimulus":"[A] option 1, [L] option 2, [G] neither","key_press":65,"name":"choice","trial_type":"html-keyboard-response","trial_index":180,"time_elapsed":417147,"internal_node_id":"0.0-180.0","response":"1st","certainty":"high","char":"A","transposition":2,"order":["swapped","shifted"],"probe_pitches":[15,9,15,13,4,10,7,5],"shifted_pitches":[15,9,15,12,4,10,7,5],"swapped_pitches":[15,9,15,4,13,10,7,5],"shift_direction":-1,"question_num":151,"has_decoy":false,"subject":"S1C0819","sona":"41819","block":1,"time":"2021-09-15T22:49:41.363Z"},{"rt":954.7000000011176,"stimulus":"[A] option 1, [L] option 2, [G] neither","key_press":65,"name":"choice","trial_type":"html-keyboard-response","trial_index":191,"time_elapsed":433613,"internal_node_id":"0.0-191.0","response":"1st","certainty":"high","char":"A","transposition":3,"order":["swapped","shifted"],"probe_pitches":[5,3,0,8,3,0,3,10],"shifted_pitches":[5,3,0,8,4,0,3,10],"swapped_pitches":[5,3,0,3,8,0,3,10],"shift_direction":1,"question_num":161,"has_decoy":false,"subject":"S1C0819","sona":"41819","block":1,"time":"2021-09-15T22:49:41.363Z"},{"rt":423.5,"stimulus":"[A] option 1, [L] option 2, [G] neither","key_press":65,"name":"choice","trial_type":"html-keyboard-response","trial_index":202,"time_elapsed":449510,"internal_node_id":"0.0-202.0","response":"1st","certainty":"high","char":"A","transposition":-3,"order":["swapped","shifted"],"probe_pitches":[10,7,14,12,6,8,3,4],"shifted_pitches":[10,7,14,11,6,8,3,4],"swapped_pitches":[10,7,14,6,12,8,3,4],"shift_direction":-1,"question_num":171,"has_decoy":false,"subject":"S1C0819","sona":"41819","block":1,"time":"2021-09-15T22:49:41.363Z"},{"rt":2533.0999999996275,"stimulus":"[A] option 1, [L] option 2, [G] neither","key_press":65,"name":"choice","trial_type":"html-keyboard-response","trial_index":213,"time_elapsed":482032,"internal_node_id":"0.0-213.0","response":"1st","certainty":"high","char":"A","transposition":-2,"order":["shifted","swapped"],"probe_pitches":[8,7,14,11,4,9,10,12],"shifted_pitches":[8,7,14,11,5,9,10,12],"swapped_pitches":[8,7,14,4,11,9,10,12],"shift_direction":1,"question_num":181,"has_decoy":false,"subject":"S1C0819","sona":"41819","block":1,"time":"2021-09-15T22:49:41.363Z"},{"rt":1637.0999999996275,"stimulus":"[A] option 1, [L] option 2, [G] neither","key_press":65,"name":"choice","trial_type":"html-keyboard-response","trial_index":224,"time_elapsed":500101,"internal_node_id":"0.0-224.0","response":"1st","certainty":"high","char":"A","transposition":-2,"order":["shifted","swapped"],"probe_pitches":[0,5,3,5,10,7,0,10],"shifted_pitches":[0,5,3,4,10,7,0,10],"swapped_pitches":[0,5,3,10,5,7,0,10],"shift_direction":-1,"question_num":191,"has_decoy":false,"subject":"S1C0819","sona":"41819","block":1,"time":"2021-09-15T22:49:41.363Z"}]