[{"rt":742.0999999996275,"stimulus":"[A] option 1, [L] option 2, [G] neither","key_press":76,"name":"choice","trial_type":"html-keyboard-response","trial_index":10,"time_elapsed":263149,"internal_node_id":"0.0-10.0","subject":"S1C0819","sona":"41819","block":5,"time":"2021-09-15T23:21:56.826Z","response":"2nd","certainty":"high","char":"L","transposition":0,"order":["swapped","shifted"],"probe_pitches":[5,2,7,0,5,2,9,0],"shifted_pitches":[5,2,7,0,6,2,9,0],"swapped_pitches":[5,2,7,5,0,2,9,0],"shift_direction":1,"question_num":1,"has_decoy":false},{"rt":452.30000000074506,"stimulus":"[A] option 1, [L] option 2, [G] neither","key_press":76,"name":"choice","trial_type":"html-keyboard-response","trial_index":21,"time_elapsed":278434,"internal_node_id":"0.0-21.0","subject":"S1C0819","sona":"41819","block":5,"time":"2021-09-15T23:21:56.826Z","response":"2nd","certainty":"high","char":"L","transposition":-1,"order":["swapped","shifted"],"probe_pitches":[9,5,0,2,7,-3,7,5],"shifted_pitches":[9,5,0,2,8,-3,7,5],"swapped_pitches":[9,5,0,7,2,-3,7,5],"shift_direction":1,"question_num":11,"has_decoy":false},{"rt":651,"stimulus":"[A] option 1, [L] option 2, [G] neither","key_press":76,"name":"choice","trial_type":"html-keyboard-response","trial_index":32,"time_elapsed":293540,"internal_node_id":"0.0-32.0","subject":"S1C0819","sona":"41819","block":5,"time":"2021-09-15T23:21:56.826Z","response":"2nd","certainty":"high","char":"L","transposition":-3,"order":["shifted","swapped"],"probe_pitches":[6,9,13,8,11,9,11,9],"shifted_pitches":[6,9,13,8,12,9,11,9],"swapped_pitches":[6,9,13,11,8,9,11,9],"shift_direction":1,"question_num":21,"has_decoy":false},{"rt":422.59999999962747,"stimulus":"[A] option 1, [L] option 2, [G] neither","key_press":65,"name":"choice","trial_type":"html-keyboard-response","trial_index":43,"time_elapsed":308568,"internal_node_id":"0.0-43.0","subject":"S1C0819","sona":"41819","block":5,"time":"2021-09-15T23:21:56.826Z","response":"1st","certainty":"high","char":"A","transposition":1,"order":["swapped","shifted"],"probe_pitches":[9,5,11,6,8,2,10,11],"shifted_pitches":[9,5,11,7,8,2,10,11],"swapped_pitches":[9,5,11,8,6,2,10,11],"shift_direction":1,"question_num":31,"has_decoy":false},{"rt":459.30000000074506,"stimulus":"[A] option 1, [L] option 2, [G] neither","key_press":65,"name":"choice","trial_type":"html-keyboard-response","trial_index":54,"time_elapsed":323436,"internal_node_id":"0.0-54.0","subject":"S1C0819","sona":"41819","block":5,"time":"2021-09-15T23:21:56.826Z","response":"1st","certainty":"high","char":"A","transposition":-1,"order":["shifted","swapped"],"probe_pitches":[10,4,7,4,2,11,1,11],"shifted_pitches":[10,4,7,3,2,11,1,11],"swapped_pitches":[10,4,7,2,4,11,1,11],"shift_direction":-1,"question_num":41,"has_decoy":false},{"rt":365.19999999925494,"stimulus":"[A] option 1, [L] option 2, [G] neither","key_press":65,"name":"choice","trial_type":"html-keyboard-response","trial_index":65,"time_elapsed":339584,"internal_node_id":"0.0-65.0","subject":"S1C0819","sona":"41819","block":5,"time":"2021-09-15T23:21:56.826Z","response":"1st","certainty":"high","char":"A","transposition":-3,"order":["swapped","shifted"],"probe_pitches":[10,8,13,12,8,9,1,5],"shifted_pitches":[10,8,13,11,8,9,1,5],"swapped_pitches":[10,8,13,8,12,9,1,5],"shift_direction":-1,"question_num":51,"has_decoy":false},{"rt":1030.300000000745,"stimulus":"[A] option 1, [L] option 2, [G] neither","key_press":65,"name":"choice","trial_type":"html-keyboard-response","trial_index":76,"time_elapsed":355186,"internal_node_id":"0.0-76.0","subject":"S1C0819","sona":"41819","block":5,"time":"2021-09-15T23:21:56.826Z","response":"1st","certainty":"high","char":"A","transposition":3,"order":["shifted","swapped"],"probe_pitches":[8,11,13,6,8,7,4,7],"shifted_pitches":[8,11,13,6,9,7,4,7],"swapped_pitches":[8,11,13,8,6,7,4,7],"shift_direction":1,"question_num":61,"has_decoy":false},{"rt":401.7000000011176,"stimulus":"[A] option 1, [L] option 2, [G] neither","key_press":76,"name":"choice","trial_type":"html-keyboard-response","trial_index":87,"time_elapsed":385097,"internal_node_id":"0.0-87.0","subject":"S1C0819","sona":"41819","block":5,"time":"2021-09-15T23:21:56.826Z","response":"2nd","certainty":"high","char":"L","transposition":1,"order":["shifted","swapped"],"probe_pitches":[-3,1,4,-3,6,4,-3,-1],"shifted_pitches":[-3,1,4,-3,7,4,-3,-1],"swapped_pitches":[-3,1,4,6,-3,4,-3,-1],"shift_direction":1,"question_num":71,"has_decoy":false},{"rt":512.2000000011176,"stimulus":"[A] option 1, [L] option 2, [G] neither","key_press":76,"name":"choice","trial_type":"html-keyboard-response","trial_index":98,"time_elapsed":400661,"internal_node_id":"0.0-98.0","subject":"S1C0819","sona":"41819","block":5,"time":"2021-09-15T23:21:56.826Z","response":"2nd","certainty":"high","char":"L","transposition":-3,"order":["swapped","shifted"],"probe_pitches":[4,1,-1,6,-3,-1,4,-3],"shifted_pitches":[4,1,-1,5,-3,-1,4,-3],"swapped_pitches":[4,1,-1,-3,6,-1,4,-3],"shift_direction":-1,"question_num":81,"has_decoy":false},{"rt":2966.7000000011176,"stimulus":"[A] option 1, [L] option 2, [G] neither","key_press":65,"name":"choice","trial_type":"html-keyboard-response","trial_index":109,"time_elapsed":417971,"internal_node_id":"0.0-109.0","subject":"S1C0819","sona":"41819","block":5,"time":"2021-09-15T23:21:56.826Z","response":"1st","certainty":"high","char":"A","transposition":3,"order":["shifted","swapped"],"probe_pitches":[0,2,9,4,-3,2,0,7],"shifted_pitches":[0,2,9,4,-4,2,0,7],"swapped_pitches":[0,2,9,-3,4,2,0,7],"shift_direction":-1,"question_num":91,"has_decoy":false},{"rt":1395.9000000003725,"stimulus":"[A] option 1, [L] option 2, [G] neither","key_press":76,"name":"choice","trial_type":"html-keyboard-response","trial_index":120,"time_elapsed":434454,"internal_node_id":"0.0-120.0","subject":"S1C0819","sona":"41819","block":5,"time":"2021-09-15T23:21:56.826Z","response":"2nd","certainty":"high","char":"L","transposition":-3,"order":["shifted","swapped"],"probe_pitches":[-3,-1,6,4,-3,2,6,-3],"shifted_pitches":[-3,-1,6,3,-3,2,6,-3],"swapped_pitches":[-3,-1,6,-3,4,2,6,-3],"shift_direction":-1,"question_num":101,"has_decoy":false},{"rt":1509.4000000003725,"stimulus":"[A] option 1, [L] option 2, [G] neither","key_press":65,"name":"choice","trial_type":"html-keyboard-response","trial_index":131,"time_elapsed":450479,"internal_node_id":"0.0-131.0","subject":"S1C0819","sona":"41819","block":5,"time":"2021-09-15T23:21:56.826Z","response":"1st","certainty":"high","char":"A","transposition":-2,"order":["shifted","swapped"],"probe_pitches":[13,7,3,11,7,8,2,4],"shifted_pitches":[13,7,3,10,7,8,2,4],"swapped_pitches":[13,7,3,7,11,8,2,4],"shift_direction":-1,"question_num":111,"has_decoy":false},{"rt":639.0999999996275,"stimulus":"[A] option 1, [L] option 2, [G] neither","key_press":76,"name":"choice","trial_type":"html-keyboard-response","trial_index":142,"time_elapsed":467203,"internal_node_id":"0.0-142.0","subject":"S1C0819","sona":"41819","block":5,"time":"2021-09-15T23:21:56.826Z","response":"2nd","certainty":"high","char":"L","transposition":-2,"order":["shifted","swapped"],"probe_pitches":[1,2,6,2,5,12,10,1],"shifted_pitches":[1,2,6,2,4,12,10,1],"swapped_pitches":[1,2,6,5,2,12,10,1],"shift_direction":-1,"question_num":121,"has_decoy":false},{"rt":629.1000000014901,"stimulus":"[A] option 1, [L] option 2, [G] neither","key_press":65,"name":"choice","trial_type":"html-keyboard-response","trial_index":153,"time_elapsed":482281,"internal_node_id":"0.0-153.0","subject":"S1C0819","sona":"41819","block":5,"time":"2021-09-15T23:21:56.826Z","response":"1st","certainty":"high","char":"A","transposition":0,"order":["swapped","shifted"],"probe_pitches":[7,10,8,1,5,7,13,2],"shifted_pitches":[7,10,8,1,6,7,13,2],"swapped_pitches":[7,10,8,5,1,7,13,2],"shift_direction":1,"question_num":131,"has_decoy":false},{"rt":907.0999999996275,"stimulus":"[A] option 1, [L] option 2, [G] neither","key_press":65,"name":"choice","trial_type":"html-keyboard-response","trial_index":164,"time_elapsed":498557,"internal_node_id":"0.0-164.0","subject":"S1C0819","sona":"41819","block":5,"time":"2021-09-15T23:21:56.826Z","response":"1st","certainty":"high","char":"A","transposition":-1,"order":["swapped","shifted"],"probe_pitches":[-3,2,9,7,2,4,-1,2],"shifted_pitches":[-3,2,9,8,2,4,-1,2],"swapped_pitches":[-3,2,9,2,7,4,-1,2],"shift_direction":1,"question_num":141,"has_decoy":false},{"rt":2192.199999999255,"stimulus":"[A] option 1, [L] option 2, [G] neither","key_press":65,"name":"choice","trial_type":"html-keyboard-response","trial_index":175,"time_elapsed":515301,"internal_node_id":"0.0-175.0","subject":"S1C0819","sona":"41819","block":5,"time":"2021-09-15T23:21:56.826Z","response":"1st","certainty":"high","char":"A","transposition":2,"order":["swapped","shifted"],"probe_pitches":[7,2,3,6,4,13,12,3],"shifted_pitches":[7,2,3,6,5,13,12,3],"swapped_pitches":[7,2,3,4,6,13,12,3],"shift_direction":1,"question_num":151,"has_decoy":false},{"rt":2574.5,"stimulus":"[A] option 1, [L] option 2, [G] neither","key_press":71,"name":"choice","trial_type":"html-keyboard-response","trial_index":186,"time_elapsed":533284,"internal_node_id":"0.0-186.0","subject":"S1C0819","sona":"41819","block":5,"time":"2021-09-15T23:21:56.826Z","response":"neither","certainty":"high","char":"G","transposition":-2,"order":["shifted","swapped"],"probe_pitches":[-1,4,9,2,6,9,2,-3],"shifted_pitches":[-1,4,9,2,5,9,2,-3],"swapped_pitches":[-1,4,9,6,2,9,2,-3],"shift_direction":-1,"question_num":161,"has_decoy":false},{"rt":401.2000000011176,"stimulus":"[A] option 1, [L] option 2, [G] neither","key_press":76,"name":"choice","trial_type":"html-keyboard-response","trial_index":197,"time_elapsed":548747,"internal_node_id":"0.0-197.0","subject":"S1C0819","sona":"41819","block":5,"time":"2021-09-15T23:21:56.826Z","response":"2nd","certainty":"high","char":"L","transposition":-1,"order":["swapped","shifted"],"probe_pitches":[13,11,12,9,7,5,7,4],"shifted_pitches":[13,11,12,8,7,5,7,4],"swapped_pitches":[13,11,12,7,9,5,7,4],"shift_direction":-1,"question_num":171,"has_decoy":false},{"rt":1133,"stimulus":"[A] option 1, [L] option 2, [G] neither","key_press":76,"name":"choice","trial_type":"html-keyboard-response","trial_index":208,"time_elapsed":564386,"internal_node_id":"0.0-208.0","subject":"S1C0819","sona":"41819","block":5,"time":"2021-09-15T23:21:56.826Z","response":"2nd","certainty":"high","char":"L","transposition":2,"order":["swapped","shifted"],"probe_pitches":[9,7,2,0,7,4,-3,2],"shifted_pitches":[9,7,2,-1,7,4,-3,2],"swapped_pitches":[9,7,2,7,0,4,-3,2],"shift_direction":-1,"question_num":181,"has_decoy":false},{"rt":438.2000000011176,"stimulus":"[A] option 1, [L] option 2, [G] neither","key_press":76,"name":"choice","trial_type":"html-keyboard-response","trial_index":219,"time_elapsed":579475,"internal_node_id":"0.0-219.0","subject":"S1C0819","sona":"41819","block":5,"time":"2021-09-15T23:21:56.826Z","response":"2nd","certainty":"high","char":"L","transposition":-2,"order":["shifted","swapped"],"probe_pitches":[7,4,-3,-1,4,7,2,7],"shifted_pitches":[7,4,-3,0,4,7,2,7],"swapped_pitches":[7,4,-3,4,-1,7,2,7],"shift_direction":1,"question_num":191,"has_decoy":false}]