[{"rt":1065,"stimulus":"[A] option 1, [L] option 2, [G] neither","key_press":76,"name":"choice","trial_type":"html-keyboard-response","trial_index":10,"time_elapsed":23319,"internal_node_id":"0.0-10.0","subject":"S1C0819","sona":"41819","block":2,"time":"2021-09-15T22:55:46.954Z","response":"2nd","certainty":"high","char":"L","transposition":2,"order":["shifted","swapped"],"probe_pitches":[6,10,13,14,12,4,7,2],"shifted_pitches":[6,10,13,14,11,4,7,2],"swapped_pitches":[6,10,13,12,14,4,7,2],"shift_direction":-1,"question_num":1,"has_decoy":false},{"rt":466.19999999925494,"stimulus":"[A] option 1, [L] option 2, [G] neither","key_press":76,"name":"choice","trial_type":"html-keyboard-response","trial_index":21,"time_elapsed":39189,"internal_node_id":"0.0-21.0","subject":"S1C0819","sona":"41819","block":2,"time":"2021-09-15T22:55:46.954Z","response":"2nd","certainty":"high","char":"L","transposition":3,"order":["swapped","shifted"],"probe_pitches":[5,0,2,7,5,-2,2,-2],"shifted_pitches":[5,0,2,8,5,-2,2,-2],"swapped_pitches":[5,0,2,5,7,-2,2,-2],"shift_direction":1,"question_num":11,"has_decoy":false},{"rt":583.2000000011176,"stimulus":"[A] option 1, [L] option 2, [G] neither","key_press":76,"name":"choice","trial_type":"html-keyboard-response","trial_index":32,"time_elapsed":60855,"internal_node_id":"0.0-32.0","subject":"S1C0819","sona":"41819","block":2,"time":"2021-09-15T22:55:46.954Z","response":"2nd","certainty":"high","char":"L","transposition":2,"order":["shifted","swapped"],"probe_pitches":[0,3,-2,5,10,7,-2,0],"shifted_pitches":[0,3,-2,6,10,7,-2,0],"swapped_pitches":[0,3,-2,10,5,7,-2,0],"shift_direction":1,"question_num":21,"has_decoy":false},{"rt":800.6000000014901,"stimulus":"[A] option 1, [L] option 2, [G] neither","key_press":65,"name":"choice","trial_type":"html-keyboard-response","trial_index":43,"time_elapsed":76757,"internal_node_id":"0.0-43.0","subject":"S1C0819","sona":"41819","block":2,"time":"2021-09-15T22:55:46.954Z","response":"1st","certainty":"high","char":"A","transposition":-1,"order":["swapped","shifted"],"probe_pitches":[9,5,3,11,13,9,14,13],"shifted_pitches":[9,5,3,12,13,9,14,13],"swapped_pitches":[9,5,3,13,11,9,14,13],"shift_direction":1,"question_num":31,"has_decoy":false},{"rt":1301.5999999996275,"stimulus":"[A] option 1, [L] option 2, [G] neither","key_press":65,"name":"choice","trial_type":"html-keyboard-response","trial_index":54,"time_elapsed":94256,"internal_node_id":"0.0-54.0","subject":"S1C0819","sona":"41819","block":2,"time":"2021-09-15T22:55:46.954Z","response":"1st","certainty":"high","char":"A","transposition":-3,"order":["shifted","swapped"],"probe_pitches":[5,1,3,1,8,-2,5,10],"shifted_pitches":[5,1,3,0,8,-2,5,10],"swapped_pitches":[5,1,3,8,1,-2,5,10],"shift_direction":-1,"question_num":41,"has_decoy":false},{"rt":618.3000000007451,"stimulus":"[A] option 1, [L] option 2, [G] neither","key_press":76,"name":"choice","trial_type":"html-keyboard-response","trial_index":65,"time_elapsed":109781,"internal_node_id":"0.0-65.0","subject":"S1C0819","sona":"41819","block":2,"time":"2021-09-15T22:55:46.954Z","response":"2nd","certainty":"high","char":"L","transposition":-3,"order":["shifted","swapped"],"probe_pitches":[11,9,10,14,8,9,6,7],"shifted_pitches":[11,9,10,13,8,9,6,7],"swapped_pitches":[11,9,10,8,14,9,6,7],"shift_direction":-1,"question_num":51,"has_decoy":false},{"rt":800.8000000007451,"stimulus":"[A] option 1, [L] option 2, [G] neither","key_press":65,"name":"choice","trial_type":"html-keyboard-response","trial_index":76,"time_elapsed":127081,"internal_node_id":"0.0-76.0","subject":"S1C0819","sona":"41819","block":2,"time":"2021-09-15T22:55:46.954Z","response":"1st","certainty":"high","char":"A","transposition":-2,"order":["swapped","shifted"],"probe_pitches":[1,6,3,10,8,1,-2,10],"shifted_pitches":[1,6,3,10,7,1,-2,10],"swapped_pitches":[1,6,3,8,10,1,-2,10],"shift_direction":-1,"question_num":61,"has_decoy":false},{"rt":591.5,"stimulus":"[A] option 1, [L] option 2, [G] neither","key_press":76,"name":"choice","trial_type":"html-keyboard-response","trial_index":87,"time_elapsed":144595,"internal_node_id":"0.0-87.0","subject":"S1C0819","sona":"41819","block":2,"time":"2021-09-15T22:55:46.954Z","response":"2nd","certainty":"high","char":"L","transposition":-1,"order":["shifted","swapped"],"probe_pitches":[3,0,-2,0,8,5,0,10],"shifted_pitches":[3,0,-2,0,7,5,0,10],"swapped_pitches":[3,0,-2,8,0,5,0,10],"shift_direction":-1,"question_num":71,"has_decoy":false},{"rt":948.9000000003725,"stimulus":"[A] option 1, [L] option 2, [G] neither","key_press":76,"name":"choice","trial_type":"html-keyboard-response","trial_index":98,"time_elapsed":160498,"internal_node_id":"0.0-98.0","subject":"S1C0819","sona":"41819","block":2,"time":"2021-09-15T22:55:46.954Z","response":"2nd","certainty":"high","char":"L","transposition":-1,"order":["swapped","shifted"],"probe_pitches":[8,3,6,-2,3,1,10,-2],"shifted_pitches":[8,3,6,-2,4,1,10,-2],"swapped_pitches":[8,3,6,3,-2,1,10,-2],"shift_direction":1,"question_num":81,"has_decoy":false},{"rt":591.3000000007451,"stimulus":"[A] option 1, [L] option 2, [G] neither","key_press":65,"name":"choice","trial_type":"html-keyboard-response","trial_index":109,"time_elapsed":176674,"internal_node_id":"0.0-109.0","subject":"S1C0819","sona":"41819","block":2,"time":"2021-09-15T22:55:46.954Z","response":"1st","certainty":"high","char":"A","transposition":-2,"order":["swapped","shifted"],"probe_pitches":[14,9,6,5,14,13,8,11],"shifted_pitches":[14,9,6,4,14,13,8,11],"swapped_pitches":[14,9,6,14,5,13,8,11],"shift_direction":-1,"question_num":91,"has_decoy":false},{"rt":515.7999999988824,"stimulus":"[A] option 1, [L] option 2, [G] neither","key_press":76,"name":"choice","trial_type":"html-keyboard-response","trial_index":120,"time_elapsed":192457,"internal_node_id":"0.0-120.0","subject":"S1C0819","sona":"41819","block":2,"time":"2021-09-15T22:55:46.954Z","response":"2nd","certainty":"high","char":"L","transposition":-1,"order":["swapped","shifted"],"probe_pitches":[14,9,14,12,4,6,4,3],"shifted_pitches":[14,9,14,12,5,6,4,3],"swapped_pitches":[14,9,14,4,12,6,4,3],"shift_direction":1,"question_num":101,"has_decoy":false},{"rt":3584.699999999255,"stimulus":"[A] option 1, [L] option 2, [G] neither","key_press":76,"name":"choice","trial_type":"html-keyboard-response","trial_index":131,"time_elapsed":215914,"internal_node_id":"0.0-131.0","subject":"S1C0819","sona":"41819","block":2,"time":"2021-09-15T22:55:46.954Z","response":"2nd","certainty":"high","char":"L","transposition":0,"order":["shifted","swapped"],"probe_pitches":[10,5,8,1,10,3,8,5],"shifted_pitches":[10,5,8,1,11,3,8,5],"swapped_pitches":[10,5,8,10,1,3,8,5],"shift_direction":1,"question_num":111,"has_decoy":false},{"rt":960.5,"stimulus":"[A] option 1, [L] option 2, [G] neither","key_press":76,"name":"choice","trial_type":"html-keyboard-response","trial_index":142,"time_elapsed":232667,"internal_node_id":"0.0-142.0","subject":"S1C0819","sona":"41819","block":2,"time":"2021-09-15T22:55:46.954Z","response":"2nd","certainty":"high","char":"L","transposition":3,"order":["swapped","shifted"],"probe_pitches":[11,9,2,4,5,3,9,12],"shifted_pitches":[11,9,2,4,6,3,9,12],"swapped_pitches":[11,9,2,5,4,3,9,12],"shift_direction":1,"question_num":121,"has_decoy":false},{"rt":2129.9000000003725,"stimulus":"[A] option 1, [L] option 2, [G] neither","key_press":65,"name":"choice","trial_type":"html-keyboard-response","trial_index":153,"time_elapsed":254253,"internal_node_id":"0.0-153.0","subject":"S1C0819","sona":"41819","block":2,"time":"2021-09-15T22:55:46.954Z","response":"1st","certainty":"high","char":"A","transposition":-2,"order":["swapped","shifted"],"probe_pitches":[2,-2,0,2,-2,7,2,5],"shifted_pitches":[2,-2,0,2,-1,7,2,5],"swapped_pitches":[2,-2,0,-2,2,7,2,5],"shift_direction":1,"question_num":131,"has_decoy":false},{"rt":6521.799999998882,"stimulus":"[A] option 1, [L] option 2, [G] neither","key_press":65,"name":"choice","trial_type":"html-keyboard-response","trial_index":164,"time_elapsed":276176,"internal_node_id":"0.0-164.0","subject":"S1C0819","sona":"41819","block":2,"time":"2021-09-15T22:55:46.954Z","response":"1st","certainty":"high","char":"A","transposition":1,"order":["swapped","shifted"],"probe_pitches":[3,-2,0,-2,5,3,5,8],"shifted_pitches":[3,-2,0,-3,5,3,5,8],"swapped_pitches":[3,-2,0,5,-2,3,5,8],"shift_direction":-1,"question_num":141,"has_decoy":false},{"rt":395.19999999925494,"stimulus":"[A] option 1, [L] option 2, [G] neither","key_press":76,"name":"choice","trial_type":"html-keyboard-response","trial_index":175,"time_elapsed":293014,"internal_node_id":"0.0-175.0","subject":"S1C0819","sona":"41819","block":2,"time":"2021-09-15T22:55:46.954Z","response":"2nd","certainty":"high","char":"L","transposition":0,"order":["shifted","swapped"],"probe_pitches":[9,4,8,9,11,6,5,9],"shifted_pitches":[9,4,8,10,11,6,5,9],"swapped_pitches":[9,4,8,11,9,6,5,9],"shift_direction":1,"question_num":151,"has_decoy":false},{"rt":401.90000000037253,"stimulus":"[A] option 1, [L] option 2, [G] neither","key_press":76,"name":"choice","trial_type":"html-keyboard-response","trial_index":186,"time_elapsed":309734,"internal_node_id":"0.0-186.0","subject":"S1C0819","sona":"41819","block":2,"time":"2021-09-15T22:55:46.954Z","response":"2nd","certainty":"high","char":"L","transposition":-2,"order":["shifted","swapped"],"probe_pitches":[2,8,4,2,6,12,3,10],"shifted_pitches":[2,8,4,2,7,12,3,10],"swapped_pitches":[2,8,4,6,2,12,3,10],"shift_direction":1,"question_num":161,"has_decoy":false},{"rt":513.5999999996275,"stimulus":"[A] option 1, [L] option 2, [G] neither","key_press":76,"name":"choice","trial_type":"html-keyboard-response","trial_index":197,"time_elapsed":325635,"internal_node_id":"0.0-197.0","subject":"S1C0819","sona":"41819","block":2,"time":"2021-09-15T22:55:46.954Z","response":"2nd","certainty":"high","char":"L","transposition":1,"order":["swapped","shifted"],"probe_pitches":[3,5,10,9,14,10,9,7],"shifted_pitches":[3,5,10,8,14,10,9,7],"swapped_pitches":[3,5,10,14,9,10,9,7],"shift_direction":-1,"question_num":171,"has_decoy":false},{"rt":3537.800000000745,"stimulus":"[A] option 1, [L] option 2, [G] neither","key_press":76,"name":"choice","trial_type":"html-keyboard-response","trial_index":208,"time_elapsed":344106,"internal_node_id":"0.0-208.0","subject":"S1C0819","sona":"41819","block":2,"time":"2021-09-15T22:55:46.954Z","response":"2nd","certainty":"high","char":"L","transposition":-3,"order":["shifted","swapped"],"probe_pitches":[10,7,3,5,-2,0,5,0],"shifted_pitches":[10,7,3,4,-2,0,5,0],"swapped_pitches":[10,7,3,-2,5,0,5,0],"shift_direction":-1,"question_num":181,"has_decoy":false},{"rt":475,"stimulus":"[A] option 1, [L] option 2, [G] neither","key_press":76,"name":"choice","trial_type":"html-keyboard-response","trial_index":219,"time_elapsed":360061,"internal_node_id":"0.0-219.0","subject":"S1C0819","sona":"41819","block":2,"time":"2021-09-15T22:55:46.954Z","response":"2nd","certainty":"high","char":"L","transposition":-3,"order":["shifted","swapped"],"probe_pitches":[8,12,14,13,10,5,6,5],"shifted_pitches":[8,12,14,13,9,5,6,5],"swapped_pitches":[8,12,14,10,13,5,6,5],"shift_direction":-1,"question_num":191,"has_decoy":false}]