[{"rt":341.80000000074506,"stimulus":"[A] option 1, [L] option 2, [G] neither","key_press":76,"name":"choice","trial_type":"html-keyboard-response","trial_index":10,"time_elapsed":24094,"internal_node_id":"0.0-10.0","subject":"S1C0819","sona":"41819","block":6,"time":"2021-09-15T23:27:16.305Z","response":"2nd","certainty":"high","char":"L","transposition":-3,"order":["shifted","swapped"],"probe_pitches":[-3,2,-2,6,2,-3,3,-1],"shifted_pitches":[-3,2,-2,6,1,-3,3,-1],"swapped_pitches":[-3,2,-2,2,6,-3,3,-1],"shift_direction":-1,"question_num":1,"has_decoy":false},{"rt":1029.4000000003725,"stimulus":"[A] option 1, [L] option 2, [G] neither","key_press":71,"name":"choice","trial_type":"html-keyboard-response","trial_index":21,"time_elapsed":39503,"internal_node_id":"0.0-21.0","subject":"S1C0819","sona":"41819","block":6,"time":"2021-09-15T23:27:16.305Z","response":"neither","certainty":"high","char":"G","transposition":-2,"order":["swapped","shifted"],"probe_pitches":[8,7,6,-1,3,4,7,2],"shifted_pitches":[8,7,6,0,3,4,7,2],"swapped_pitches":[8,7,6,3,-1,4,7,2],"shift_direction":1,"question_num":11,"has_decoy":false},{"rt":330.5,"stimulus":"[A] option 1, [L] option 2, [G] neither","key_press":76,"name":"choice","trial_type":"html-keyboard-response","trial_index":32,"time_elapsed":54530,"internal_node_id":"0.0-32.0","subject":"S1C0819","sona":"41819","block":6,"time":"2021-09-15T23:27:16.305Z","response":"2nd","certainty":"high","char":"L","transposition":3,"order":["shifted","swapped"],"probe_pitches":[4,9,5,9,1,2,9,7],"shifted_pitches":[4,9,5,8,1,2,9,7],"swapped_pitches":[4,9,5,1,9,2,9,7],"shift_direction":-1,"question_num":21,"has_decoy":false},{"rt":1586.4000000003725,"stimulus":"[A] option 1, [L] option 2, [G] neither","key_press":65,"name":"choice","trial_type":"html-keyboard-response","trial_index":43,"time_elapsed":70531,"internal_node_id":"0.0-43.0","subject":"S1C0819","sona":"41819","block":6,"time":"2021-09-15T23:27:16.305Z","response":"1st","certainty":"high","char":"A","transposition":3,"order":["swapped","shifted"],"probe_pitches":[10,5,3,7,-2,3,-2,0],"shifted_pitches":[10,5,3,7,-1,3,-2,0],"swapped_pitches":[10,5,3,-2,7,3,-2,0],"shift_direction":1,"question_num":31,"has_decoy":false},{"rt":192.89999999850988,"stimulus":"[A] option 1, [L] option 2, [G] neither","key_press":76,"name":"choice","trial_type":"html-keyboard-response","trial_index":54,"time_elapsed":85455,"internal_node_id":"0.0-54.0","subject":"S1C0819","sona":"41819","block":6,"time":"2021-09-15T23:27:16.305Z","response":"2nd","certainty":"high","char":"L","transposition":1,"order":["shifted","swapped"],"probe_pitches":[0,2,7,0,2,10,5,-2],"shifted_pitches":[0,2,7,-1,2,10,5,-2],"swapped_pitches":[0,2,7,2,0,10,5,-2],"shift_direction":-1,"question_num":41,"has_decoy":false},{"rt":913.2000000011176,"stimulus":"[A] option 1, [L] option 2, [G] neither","key_press":65,"name":"choice","trial_type":"html-keyboard-response","trial_index":65,"time_elapsed":100810,"internal_node_id":"0.0-65.0","subject":"S1C0819","sona":"41819","block":6,"time":"2021-09-15T23:27:16.305Z","response":"1st","certainty":"high","char":"A","transposition":-1,"order":["swapped","shifted"],"probe_pitches":[3,-2,-1,6,9,-1,6,3],"shifted_pitches":[3,-2,-1,7,9,-1,6,3],"swapped_pitches":[3,-2,-1,9,6,-1,6,3],"shift_direction":1,"question_num":51,"has_decoy":false},{"rt":432.59999999962747,"stimulus":"[A] option 1, [L] option 2, [G] neither","key_press":65,"name":"choice","trial_type":"html-keyboard-response","trial_index":76,"time_elapsed":115591,"internal_node_id":"0.0-76.0","subject":"S1C0819","sona":"41819","block":6,"time":"2021-09-15T23:27:16.305Z","response":"1st","certainty":"high","char":"A","transposition":2,"order":["swapped","shifted"],"probe_pitches":[3,8,1,5,8,-2,5,8],"shifted_pitches":[3,8,1,5,7,-2,5,8],"swapped_pitches":[3,8,1,8,5,-2,5,8],"shift_direction":-1,"question_num":61,"has_decoy":false},{"rt":1663.0999999996275,"stimulus":"[A] option 1, [L] option 2, [G] neither","key_press":65,"name":"choice","trial_type":"html-keyboard-response","trial_index":87,"time_elapsed":131914,"internal_node_id":"0.0-87.0","subject":"S1C0819","sona":"41819","block":6,"time":"2021-09-15T23:27:16.305Z","response":"1st","certainty":"high","char":"A","transposition":-1,"order":["shifted","swapped"],"probe_pitches":[5,8,10,3,-2,8,0,5],"shifted_pitches":[5,8,10,2,-2,8,0,5],"swapped_pitches":[5,8,10,-2,3,8,0,5],"shift_direction":-1,"question_num":71,"has_decoy":false},{"rt":560.2000000011176,"stimulus":"[A] option 1, [L] option 2, [G] neither","key_press":76,"name":"choice","trial_type":"html-keyboard-response","trial_index":98,"time_elapsed":147031,"internal_node_id":"0.0-98.0","subject":"S1C0819","sona":"41819","block":6,"time":"2021-09-15T23:27:16.305Z","response":"2nd","certainty":"high","char":"L","transposition":-2,"order":["shifted","swapped"],"probe_pitches":[6,1,8,3,10,1,8,1],"shifted_pitches":[6,1,8,4,10,1,8,1],"swapped_pitches":[6,1,8,10,3,1,8,1],"shift_direction":1,"question_num":81,"has_decoy":false},{"rt":359.69999999925494,"stimulus":"[A] option 1, [L] option 2, [G] neither","key_press":76,"name":"choice","trial_type":"html-keyboard-response","trial_index":109,"time_elapsed":161813,"internal_node_id":"0.0-109.0","subject":"S1C0819","sona":"41819","block":6,"time":"2021-09-15T23:27:16.305Z","response":"2nd","certainty":"high","char":"L","transposition":-3,"order":["shifted","swapped"],"probe_pitches":[1,-2,3,6,-2,3,8,10],"shifted_pitches":[1,-2,3,6,-1,3,8,10],"swapped_pitches":[1,-2,3,-2,6,3,8,10],"shift_direction":1,"question_num":91,"has_decoy":false},{"rt":679.3999999985099,"stimulus":"[A] option 1, [L] option 2, [G] neither","key_press":65,"name":"choice","trial_type":"html-keyboard-response","trial_index":120,"time_elapsed":176988,"internal_node_id":"0.0-120.0","subject":"S1C0819","sona":"41819","block":6,"time":"2021-09-15T23:27:16.305Z","response":"1st","certainty":"high","char":"A","transposition":-2,"order":["swapped","shifted"],"probe_pitches":[10,8,10,5,1,3,-2,5],"shifted_pitches":[10,8,10,5,0,3,-2,5],"swapped_pitches":[10,8,10,1,5,3,-2,5],"shift_direction":-1,"question_num":101,"has_decoy":false},{"rt":727.5999999996275,"stimulus":"[A] option 1, [L] option 2, [G] neither","key_press":65,"name":"choice","trial_type":"html-keyboard-response","trial_index":131,"time_elapsed":192111,"internal_node_id":"0.0-131.0","subject":"S1C0819","sona":"41819","block":6,"time":"2021-09-15T23:27:16.305Z","response":"1st","certainty":"high","char":"A","transposition":2,"order":["swapped","shifted"],"probe_pitches":[5,3,-3,-2,3,9,5,1],"shifted_pitches":[5,3,-3,-2,2,9,5,1],"swapped_pitches":[5,3,-3,3,-2,9,5,1],"shift_direction":-1,"question_num":111,"has_decoy":false},{"rt":286.80000000074506,"stimulus":"[A] option 1, [L] option 2, [G] neither","key_press":76,"name":"choice","trial_type":"html-keyboard-response","trial_index":142,"time_elapsed":206741,"internal_node_id":"0.0-142.0","subject":"S1C0819","sona":"41819","block":6,"time":"2021-09-15T23:27:16.305Z","response":"2nd","certainty":"high","char":"L","transposition":-2,"order":["shifted","swapped"],"probe_pitches":[9,5,9,6,3,0,5,3],"shifted_pitches":[9,5,9,6,4,0,5,3],"swapped_pitches":[9,5,9,3,6,0,5,3],"shift_direction":1,"question_num":121,"has_decoy":false},{"rt":686.5999999996275,"stimulus":"[A] option 1, [L] option 2, [G] neither","key_press":76,"name":"choice","trial_type":"html-keyboard-response","trial_index":153,"time_elapsed":221781,"internal_node_id":"0.0-153.0","subject":"S1C0819","sona":"41819","block":6,"time":"2021-09-15T23:27:16.305Z","response":"2nd","certainty":"high","char":"L","transposition":-1,"order":["swapped","shifted"],"probe_pitches":[1,2,-2,6,3,1,3,4],"shifted_pitches":[1,2,-2,5,3,1,3,4],"swapped_pitches":[1,2,-2,3,6,1,3,4],"shift_direction":-1,"question_num":131,"has_decoy":false},{"rt":713,"stimulus":"[A] option 1, [L] option 2, [G] neither","key_press":76,"name":"choice","trial_type":"html-keyboard-response","trial_index":164,"time_elapsed":236848,"internal_node_id":"0.0-164.0","subject":"S1C0819","sona":"41819","block":6,"time":"2021-09-15T23:27:16.305Z","response":"2nd","certainty":"high","char":"L","transposition":-1,"order":["swapped","shifted"],"probe_pitches":[7,3,10,5,7,10,7,0],"shifted_pitches":[7,3,10,6,7,10,7,0],"swapped_pitches":[7,3,10,7,5,10,7,0],"shift_direction":1,"question_num":141,"has_decoy":false},{"rt":817.6999999992549,"stimulus":"[A] option 1, [L] option 2, [G] neither","key_press":65,"name":"choice","trial_type":"html-keyboard-response","trial_index":175,"time_elapsed":252005,"internal_node_id":"0.0-175.0","subject":"S1C0819","sona":"41819","block":6,"time":"2021-09-15T23:27:16.305Z","response":"1st","certainty":"high","char":"A","transposition":0,"order":["shifted","swapped"],"probe_pitches":[2,-2,5,2,1,5,4,7],"shifted_pitches":[2,-2,5,3,1,5,4,7],"swapped_pitches":[2,-2,5,1,2,5,4,7],"shift_direction":1,"question_num":151,"has_decoy":false},{"rt":375.40000000037253,"stimulus":"[A] option 1, [L] option 2, [G] neither","key_press":65,"name":"choice","trial_type":"html-keyboard-response","trial_index":186,"time_elapsed":266847,"internal_node_id":"0.0-186.0","subject":"S1C0819","sona":"41819","block":6,"time":"2021-09-15T23:27:16.305Z","response":"1st","certainty":"high","char":"A","transposition":0,"order":["shifted","swapped"],"probe_pitches":[7,5,7,2,10,0,10,0],"shifted_pitches":[7,5,7,2,9,0,10,0],"swapped_pitches":[7,5,7,10,2,0,10,0],"shift_direction":-1,"question_num":161,"has_decoy":false},{"rt":2593.39999999851,"stimulus":"[A] option 1, [L] option 2, [G] neither","key_press":76,"name":"choice","trial_type":"html-keyboard-response","trial_index":197,"time_elapsed":283984,"internal_node_id":"0.0-197.0","subject":"S1C0819","sona":"41819","block":6,"time":"2021-09-15T23:27:16.305Z","response":"2nd","certainty":"high","char":"L","transposition":1,"order":["shifted","swapped"],"probe_pitches":[-2,4,7,2,5,-2,1,8],"shifted_pitches":[-2,4,7,2,6,-2,1,8],"swapped_pitches":[-2,4,7,5,2,-2,1,8],"shift_direction":1,"question_num":171,"has_decoy":false},{"rt":902.5,"stimulus":"[A] option 1, [L] option 2, [G] neither","key_press":65,"name":"choice","trial_type":"html-keyboard-response","trial_index":208,"time_elapsed":301021,"internal_node_id":"0.0-208.0","subject":"S1C0819","sona":"41819","block":6,"time":"2021-09-15T23:27:16.305Z","response":"1st","certainty":"high","char":"A","transposition":-3,"order":["swapped","shifted"],"probe_pitches":[0,6,5,4,0,-3,7,3],"shifted_pitches":[0,6,5,4,-1,-3,7,3],"swapped_pitches":[0,6,5,0,4,-3,7,3],"shift_direction":-1,"question_num":181,"has_decoy":false},{"rt":280.2999999988824,"stimulus":"[A] option 1, [L] option 2, [G] neither","key_press":76,"name":"choice","trial_type":"html-keyboard-response","trial_index":219,"time_elapsed":315782,"internal_node_id":"0.0-219.0","subject":"S1C0819","sona":"41819","block":6,"time":"2021-09-15T23:27:16.305Z","response":"2nd","certainty":"high","char":"L","transposition":-3,"order":["swapped","shifted"],"probe_pitches":[0,-2,5,3,10,8,5,10],"shifted_pitches":[0,-2,5,4,10,8,5,10],"swapped_pitches":[0,-2,5,10,3,8,5,10],"shift_direction":1,"question_num":191,"has_decoy":false}]